%time,field.header.seq,field.header.stamp,field.header.frame_id,field.orientation.x,field.orientation.y,field.orientation.z,field.orientation.w,field.orientation_covariance0,field.orientation_covariance1,field.orientation_covariance2,field.orientation_covariance3,field.orientation_covariance4,field.orientation_covariance5,field.orientation_covariance6,field.orientation_covariance7,field.orientation_covariance8,field.angular_velocity.x,field.angular_velocity.y,field.angular_velocity.z,field.angular_velocity_covariance0,field.angular_velocity_covariance1,field.angular_velocity_covariance2,field.angular_velocity_covariance3,field.angular_velocity_covariance4,field.angular_velocity_covariance5,field.angular_velocity_covariance6,field.angular_velocity_covariance7,field.angular_velocity_covariance8,field.linear_acceleration.x,field.linear_acceleration.y,field.linear_acceleration.z,field.linear_acceleration_covariance0,field.linear_acceleration_covariance1,field.linear_acceleration_covariance2,field.linear_acceleration_covariance3,field.linear_acceleration_covariance4,field.linear_acceleration_covariance5,field.linear_acceleration_covariance6,field.linear_acceleration_covariance7,field.linear_acceleration_covariance8
27136000000,0,27136000000,imu_link,-0.00129768908914,-0.357968972426,-0.000191900750116,0.933732560189,0.0,0.0,0.0,0.0,0.0,0.0,0.0,0.0,0.0,-0.00101750351242,-0.191600606593,-0.00148348963396,0.0,0.0,0.0,0.0,0.0,0.0,0.0,0.0,0.0,5.09802583146,-0.0135030407792,8.56727114598,0.0,0.0,0.0,0.0,0.0,0.0,0.0,0.0,0.0
27140000000,1,27140000000,imu_link,-0.00130045095587,-0.358322922918,-0.000195306539657,0.933596783196,0.0,0.0,0.0,0.0,0.0,0.0,0.0,0.0,0.0,-0.0019531425605,-0.18954759354,-0.00133840378997,0.0,0.0,0.0,0.0,0.0,0.0,0.0,0.0,0.0,5.10123983886,-0.0136680417008,8.55628853962,0.0,0.0,0.0,0.0,0.0,0.0,0.0,0.0,0.0
27144000000,2,27144000000,imu_link,-0.00130484285347,-0.358672208026,-0.000199040357484,0.933462642508,0.0,0.0,0.0,0.0,0.0,0.0,0.0,0.0,0.0,-0.00277220004642,-0.187076582711,-0.00119629480164,0.0,0.0,0.0,0.0,0.0,0.0,0.0,0.0,0.0,5.10704220521,-0.0141167387864,8.54532331395,0.0,0.0,0.0,0.0,0.0,0.0,0.0,0.0,0.0
27148000000,3,27148000000,imu_link,-0.00131041093925,-0.359016261402,-0.000202983020664,0.933330362557,0.0,0.0,0.0,0.0,0.0,0.0,0.0,0.0,0.0,-0.00335792413812,-0.184301052119,-0.00107923797599,0.0,0.0,0.0,0.0,0.0,0.0,0.0,0.0,0.0,5.11223083924,-0.0147043180427,8.53244397341,0.0,0.0,0.0,0.0,0.0,0.0,0.0,0.0,0.0
27152000000,4,27152000000,imu_link,-0.00131690460291,-0.359354587263,-0.000207025781469,0.933200141189,0.0,0.0,0.0,0.0,0.0,0.0,0.0,0.0,0.0,-0.00380705996245,-0.181258716006,-0.000955839660413,0.0,0.0,0.0,0.0,0.0,0.0,0.0,0.0,0.0,5.11573322322,-0.0148124789515,8.51644795272,0.0,0.0,0.0,0.0,0.0,0.0,0.0,0.0,0.0
27156000000,5,27156000000,imu_link,-0.00132416371292,-0.359686846397,-0.000211089481602,0.933072116484,0.0,0.0,0.0,0.0,0.0,0.0,0.0,0.0,0.0,-0.00416716120889,-0.178033354774,-0.000823854578889,0.0,0.0,0.0,0.0,0.0,0.0,0.0,0.0,0.0,5.11883054955,-0.0145034842114,8.5026312524,0.0,0.0,0.0,0.0,0.0,0.0,0.0,0.0,0.0
27160000000,6,27160000000,imu_link,-0.0013321125205,-0.360012647771,-0.000215161503679,0.932946446816,0.0,0.0,0.0,0.0,0.0,0.0,0.0,0.0,0.0,-0.00448954900495,-0.174597105749,-0.000699175357242,0.0,0.0,0.0,0.0,0.0,0.0,0.0,0.0,0.0,5.12158748778,-0.0142155533077,8.48938537994,0.0,0.0,0.0,0.0,0.0,0.0,0.0,0.0,0.0
27164000000,7,27164000000,imu_link,-0.00134063974214,-0.360331431313,-0.000219223580195,0.932823356394,0.0,0.0,0.0,0.0,0.0,0.0,0.0,0.0,0.0,-0.00475661047634,-0.170859262222,-0.00058546607357,0.0,0.0,0.0,0.0,0.0,0.0,0.0,0.0,0.0,5.12403099632,-0.0138265215111,8.47522677802,0.0,0.0,0.0,0.0,0.0,0.0,0.0,0.0,0.0
27168000000,8,27168000000,imu_link,-0.00134980763939,-0.360642047732,-0.00022330457893,0.932703297712,0.0,0.0,0.0,0.0,0.0,0.0,0.0,0.0,0.0,-0.00505770117808,-0.1665038623,-0.000473056931688,0.0,0.0,0.0,0.0,0.0,0.0,0.0,0.0,0.0,5.12775856093,-0.0138940457234,8.46439337459,0.0,0.0,0.0,0.0,0.0,0.0,0.0,0.0,0.0
27172000000,9,27172000000,imu_link,-0.00135973655322,-0.360943300675,-0.000227431034774,0.93258674293,0.0,0.0,0.0,0.0,0.0,0.0,0.0,0.0,0.0,-0.00541948004904,-0.161505416213,-0.000350317966662,0.0,0.0,0.0,0.0,0.0,0.0,0.0,0.0,0.0,5.12933881415,-0.0141076159767,8.44858730192,0.0,0.0,0.0,0.0,0.0,0.0,0.0,0.0,0.0
27176000000,10,27176000000,imu_link,-0.00137054219439,-0.361234197404,-0.000231632966748,0.932474086817,0.0,0.0,0.0,0.0,0.0,0.0,0.0,0.0,0.0,-0.0058404405788,-0.155972831108,-0.000219803349765,0.0,0.0,0.0,0.0,0.0,0.0,0.0,0.0,0.0,5.13134221589,-0.0144003087838,8.43289334133,0.0,0.0,0.0,0.0,0.0,0.0,0.0,0.0,0.0
27180000000,11,27180000000,imu_link,-0.00138204861588,-0.361514237663,-0.000235892081286,0.932365534683,0.0,0.0,0.0,0.0,0.0,0.0,0.0,0.0,0.0,-0.00617594348972,-0.150169934404,-0.000111976129508,0.0,0.0,0.0,0.0,0.0,0.0,0.0,0.0,0.0,5.13216546589,-0.0147171013451,8.419417822,0.0,0.0,0.0,0.0,0.0,0.0,0.0,0.0,0.0
27184000000,12,27184000000,imu_link,-0.00139420285083,-0.361783507684,-0.000240224390137,0.932261064326,0.0,0.0,0.0,0.0,0.0,0.0,0.0,0.0,0.0,-0.00648962304531,-0.144411250265,-2.10772333168e-05,0.0,0.0,0.0,0.0,0.0,0.0,0.0,0.0,0.0,5.13172603028,-0.0149307010228,8.40733416888,0.0,0.0,0.0,0.0,0.0,0.0,0.0,0.0,0.0
27188000000,13,27188000000,imu_link,-0.00140684106792,-0.362042418524,-0.000244658663136,0.932160527018,0.0,0.0,0.0,0.0,0.0,0.0,0.0,0.0,0.0,-0.00673216888771,-0.138871049787,2.66363501481e-05,0.0,0.0,0.0,0.0,0.0,0.0,0.0,0.0,0.0,5.13220928037,-0.015128002369,8.40070491638,0.0,0.0,0.0,0.0,0.0,0.0,0.0,0.0,0.0
27192000000,14,27192000000,imu_link,-0.00141980449032,-0.36229130114,-0.000249287249704,0.932063804216,0.0,0.0,0.0,0.0,0.0,0.0,0.0,0.0,0.0,-0.00691745907456,-0.133506488644,2.46037351647e-06,0.0,0.0,0.0,0.0,0.0,0.0,0.0,0.0,0.0,5.13476444915,-0.0154772635118,8.39069324659,0.0,0.0,0.0,0.0,0.0,0.0,0.0,0.0,0.0
27196000000,15,27196000000,imu_link,-0.00143273243109,-0.362530372895,-0.000254021999087,0.931970821152,0.0,0.0,0.0,0.0,0.0,0.0,0.0,0.0,0.0,-0.00691872242693,-0.128256796738,-4.60113435884e-05,0.0,0.0,0.0,0.0,0.0,0.0,0.0,0.0,0.0,5.13871868835,-0.0156319010412,8.37959226965,0.0,0.0,0.0,0.0,0.0,0.0,0.0,0.0,0.0
27200000000,16,27200000000,imu_link,-0.00144522850434,-0.362759879185,-0.000258708224319,0.931881491628,0.0,0.0,0.0,0.0,0.0,0.0,0.0,0.0,0.0,-0.0067072803487,-0.123137149271,-9.43659284239e-05,0.0,0.0,0.0,0.0,0.0,0.0,0.0,0.0,0.0,5.14391693835,-0.0154988092857,8.37405322605,0.0,0.0,0.0,0.0,0.0,0.0,0.0,0.0,0.0
27204000000,17,27204000000,imu_link,-0.00145739472847,-0.362980280084,-0.00026332549366,0.931795644404,0.0,0.0,0.0,0.0,0.0,0.0,0.0,0.0,0.0,-0.00653974442785,-0.118262964223,-0.000115034448221,0.0,0.0,0.0,0.0,0.0,0.0,0.0,0.0,0.0,5.14705504321,-0.0148023869422,8.3654207124,0.0,0.0,0.0,0.0,0.0,0.0,0.0,0.0,0.0
27208000000,18,27208000000,imu_link,-0.00146946844626,-0.363191981015,-0.000267928876638,0.931713128491,0.0,0.0,0.0,0.0,0.0,0.0,0.0,0.0,0.0,-0.00649284361392,-0.113605065636,-0.000118575557692,0.0,0.0,0.0,0.0,0.0,0.0,0.0,0.0,0.0,5.1505834207,-0.0142650037871,8.35870664177,0.0,0.0,0.0,0.0,0.0,0.0,0.0,0.0,0.0
27212000000,19,27212000000,imu_link,-0.00148157119114,-0.363395178537,-0.00027258086106,0.931633873827,0.0,0.0,0.0,0.0,0.0,0.0,0.0,0.0,0.0,-0.00651393489594,-0.10905143467,-0.000129261017943,0.0,0.0,0.0,0.0,0.0,0.0,0.0,0.0,0.0,5.15279761227,-0.0139056388111,8.34709470886,0.0,0.0,0.0,0.0,0.0,0.0,0.0,0.0,0.0
27216000000,20,27216000000,imu_link,-0.00149361988463,-0.363589540046,-0.000277300755365,0.931558016751,0.0,0.0,0.0,0.0,0.0,0.0,0.0,0.0,0.0,-0.00649978326929,-0.104318078419,-0.000163706950359,0.0,0.0,0.0,0.0,0.0,0.0,0.0,0.0,0.0,5.15529414618,-0.0140163106545,8.33416689909,0.0,0.0,0.0,0.0,0.0,0.0,0.0,0.0,0.0
27220000000,21,27220000000,imu_link,-0.00150536406122,-0.363774821147,-0.000282048856854,0.931485659486,0.0,0.0,0.0,0.0,0.0,0.0,0.0,0.0,0.0,-0.00636171890387,-0.099452304091,-0.000224938254261,0.0,0.0,0.0,0.0,0.0,0.0,0.0,0.0,0.0,5.15971983194,-0.0143682243109,8.32468729339,0.0,0.0,0.0,0.0,0.0,0.0,0.0,0.0,0.0
27224000000,22,27224000000,imu_link,-0.00151644426345,-0.363950894914,-0.000286734976612,0.931416858486,0.0,0.0,0.0,0.0,0.0,0.0,0.0,0.0,0.0,-0.00603982561086,-0.0945171675618,-0.000309407572585,0.0,0.0,0.0,0.0,0.0,0.0,0.0,0.0,0.0,5.1645227064,-0.0145119713454,8.31619128141,0.0,0.0,0.0,0.0,0.0,0.0,0.0,0.0,0.0
27228000000,23,27228000000,imu_link,-0.00152686480516,-0.364117851437,-0.0002913553389,0.931351584559,0.0,0.0,0.0,0.0,0.0,0.0,0.0,0.0,0.0,-0.0057192826978,-0.089629304043,-0.000391407219057,0.0,0.0,0.0,0.0,0.0,0.0,0.0,0.0,0.0,5.16877993098,-0.0144297113579,8.30956006607,0.0,0.0,0.0,0.0,0.0,0.0,0.0,0.0,0.0
27232000000,24,27232000000,imu_link,-0.0015370072444,-0.364275967352,-0.000295994874139,0.931289734511,0.0,0.0,0.0,0.0,0.0,0.0,0.0,0.0,0.0,-0.00559194168284,-0.084889044105,-0.000443718646737,0.0,0.0,0.0,0.0,0.0,0.0,0.0,0.0,0.0,5.17163017599,-0.0143089912082,8.30091375381,0.0,0.0,0.0,0.0,0.0,0.0,0.0,0.0,0.0
27236000000,25,27236000000,imu_link,-0.0015474682365,-0.364425817178,-0.000300781521806,0.931231087672,0.0,0.0,0.0,0.0,0.0,0.0,0.0,0.0,0.0,-0.00576583062471,-0.080456490398,-0.00044737363168,0.0,0.0,0.0,0.0,0.0,0.0,0.0,0.0,0.0,5.17623739843,-0.0142323544307,8.29913000405,0.0,0.0,0.0,0.0,0.0,0.0,0.0,0.0,0.0
27240000000,26,27240000000,imu_link,-0.00155849513365,-0.364568375105,-0.000305743435634,0.931175266793,0.0,0.0,0.0,0.0,0.0,0.0,0.0,0.0,0.0,-0.00606017065901,-0.0765462911561,-0.000419798083969,0.0,0.0,0.0,0.0,0.0,0.0,0.0,0.0,0.0,5.18247946108,-0.0144091003392,8.30099076275,0.0,0.0,0.0,0.0,0.0,0.0,0.0,0.0,0.0
27244000000,27,27244000000,imu_link,-0.00156973637867,-0.364704571004,-0.000310754393396,0.93112191213,0.0,0.0,0.0,0.0,0.0,0.0,0.0,0.0,0.0,-0.006167959086,-0.0731346521761,-0.000398225496162,0.0,0.0,0.0,0.0,0.0,0.0,0.0,0.0,0.0,5.1887475369,-0.0143653171857,8.30340032496,0.0,0.0,0.0,0.0,0.0,0.0,0.0,0.0,0.0
27248000000,28,27248000000,imu_link,-0.0015804572342,-0.364834748382,-0.000315645506576,0.931070893593,0.0,0.0,0.0,0.0,0.0,0.0,0.0,0.0,0.0,-0.00590293370496,-0.0699066789023,-0.000432238024527,0.0,0.0,0.0,0.0,0.0,0.0,0.0,0.0,0.0,5.19402262216,-0.0142309694972,8.30037898501,0.0,0.0,0.0,0.0,0.0,0.0,0.0,0.0,0.0
27252000000,29,27252000000,imu_link,-0.00158986117604,-0.364959168206,-0.000320292610847,0.931022113216,0.0,0.0,0.0,0.0,0.0,0.0,0.0,0.0,0.0,-0.00524449224351,-0.0668180393065,-0.000553968149544,0.0,0.0,0.0,0.0,0.0,0.0,0.0,0.0,0.0,5.1989676026,-0.0138035544195,8.29472511901,0.0,0.0,0.0,0.0,0.0,0.0,0.0,0.0,0.0
27256000000,30,27256000000,imu_link,-0.0015972995515,-0.365077980166,-0.00032458432304,0.930975516153,0.0,0.0,0.0,0.0,0.0,0.0,0.0,0.0,0.0,-0.00426381004452,-0.0638090739554,-0.000742397432325,0.0,0.0,0.0,0.0,0.0,0.0,0.0,0.0,0.0,5.203478642,-0.0133836292004,8.28591777374,0.0,0.0,0.0,0.0,0.0,0.0,0.0,0.0,0.0
27260000000,31,27260000000,imu_link,-0.00160262452611,-0.365191376603,-0.000328498883611,0.930931029743,0.0,0.0,0.0,0.0,0.0,0.0,0.0,0.0,0.0,-0.00321039616095,-0.0609028959635,-0.00094794837767,0.0,0.0,0.0,0.0,0.0,0.0,0.0,0.0,0.0,5.20779317788,-0.0129629014258,8.27687335524,0.0,0.0,0.0,0.0,0.0,0.0,0.0,0.0,0.0
27264000000,32,27264000000,imu_link,-0.00160582068777,-0.365299515612,-0.000332050336339,0.930888594288,0.0,0.0,0.0,0.0,0.0,0.0,0.0,0.0,0.0,-0.00215242528097,-0.0580811900223,-0.00116309655562,0.0,0.0,0.0,0.0,0.0,0.0,0.0,0.0,0.0,5.21290962951,-0.0127565940941,8.27080843451,0.0,0.0,0.0,0.0,0.0,0.0,0.0,0.0,0.0
27268000000,33,27268000000,imu_link,-0.00160683472173,-0.365402674683,-0.000335233349212,0.930848103095,0.0,0.0,0.0,0.0,0.0,0.0,0.0,0.0,0.0,-0.00106873665465,-0.0554081208368,-0.00138585218402,0.0,0.0,0.0,0.0,0.0,0.0,0.0,0.0,0.0,5.21870523025,-0.0127533550286,8.265495205,0.0,0.0,0.0,0.0,0.0,0.0,0.0,0.0,0.0
27272000000,34,27272000000,imu_link,-0.00160554039003,-0.365501147754,-0.00033802983458,0.930809442886,0.0,0.0,0.0,0.0,0.0,0.0,0.0,0.0,0.0,7.69369308254e-05,-0.052892544302,-0.00162362276107,0.0,0.0,0.0,0.0,0.0,0.0,0.0,0.0,0.0,5.22360648877,-0.0126947126288,8.25830304208,0.0,0.0,0.0,0.0,0.0,0.0,0.0,0.0,0.0
27276000000,35,27276000000,imu_link,-0.00160190561557,-0.365595063757,-0.000340454667593,0.930772564779,0.0,0.0,0.0,0.0,0.0,0.0,0.0,0.0,0.0,0.00123477013948,-0.0504458855358,-0.0018744117799,0.0,0.0,0.0,0.0,0.0,0.0,0.0,0.0,0.0,5.22842933434,-0.0125469749727,8.25031309115,0.0,0.0,0.0,0.0,0.0,0.0,0.0,0.0,0.0
27280000000,36,27280000000,imu_link,-0.001596090484,-0.365684224755,-0.000342549043165,0.930737547819,0.0,0.0,0.0,0.0,0.0,0.0,0.0,0.0,0.0,0.00231056649248,-0.04789265232,-0.00211505996442,0.0,0.0,0.0,0.0,0.0,0.0,0.0,0.0,0.0,5.23384201433,-0.0122624062357,8.24254874335,0.0,0.0,0.0,0.0,0.0,0.0,0.0,0.0,0.0
27284000000,37,27284000000,imu_link,-0.00158850964727,-0.365768222334,-0.000344358342058,0.930704553328,0.0,0.0,0.0,0.0,0.0,0.0,0.0,0.0,0.0,0.0031851242258,-0.0451198903531,-0.00230077240225,0.0,0.0,0.0,0.0,0.0,0.0,0.0,0.0,0.0,5.23965916374,-0.0120395985569,8.23398006333,0.0,0.0,0.0,0.0,0.0,0.0,0.0,0.0,0.0
27288000000,38,27288000000,imu_link,-0.00157970992503,-0.365846798461,-0.000345945851244,0.930673683357,0.0,0.0,0.0,0.0,0.0,0.0,0.0,0.0,0.0,0.00379365113258,-0.0422084312594,-0.00241580503676,0.0,0.0,0.0,0.0,0.0,0.0,0.0,0.0,0.0,5.24608807616,-0.0118074521162,8.2275946489,0.0,0.0,0.0,0.0,0.0,0.0,0.0,0.0,0.0
27292000000,39,27292000000,imu_link,-0.00157026618397,-0.365919817037,-0.000347391346477,0.930644991972,0.0,0.0,0.0,0.0,0.0,0.0,0.0,0.0,0.0,0.00412007395703,-0.0392237839996,-0.00246276032906,0.0,0.0,0.0,0.0,0.0,0.0,0.0,0.0,0.0,5.2517204078,-0.0115373985908,8.22100960376,0.0,0.0,0.0,0.0,0.0,0.0,0.0,0.0,0.0
27296000000,40,27296000000,imu_link,-0.00156056691309,-0.365987148993,-0.000348721382422,0.930618530761,0.0,0.0,0.0,0.0,0.0,0.0,0.0,0.0,0.0,0.00426086538914,-0.0361696855892,-0.00245093410941,0.0,0.0,0.0,0.0,0.0,0.0,0.0,0.0,0.0,5.25694781343,-0.0111967045099,8.21414445514,0.0,0.0,0.0,0.0,0.0,0.0,0.0,0.0,0.0
27300000000,41,27300000000,imu_link,-0.00155077545215,-0.366048580759,-0.000349905470829,0.930594384889,0.0,0.0,0.0,0.0,0.0,0.0,0.0,0.0,0.0,0.00433124759406,-0.0330006782523,-0.0023948860296,0.0,0.0,0.0,0.0,0.0,0.0,0.0,0.0,0.0,5.26238047499,-0.0110419748033,8.20750738263,0.0,0.0,0.0,0.0,0.0,0.0,0.0,0.0,0.0
27304000000,42,27304000000,imu_link,-0.00154104312794,-0.366104056417,-0.000350928081805,0.930572577455,0.0,0.0,0.0,0.0,0.0,0.0,0.0,0.0,0.0,0.00433405689116,-0.0298014624472,-0.00230390016713,0.0,0.0,0.0,0.0,0.0,0.0,0.0,0.0,0.0,5.26744833775,-0.010965858438,8.20050598574,0.0,0.0,0.0,0.0,0.0,0.0,0.0,0.0,0.0
27308000000,43,27308000000,imu_link,-0.00153144961175,-0.36615411544,-0.000351824538624,0.930552897275,0.0,0.0,0.0,0.0,0.0,0.0,0.0,0.0,0.0,0.00429325287075,-0.0268918999727,-0.00221524638788,0.0,0.0,0.0,0.0,0.0,0.0,0.0,0.0,0.0,5.27400548931,-0.0111207517475,8.20092544271,0.0,0.0,0.0,0.0,0.0,0.0,0.0,0.0,0.0
27312000000,44,27312000000,imu_link,-0.00152197682836,-0.36619952593,-0.000352636530697,0.930535043103,0.0,0.0,0.0,0.0,0.0,0.0,0.0,0.0,0.0,0.00425312277667,-0.0243948326618,-0.00214996280732,0.0,0.0,0.0,0.0,0.0,0.0,0.0,0.0,0.0,5.28143472561,-0.0113418556243,8.20409898773,0.0,0.0,0.0,0.0,0.0,0.0,0.0,0.0,0.0
27316000000,45,27316000000,imu_link,-0.00151265094415,-0.366241213952,-0.000353401838976,0.930518651182,0.0,0.0,0.0,0.0,0.0,0.0,0.0,0.0,0.0,0.00419377957105,-0.0223952128288,-0.00209825457387,0.0,0.0,0.0,0.0,0.0,0.0,0.0,0.0,0.0,5.28916664248,-0.0116449242596,8.20820684487,0.0,0.0,0.0,0.0,0.0,0.0,0.0,0.0,0.0
27320000000,46,27320000000,imu_link,-0.00150376132631,-0.366279781012,-0.000354200980194,0.930503484822,0.0,0.0,0.0,0.0,0.0,0.0,0.0,0.0,0.0,0.00398498251108,-0.0207187820211,-0.00203152928036,0.0,0.0,0.0,0.0,0.0,0.0,0.0,0.0,0.0,5.29517974908,-0.0118283086092,8.20603239182,0.0,0.0,0.0,0.0,0.0,0.0,0.0,0.0,0.0
27324000000,47,27324000000,imu_link,-0.00149573381124,-0.366315663941,-0.000355113318093,0.930489371796,0.0,0.0,0.0,0.0,0.0,0.0,0.0,0.0,0.0,0.00356347348786,-0.0192771458494,-0.00192410413441,0.0,0.0,0.0,0.0,0.0,0.0,0.0,0.0,0.0,5.30144971612,-0.0119859077006,8.20372976572,0.0,0.0,0.0,0.0,0.0,0.0,0.0,0.0,0.0
27328000000,48,27328000000,imu_link,-0.00148863827021,-0.366348774839,-0.000356148520078,0.930476346979,0.0,0.0,0.0,0.0,0.0,0.0,0.0,0.0,0.0,0.00310769563961,-0.0177882325716,-0.00180830132368,0.0,0.0,0.0,0.0,0.0,0.0,0.0,0.0,0.0,5.30702589476,-0.0122368147457,8.1960409633,0.0,0.0,0.0,0.0,0.0,0.0,0.0,0.0,0.0
27332000000,49,27332000000,imu_link,-0.00148202382686,-0.366378816329,-0.000357220732311,0.930464528579,0.0,0.0,0.0,0.0,0.0,0.0,0.0,0.0,0.0,0.00287744267889,-0.016139300334,-0.00173489567884,0.0,0.0,0.0,0.0,0.0,0.0,0.0,0.0,0.0,5.31367512445,-0.0126091795537,8.18906713308,0.0,0.0,0.0,0.0,0.0,0.0,0.0,0.0,0.0
27336000000,50,27336000000,imu_link,-0.00147526259188,-0.366405489596,-0.000358210201965,0.930454035662,0.0,0.0,0.0,0.0,0.0,0.0,0.0,0.0,0.0,0.00296127304703,-0.0143295146586,-0.00172055919546,0.0,0.0,0.0,0.0,0.0,0.0,0.0,0.0,0.0,5.31996541775,-0.0128583279455,8.18138662878,0.0,0.0,0.0,0.0,0.0,0.0,0.0,0.0,0.0
27340000000,51,27340000000,imu_link,-0.00146789991921,-0.366428726558,-0.000359032661522,0.930444896122,0.0,0.0,0.0,0.0,0.0,0.0,0.0,0.0,0.0,0.00327205764976,-0.0124829258832,-0.00175026949793,0.0,0.0,0.0,0.0,0.0,0.0,0.0,0.0,0.0,5.32674480867,-0.0129111794115,8.17738919124,0.0,0.0,0.0,0.0,0.0,0.0,0.0,0.0,0.0
27344000000,52,27344000000,imu_link,-0.00145987708333,-0.366449042733,-0.000359652327093,0.930436907312,0.0,0.0,0.0,0.0,0.0,0.0,0.0,0.0,0.0,0.00361665541327,-0.0109133105666,-0.0017745262795,0.0,0.0,0.0,0.0,0.0,0.0,0.0,0.0,0.0,5.33362845621,-0.012743349201,8.17767964663,0.0,0.0,0.0,0.0,0.0,0.0,0.0,0.0,0.0
27348000000,53,27348000000,imu_link,-0.00145136312688,-0.366467538023,-0.000360086460696,0.930429635952,0.0,0.0,0.0,0.0,0.0,0.0,0.0,0.0,0.0,0.00387932402591,-0.00993479339778,-0.00177674056469,0.0,0.0,0.0,0.0,0.0,0.0,0.0,0.0,0.0,5.3421316867,-0.0126148925895,8.18602664834,0.0,0.0,0.0,0.0,0.0,0.0,0.0,0.0,0.0
27352000000,54,27352000000,imu_link,-0.00144233838173,-0.366485183731,-0.000360280799905,0.930422699617,0.0,0.0,0.0,0.0,0.0,0.0,0.0,0.0,0.0,0.00416097908676,-0.00947824998366,-0.00175810155371,0.0,0.0,0.0,0.0,0.0,0.0,0.0,0.0,0.0,5.34887000736,-0.0126060690539,8.18807146902,0.0,0.0,0.0,0.0,0.0,0.0,0.0,0.0,0.0
27356000000,55,27356000000,imu_link,-0.0014328461311,-0.366502459041,-0.000360225797337,0.93041590953,0.0,0.0,0.0,0.0,0.0,0.0,0.0,0.0,0.0,0.00442419672259,-0.00927923298555,-0.00172747838014,0.0,0.0,0.0,0.0,0.0,0.0,0.0,0.0,0.0,5.35524400367,-0.0126942720898,8.18601379801,0.0,0.0,0.0,0.0,0.0,0.0,0.0,0.0,0.0
27360000000,56,27360000000,imu_link,-0.00142285067732,-0.366519302941,-0.000359902083108,0.930409289795,0.0,0.0,0.0,0.0,0.0,0.0,0.0,0.0,0.0,0.00470757691288,-0.00904742274417,-0.00169434441835,0.0,0.0,0.0,0.0,0.0,0.0,0.0,0.0,0.0,5.36071119264,-0.0128899576563,8.17784157383,0.0,0.0,0.0,0.0,0.0,0.0,0.0,0.0,0.0
27364000000,57,27364000000,imu_link,-0.0014124559393,-0.366535299817,-0.000359321699465,0.930403003996,0.0,0.0,0.0,0.0,0.0,0.0,0.0,0.0,0.0,0.00494044809183,-0.00859229646217,-0.00164745061921,0.0,0.0,0.0,0.0,0.0,0.0,0.0,0.0,0.0,5.36682077952,-0.0129932243292,8.16984663985,0.0,0.0,0.0,0.0,0.0,0.0,0.0,0.0,0.0
27368000000,58,27368000000,imu_link,-0.00140180994641,-0.366549742682,-0.00035852270615,0.930397330461,0.0,0.0,0.0,0.0,0.0,0.0,0.0,0.0,0.0,0.00509754952097,-0.00775726975606,-0.00159059247639,0.0,0.0,0.0,0.0,0.0,0.0,0.0,0.0,0.0,5.37319824596,-0.0130672701181,8.16108860498,0.0,0.0,0.0,0.0,0.0,0.0,0.0,0.0,0.0
27372000000,59,27372000000,imu_link,-0.00139099522323,-0.366561822457,-0.000357539541537,0.930392587898,0.0,0.0,0.0,0.0,0.0,0.0,0.0,0.0,0.0,0.00521002550398,-0.0064874383029,-0.00153401706513,0.0,0.0,0.0,0.0,0.0,0.0,0.0,0.0,0.0,5.3792276711,-0.0131519791891,8.15073456161,0.0,0.0,0.0,0.0,0.0,0.0,0.0,0.0,0.0
27376000000,60,27376000000,imu_link,-0.00137981378903,-0.36657099341,-0.000356348528212,0.930388991723,0.0,0.0,0.0,0.0,0.0,0.0,0.0,0.0,0.0,0.00541899012063,-0.00492423281989,-0.00150230972891,0.0,0.0,0.0,0.0,0.0,0.0,0.0,0.0,0.0,5.38506372455,-0.0132894973679,8.14161837745,0.0,0.0,0.0,0.0,0.0,0.0,0.0,0.0,0.0
27380000000,61,27380000000,imu_link,-0.00136812689011,-0.366577069321,-0.000354944622411,0.930386615602,0.0,0.0,0.0,0.0,0.0,0.0,0.0,0.0,0.0,0.00569343988914,-0.0032608753374,-0.00149356499752,0.0,0.0,0.0,0.0,0.0,0.0,0.0,0.0,0.0,5.39132446002,-0.0134027335525,8.13584559969,0.0,0.0,0.0,0.0,0.0,0.0,0.0,0.0,0.0
27384000000,62,27384000000,imu_link,-0.00135577882201,-0.366580298576,-0.000353298532006,0.930385361955,0.0,0.0,0.0,0.0,0.0,0.0,0.0,0.0,0.0,0.00604566367644,-0.00173094150597,-0.00149994057243,0.0,0.0,0.0,0.0,0.0,0.0,0.0,0.0,0.0,5.39774925737,-0.0134225341932,8.13379737678,0.0,0.0,0.0,0.0,0.0,0.0,0.0,0.0,0.0
27388000000,63,27388000000,imu_link,-0.00134296261798,-0.366581413171,-0.000351472747233,0.930384942073,0.0,0.0,0.0,0.0,0.0,0.0,0.0,0.0,0.0,0.00629656493295,-0.000594435398192,-0.00150057197961,0.0,0.0,0.0,0.0,0.0,0.0,0.0,0.0,0.0,5.40562162326,-0.0133168657326,8.13892053029,0.0,0.0,0.0,0.0,0.0,0.0,0.0,0.0,0.0
27392000000,64,27392000000,imu_link,-0.00133008307396,-0.366581051443,-0.000349598862848,0.930385103805,0.0,0.0,0.0,0.0,0.0,0.0,0.0,0.0,0.0,0.00633497753286,0.000198922631159,-0.00148871249977,0.0,0.0,0.0,0.0,0.0,0.0,0.0,0.0,0.0,5.41192412488,-0.0132063542599,8.13879549835,0.0,0.0,0.0,0.0,0.0,0.0,0.0,0.0,0.0
27396000000,65,27396000000,imu_link,-0.00131765002465,-0.366579697088,-0.000347792299356,0.930385655802,0.0,0.0,0.0,0.0,0.0,0.0,0.0,0.0,0.0,0.0061150182706,0.000732183120335,-0.0014374630736,0.0,0.0,0.0,0.0,0.0,0.0,0.0,0.0,0.0,5.41850864784,-0.0131508193767,8.13810137042,0.0,0.0,0.0,0.0,0.0,0.0,0.0,0.0,0.0
27400000000,66,27400000000,imu_link,-0.00130596511318,-0.366577535158,-0.000346103847978,0.930386524722,0.0,0.0,0.0,0.0,0.0,0.0,0.0,0.0,0.0,0.00574540952133,0.00116589824061,-0.00135469474584,0.0,0.0,0.0,0.0,0.0,0.0,0.0,0.0,0.0,5.42444982377,-0.0132991335561,8.13359245897,0.0,0.0,0.0,0.0,0.0,0.0,0.0,0.0,0.0
27404000000,67,27404000000,imu_link,-0.0012951675193,-0.366574581807,-0.000344507424945,0.93038770404,0.0,0.0,0.0,0.0,0.0,0.0,0.0,0.0,0.0,0.00531583332397,0.00159086101616,-0.00123429986605,0.0,0.0,0.0,0.0,0.0,0.0,0.0,0.0,0.0,5.4306843741,-0.0135579559106,8.1291538977,0.0,0.0,0.0,0.0,0.0,0.0,0.0,0.0,0.0
27408000000,68,27408000000,imu_link,-0.00128536047522,-0.366570861307,-0.000342980907459,0.93038918408,0.0,0.0,0.0,0.0,0.0,0.0,0.0,0.0,0.0,0.00484228545144,0.00200272673808,-0.00108471571616,0.0,0.0,0.0,0.0,0.0,0.0,0.0,0.0,0.0,5.43679037956,-0.0139379206407,8.12475012073,0.0,0.0,0.0,0.0,0.0,0.0,0.0,0.0,0.0
27412000000,69,27412000000,imu_link,-0.00127656155896,-0.366566320385,-0.000341530791371,0.930390985826,0.0,0.0,0.0,0.0,0.0,0.0,0.0,0.0,0.0,0.00435937263045,0.00244322308946,-0.000934899649508,0.0,0.0,0.0,0.0,0.0,0.0,0.0,0.0,0.0,5.44194903307,-0.0142643123921,8.11741597395,0.0,0.0,0.0,0.0,0.0,0.0,0.0,0.0,0.0
27416000000,70,27416000000,imu_link,-0.00126870338305,-0.366560776076,-0.000340176072053,0.930393181464,0.0,0.0,0.0,0.0,0.0,0.0,0.0,0.0,0.0,0.00390433991266,0.00298208826202,-0.000806148228982,0.0,0.0,0.0,0.0,0.0,0.0,0.0,0.0,0.0,5.44754782257,-0.0145584210644,8.11048023002,0.0,0.0,0.0,0.0,0.0,0.0,0.0,0.0,0.0
27420000000,71,27420000000,imu_link,-0.00126140027565,-0.366553793097,-0.000338864080153,0.93039594303,0.0,0.0,0.0,0.0,0.0,0.0,0.0,0.0,0.0,0.00363840712997,0.00375500882834,-0.000723282824453,0.0,0.0,0.0,0.0,0.0,0.0,0.0,0.0,0.0,5.45394062473,-0.0148793144988,8.10428176443,0.0,0.0,0.0,0.0,0.0,0.0,0.0,0.0,0.0
27424000000,72,27424000000,imu_link,-0.00125426994267,-0.366545096584,-0.000337521802836,0.930399379329,0.0,0.0,0.0,0.0,0.0,0.0,0.0,0.0,0.0,0.00356371866987,0.00467575628589,-0.000676333505219,0.0,0.0,0.0,0.0,0.0,0.0,0.0,0.0,0.0,5.46031436431,-0.0151307108754,8.0990961474,0.0,0.0,0.0,0.0,0.0,0.0,0.0,0.0,0.0
27428000000,73,27428000000,imu_link,-0.00124676176662,-0.366534626722,-0.000336050261271,0.930403514648,0.0,0.0,0.0,0.0,0.0,0.0,0.0,0.0,0.0,0.00376332083668,0.00562881075954,-0.000684217980621,0.0,0.0,0.0,0.0,0.0,0.0,0.0,0.0,0.0,5.46691337361,-0.0153399978441,8.09599612991,0.0,0.0,0.0,0.0,0.0,0.0,0.0,0.0,0.0
27432000000,74,27432000000,imu_link,-0.0012385117495,-0.36652261815,-0.000334355585071,0.930408256992,0.0,0.0,0.0,0.0,0.0,0.0,0.0,0.0,0.0,0.0041494397644,0.00645585537859,-0.000715309380127,0.0,0.0,0.0,0.0,0.0,0.0,0.0,0.0,0.0,5.47245611415,-0.0153915260459,8.09212469267,0.0,0.0,0.0,0.0,0.0,0.0,0.0,0.0,0.0
27436000000,75,27436000000,imu_link,-0.00122921713581,-0.366509517858,-0.000332359064838,0.930413430622,0.0,0.0,0.0,0.0,0.0,0.0,0.0,0.0,0.0,0.00469079129548,0.00704275395757,-0.000765576267371,0.0,0.0,0.0,0.0,0.0,0.0,0.0,0.0,0.0,5.47859073208,-0.0153721747972,8.09125670372,0.0,0.0,0.0,0.0,0.0,0.0,0.0,0.0,0.0
27440000000,76,27440000000,imu_link,-0.00121880462087,-0.366495686878,-0.000330020036717,0.930418893349,0.0,0.0,0.0,0.0,0.0,0.0,0.0,0.0,0.0,0.00527366892424,0.00743562794124,-0.000810602895326,0.0,0.0,0.0,0.0,0.0,0.0,0.0,0.0,0.0,5.48426218614,-0.0152778750145,8.08854492946,0.0,0.0,0.0,0.0,0.0,0.0,0.0,0.0,0.0
27444000000,77,27444000000,imu_link,-0.00120750715289,-0.366481273194,-0.000327408873553,0.930424586481,0.0,0.0,0.0,0.0,0.0,0.0,0.0,0.0,0.0,0.00573526985233,0.00774890937214,-0.000845775716248,0.0,0.0,0.0,0.0,0.0,0.0,0.0,0.0,0.0,5.48968096408,-0.0151235079707,8.08346193193,0.0,0.0,0.0,0.0,0.0,0.0,0.0,0.0,0.0
27448000000,78,27448000000,imu_link,-0.00119566077427,-0.366466425409,-0.00032458363661,0.930430450968,0.0,0.0,0.0,0.0,0.0,0.0,0.0,0.0,0.0,0.00602988923601,0.00798221807058,-0.000846478555803,0.0,0.0,0.0,0.0,0.0,0.0,0.0,0.0,0.0,5.49562866065,-0.015042940238,8.07991187409,0.0,0.0,0.0,0.0,0.0,0.0,0.0,0.0,0.0
27452000000,79,27452000000,imu_link,-0.00118348663964,-0.366451584227,-0.000321574302357,0.930436312902,0.0,0.0,0.0,0.0,0.0,0.0,0.0,0.0,0.0,0.00621609861338,0.00797862133335,-0.000820893834995,0.0,0.0,0.0,0.0,0.0,0.0,0.0,0.0,0.0,5.50175960058,-0.015075002961,8.07897651863,0.0,0.0,0.0,0.0,0.0,0.0,0.0,0.0,0.0
27456000000,80,27456000000,imu_link,-0.00117097018535,-0.366437373959,-0.000318323112416,0.930441926434,0.0,0.0,0.0,0.0,0.0,0.0,0.0,0.0,0.0,0.00641962058369,0.00763950718307,-0.000771513245912,0.0,0.0,0.0,0.0,0.0,0.0,0.0,0.0,0.0,5.50835151071,-0.0151776311179,8.08052560952,0.0,0.0,0.0,0.0,0.0,0.0,0.0,0.0,0.0
27460000000,81,27460000000,imu_link,-0.00115796958689,-0.366423925705,-0.000314779191537,0.930447240144,0.0,0.0,0.0,0.0,0.0,0.0,0.0,0.0,0.0,0.00669843412205,0.00722997487424,-0.000724526804052,0.0,0.0,0.0,0.0,0.0,0.0,0.0,0.0,0.0,5.51416391025,-0.0152940756511,8.07660692916,0.0,0.0,0.0,0.0,0.0,0.0,0.0,0.0,0.0
27464000000,82,27464000000,imu_link,-0.00114448125723,-0.366410986133,-0.000310946171423,0.930452353813,0.0,0.0,0.0,0.0,0.0,0.0,0.0,0.0,0.0,0.0069782688775,0.006956583473,-0.000679715206389,0.0,0.0,0.0,0.0,0.0,0.0,0.0,0.0,0.0,5.51956543959,-0.0153521575434,8.06919301668,0.0,0.0,0.0,0.0,0.0,0.0,0.0,0.0,0.0
27468000000,83,27468000000,imu_link,-0.00113073133855,-0.366398308757,-0.000306872777428,0.930457364212,0.0,0.0,0.0,0.0,0.0,0.0,0.0,0.0,0.0,0.00714398642112,0.00681558653158,-0.000615977624819,0.0,0.0,0.0,0.0,0.0,0.0,0.0,0.0,0.0,5.52540406566,-0.0153838731879,8.06316541854,0.0,0.0,0.0,0.0,0.0,0.0,0.0,0.0,0.0
27472000000,84,27472000000,imu_link,-0.0011169887618,-0.366385760066,-0.000302610795195,0.93046232357,0.0,0.0,0.0,0.0,0.0,0.0,0.0,0.0,0.0,0.00717511083445,0.00674626013572,-0.000526976516155,0.0,0.0,0.0,0.0,0.0,0.0,0.0,0.0,0.0,5.53013315698,-0.0154261685986,8.05518026434,0.0,0.0,0.0,0.0,0.0,0.0,0.0,0.0,0.0
27476000000,85,27476000000,imu_link,-0.00110362088478,-0.366373312342,-0.000298197865533,0.930467242359,0.0,0.0,0.0,0.0,0.0,0.0,0.0,0.0,0.0,0.00702843395983,0.00669171439777,-0.000388171274538,0.0,0.0,0.0,0.0,0.0,0.0,0.0,0.0,0.0,5.53540448673,-0.0154978510351,8.04966032808,0.0,0.0,0.0,0.0,0.0,0.0,0.0,0.0,0.0
27480000000,86,27480000000,imu_link,-0.00109092229953,-0.366361021576,-0.000293639836203,0.930472098203,0.0,0.0,0.0,0.0,0.0,0.0,0.0,0.0,0.0,0.00674362591886,0.00660698169352,-0.000198156705048,0.0,0.0,0.0,0.0,0.0,0.0,0.0,0.0,0.0,5.54100098812,-0.0156502040786,8.04547641625,0.0,0.0,0.0,0.0,0.0,0.0,0.0,0.0,0.0
27484000000,87,27484000000,imu_link,-0.00107938059113,-0.366348760367,-0.000288976780309,0.930476940718,0.0,0.0,0.0,0.0,0.0,0.0,0.0,0.0,0.0,0.00622464099376,0.00659056143044,6.26046498069e-05,0.0,0.0,0.0,0.0,0.0,0.0,0.0,0.0,0.0,5.54691734453,-0.0158090917223,8.04110760132,0.0,0.0,0.0,0.0,0.0,0.0,0.0,0.0,0.0
27488000000,88,27488000000,imu_link,-0.00106951406945,-0.366336369754,-0.000284319142835,0.930481831901,0.0,0.0,0.0,0.0,0.0,0.0,0.0,0.0,0.0,0.00544429473497,0.00665944138473,0.00036701195454,0.0,0.0,0.0,0.0,0.0,0.0,0.0,0.0,0.0,5.5533299333,-0.0160088743193,8.03791169854,0.0,0.0,0.0,0.0,0.0,0.0,0.0,0.0,0.0
27492000000,89,27492000000,imu_link,-0.00106157596343,-0.366323458975,-0.000279752989439,0.930486925324,0.0,0.0,0.0,0.0,0.0,0.0,0.0,0.0,0.0,0.00453039409856,0.00693826261868,0.000677981126491,0.0,0.0,0.0,0.0,0.0,0.0,0.0,0.0,0.0,5.55828853724,-0.0163202865311,8.02919227087,0.0,0.0,0.0,0.0,0.0,0.0,0.0,0.0,0.0
27496000000,90,27496000000,imu_link,-0.00105553205428,-0.366309840006,-0.000275304340003,0.930492295065,0.0,0.0,0.0,0.0,0.0,0.0,0.0,0.0,0.0,0.00362765676648,0.00731815138511,0.000970672100596,0.0,0.0,0.0,0.0,0.0,0.0,0.0,0.0,0.0,5.56262665053,-0.0167277919804,8.02063622452,0.0,0.0,0.0,0.0,0.0,0.0,0.0,0.0,0.0
27500000000,91,27500000000,imu_link,-0.00105112555935,-0.366295822622,-0.000270934001096,0.930497819481,0.0,0.0,0.0,0.0,0.0,0.0,0.0,0.0,0.0,0.0028515399407,0.00753165803382,0.00123437045994,0.0,0.0,0.0,0.0,0.0,0.0,0.0,0.0,0.0,5.56874726356,-0.0172107473442,8.02064136811,0.0,0.0,0.0,0.0,0.0,0.0,0.0,0.0,0.0
27504000000,92,27504000000,imu_link,-0.0010480532701,-0.36628200895,-0.000266541929026,0.930503261928,0.0,0.0,0.0,0.0,0.0,0.0,0.0,0.0,0.0,0.00223476709989,0.00742167632276,0.00148872060752,0.0,0.0,0.0,0.0,0.0,0.0,0.0,0.0,0.0,5.57410170147,-0.0176147379601,8.02035891659,0.0,0.0,0.0,0.0,0.0,0.0,0.0,0.0,0.0
27508000000,93,27508000000,imu_link,-0.00104582730472,-0.366268880907,-0.000262003098751,0.930508433319,0.0,0.0,0.0,0.0,0.0,0.0,0.0,0.0,0.0,0.00186784031948,0.00705285513899,0.00171160129279,0.0,0.0,0.0,0.0,0.0,0.0,0.0,0.0,0.0,5.58070985792,-0.0179674540533,8.0223495305,0.0,0.0,0.0,0.0,0.0,0.0,0.0,0.0,0.0
27512000000,94,27512000000,imu_link,-0.00104387597281,-0.366256372886,-0.000257234975763,0.93051336018,0.0,0.0,0.0,0.0,0.0,0.0,0.0,0.0,0.0,0.00178201068879,0.00671944996325,0.00186821928925,0.0,0.0,0.0,0.0,0.0,0.0,0.0,0.0,0.0,5.58519455282,-0.0182345411929,8.0149537493,0.0,0.0,0.0,0.0,0.0,0.0,0.0,0.0,0.0
27516000000,95,27516000000,imu_link,-0.00104185188568,-0.366244231639,-0.000252217284172,0.930518142608,0.0,0.0,0.0,0.0,0.0,0.0,0.0,0.0,0.0,0.00186153537024,0.00652223513506,0.00197079920963,0.0,0.0,0.0,0.0,0.0,0.0,0.0,0.0,0.0,5.58934559663,-0.0183977191939,8.00576244674,0.0,0.0,0.0,0.0,0.0,0.0,0.0,0.0,0.0
27520000000,96,27520000000,imu_link,-0.0010395903648,-0.366232270801,-0.000246958960935,0.930522854146,0.0,0.0,0.0,0.0,0.0,0.0,0.0,0.0,0.0,0.00201605438163,0.00642522113222,0.00203917297301,0.0,0.0,0.0,0.0,0.0,0.0,0.0,0.0,0.0,5.59449068979,-0.018492759053,7.99998766395,0.0,0.0,0.0,0.0,0.0,0.0,0.0,0.0,0.0
27524000000,97,27524000000,imu_link,-0.00103704140271,-0.36622042546,-0.000241462822151,0.930527520397,0.0,0.0,0.0,0.0,0.0,0.0,0.0,0.0,0.0,0.00219332826988,0.0063631038819,0.00209711862528,0.0,0.0,0.0,0.0,0.0,0.0,0.0,0.0,0.0,5.59915983413,-0.0185373011545,7.99388684241,0.0,0.0,0.0,0.0,0.0,0.0,0.0,0.0,0.0
27528000000,98,27528000000,imu_link,-0.00103386838312,-0.366208874318,-0.000235711531072,0.930532071412,0.0,0.0,0.0,0.0,0.0,0.0,0.0,0.0,0.0,0.00253037637005,0.00620506607643,0.00210139397751,0.0,0.0,0.0,0.0,0.0,0.0,0.0,0.0,0.0,5.60555268891,-0.0186462489966,7.99411829633,0.0,0.0,0.0,0.0,0.0,0.0,0.0,0.0,0.0
27532000000,99,27532000000,imu_link,-0.00102967657176,-0.366197835603,-0.000229682524343,0.930536421755,0.0,0.0,0.0,0.0,0.0,0.0,0.0,0.0,0.0,0.00305519320402,0.0059298836465,0.00204377180207,0.0,0.0,0.0,0.0,0.0,0.0,0.0,0.0,0.0,5.61016135219,-0.018695833281,7.98963750877,0.0,0.0,0.0,0.0,0.0,0.0,0.0,0.0,0.0
27536000000,100,27536000000,imu_link,-0.00102447675744,-0.366187557737,-0.000223407787338,0.930540473647,0.0,0.0,0.0,0.0,0.0,0.0,0.0,0.0,0.0,0.00356911160553,0.00552122796089,0.00197311204949,0.0,0.0,0.0,0.0,0.0,0.0,0.0,0.0,0.0,5.61576041095,-0.0186157853699,7.98783677489,0.0,0.0,0.0,0.0,0.0,0.0,0.0,0.0,0.0
27540000000,101,27540000000,imu_link,-0.0010186101413,-0.366178061738,-0.000216978334623,0.930544218431,0.0,0.0,0.0,0.0,0.0,0.0,0.0,0.0,0.0,0.00390761215734,0.00510121425277,0.00192257459091,0.0,0.0,0.0,0.0,0.0,0.0,0.0,0.0,0.0,5.6201676449,-0.0184936844403,7.98138351129,0.0,0.0,0.0,0.0,0.0,0.0,0.0,0.0,0.0
27544000000,102,27544000000,imu_link,-0.00101264026645,-0.366169068981,-0.000210516088047,0.930547765117,0.0,0.0,0.0,0.0,0.0,0.0,0.0,0.0,0.0,0.00396161345589,0.00483079461149,0.00191864932737,0.0,0.0,0.0,0.0,0.0,0.0,0.0,0.0,0.0,5.62541362552,-0.0184164752835,7.9756905801,0.0,0.0,0.0,0.0,0.0,0.0,0.0,0.0,0.0
27548000000,103,27548000000,imu_link,-0.00100729891635,-0.366160169838,-0.000204165336693,0.930551274079,0.0,0.0,0.0,0.0,0.0,0.0,0.0,0.0,0.0,0.00364875500552,0.00478032263886,0.00198179530609,0.0,0.0,0.0,0.0,0.0,0.0,0.0,0.0,0.0,5.63116215259,-0.0183937455541,7.97097298497,0.0,0.0,0.0,0.0,0.0,0.0,0.0,0.0,0.0
27552000000,104,27552000000,imu_link,-0.00100317521048,-0.366150957738,-0.000197983452144,0.930554904662,0.0,0.0,0.0,0.0,0.0,0.0,0.0,0.0,0.0,0.00305132796713,0.0049481605366,0.00212632214031,0.0,0.0,0.0,0.0,0.0,0.0,0.0,0.0,0.0,5.63611782675,-0.0184820918657,7.96431623074,0.0,0.0,0.0,0.0,0.0,0.0,0.0,0.0,0.0
27556000000,105,27556000000,imu_link,-0.00100058112065,-0.366141120764,-0.000191961783254,0.930558779268,0.0,0.0,0.0,0.0,0.0,0.0,0.0,0.0,0.0,0.00231036109781,0.00528350372713,0.00233215018042,0.0,0.0,0.0,0.0,0.0,0.0,0.0,0.0,0.0,5.64053832249,-0.0186915858896,7.95706397127,0.0,0.0,0.0,0.0,0.0,0.0,0.0,0.0,0.0
27560000000,106,27560000000,imu_link,-0.000999370409262,-0.366130296786,-0.000186056323304,0.930563040539,0.0,0.0,0.0,0.0,0.0,0.0,0.0,0.0,0.0,0.00164552789874,0.00581344924532,0.00253186732306,0.0,0.0,0.0,0.0,0.0,0.0,0.0,0.0,0.0,5.64540481616,-0.019016862325,7.95063970248,0.0,0.0,0.0,0.0,0.0,0.0,0.0,0.0,0.0
27564000000,107,27564000000,imu_link,-0.000998992570032,-0.366118368894,-0.000180192214587,0.930567735043,0.0,0.0,0.0,0.0,0.0,0.0,0.0,0.0,0.0,0.00125055168804,0.00640633235297,0.00266568913653,0.0,0.0,0.0,0.0,0.0,0.0,0.0,0.0,0.0,5.64967371321,-0.0193838033428,7.94465074961,0.0,0.0,0.0,0.0,0.0,0.0,0.0,0.0,0.0
27568000000,108,27568000000,imu_link,-0.000998419013492,-0.366105369891,-0.000174202213559,0.930572850963,0.0,0.0,0.0,0.0,0.0,0.0,0.0,0.0,0.0,0.0013647755323,0.0069818024685,0.00268900993073,0.0,0.0,0.0,0.0,0.0,0.0,0.0,0.0,0.0,5.65643115788,-0.0197406741517,7.94633863151,0.0,0.0,0.0,0.0,0.0,0.0,0.0,0.0,0.0
27572000000,109,27572000000,imu_link,-0.000996981762762,-0.366091612955,-0.00016793989914,0.930578265783,0.0,0.0,0.0,0.0,0.0,0.0,0.0,0.0,0.0,0.0018165716081,0.00738911159886,0.00265801651663,0.0,0.0,0.0,0.0,0.0,0.0,0.0,0.0,0.0,5.66110576897,-0.0198842727776,7.94441669615,0.0,0.0,0.0,0.0,0.0,0.0,0.0,0.0,0.0
27576000000,110,27576000000,imu_link,-0.00099445159355,-0.366077563272,-0.000161352892532,0.93058379671,0.0,0.0,0.0,0.0,0.0,0.0,0.0,0.0,0.0,0.00238456154175,0.00754650672101,0.00260919379967,0.0,0.0,0.0,0.0,0.0,0.0,0.0,0.0,0.0,5.66573299849,-0.0198738084198,7.94315877518,0.0,0.0,0.0,0.0,0.0,0.0,0.0,0.0,0.0
27580000000,111,27580000000,imu_link,-0.000990920075236,-0.366063819762,-0.000154486815605,0.930589208014,0.0,0.0,0.0,0.0,0.0,0.0,0.0,0.0,0.0,0.00290152707834,0.00738209361157,0.00255559535129,0.0,0.0,0.0,0.0,0.0,0.0,0.0,0.0,0.0,5.67107105888,-0.0197777423511,7.94431311482,0.0,0.0,0.0,0.0,0.0,0.0,0.0,0.0,0.0
27584000000,112,27584000000,imu_link,-0.000986576048114,-0.366050908871,-0.000147448232256,0.930594292397,0.0,0.0,0.0,0.0,0.0,0.0,0.0,0.0,0.0,0.00331105956073,0.00693482029626,0.0024867088375,0.0,0.0,0.0,0.0,0.0,0.0,0.0,0.0,0.0,5.67510589504,-0.0196882222211,7.94133735095,0.0,0.0,0.0,0.0,0.0,0.0,0.0,0.0,0.0
27588000000,113,27588000000,imu_link,-0.000981566117947,-0.366039331488,-0.000140348025071,0.930598852693,0.0,0.0,0.0,0.0,0.0,0.0,0.0,0.0,0.0,0.0036320208634,0.00621844026606,0.00239280858332,0.0,0.0,0.0,0.0,0.0,0.0,0.0,0.0,0.0,5.68008867926,-0.0196516777686,7.94070445117,0.0,0.0,0.0,0.0,0.0,0.0,0.0,0.0,0.0
27592000000,114,27592000000,imu_link,-0.000976012672816,-0.366029311923,-0.00013325332104,0.930602800585,0.0,0.0,0.0,0.0,0.0,0.0,0.0,0.0,0.0,0.00388371963968,0.0053815477632,0.00228996651682,0.0,0.0,0.0,0.0,0.0,0.0,0.0,0.0,0.0,5.68332834511,-0.0196617458312,7.93392774837,0.0,0.0,0.0,0.0,0.0,0.0,0.0,0.0,0.0
27596000000,115,27596000000,imu_link,-0.000970120051016,-0.366020740542,-0.000126213162556,0.93060617902,0.0,0.0,0.0,0.0,0.0,0.0,0.0,0.0,0.0,0.00403137497332,0.0046035355574,0.00220176743179,0.0,0.0,0.0,0.0,0.0,0.0,0.0,0.0,0.0,5.68667488445,-0.0196426988503,7.9252034823,0.0,0.0,0.0,0.0,0.0,0.0,0.0,0.0,0.0
27600000000,116,27600000000,imu_link,-0.000964079797037,-0.366013325433,-0.000119223150515,0.930609102653,0.0,0.0,0.0,0.0,0.0,0.0,0.0,0.0,0.0,0.00409074372547,0.0039823189021,0.00215082635463,0.0,0.0,0.0,0.0,0.0,0.0,0.0,0.0,0.0,5.69026113155,-0.0196452729533,7.9161209402,0.0,0.0,0.0,0.0,0.0,0.0,0.0,0.0,0.0
27604000000,117,27604000000,imu_link,-0.000957984739643,-0.366006848183,-0.000112251325262,0.930611657324,0.0,0.0,0.0,0.0,0.0,0.0,0.0,0.0,0.0,0.00411279375336,0.00347841822481,0.0021318604891,0.0,0.0,0.0,0.0,0.0,0.0,0.0,0.0,0.0,5.694495414,-0.0196945028056,7.90946959006,0.0,0.0,0.0,0.0,0.0,0.0,0.0,0.0,0.0
27608000000,118,27608000000,imu_link,-0.000951965230752,-0.366001034661,-0.000105296722917,0.930613950734,0.0,0.0,0.0,0.0,0.0,0.0,0.0,0.0,0.0,0.00407440085346,0.0031217741454,0.00213733962091,0.0,0.0,0.0,0.0,0.0,0.0,0.0,0.0,0.0,5.69850901797,-0.0197492756804,7.90220111644,0.0,0.0,0.0,0.0,0.0,0.0,0.0,0.0,0.0
27612000000,119,27612000000,imu_link,-0.000946080271325,-0.365995701169,-9.83670875542e-05,0.930616055085,0.0,0.0,0.0,0.0,0.0,0.0,0.0,0.0,0.0,0.00400716036229,0.00286381981282,0.00215010649159,0.0,0.0,0.0,0.0,0.0,0.0,0.0,0.0,0.0,5.70185506349,-0.0198534940763,7.89382321504,0.0,0.0,0.0,0.0,0.0,0.0,0.0,0.0,0.0
27616000000,120,27616000000,imu_link,-0.000940439030638,-0.365990569172,-9.14904530633e-05,0.930618079816,0.0,0.0,0.0,0.0,0.0,0.0,0.0,0.0,0.0,0.00388402927746,0.0027555053919,0.00216994553495,0.0,0.0,0.0,0.0,0.0,0.0,0.0,0.0,0.0,5.70561024935,-0.0199393192957,7.88603684125,0.0,0.0,0.0,0.0,0.0,0.0,0.0,0.0,0.0
27620000000,121,27620000000,imu_link,-0.000935192615752,-0.365985472918,-8.47134106423e-05,0.930620089968,0.0,0.0,0.0,0.0,0.0,0.0,0.0,0.0,0.0,0.00368208316334,0.00273623458993,0.00219583823027,0.0,0.0,0.0,0.0,0.0,0.0,0.0,0.0,0.0,5.70966737744,-0.0200533776568,7.87997235678,0.0,0.0,0.0,0.0,0.0,0.0,0.0,0.0,0.0
27624000000,122,27624000000,imu_link,-0.000930717640227,-0.365980561909,-7.81527305477e-05,0.930622026368,0.0,0.0,0.0,0.0,0.0,0.0,0.0,0.0,0.0,0.0032835053063,0.00263661091673,0.00223624072233,0.0,0.0,0.0,0.0,0.0,0.0,0.0,0.0,0.0,5.71417591231,-0.0201253408751,7.87723020003,0.0,0.0,0.0,0.0,0.0,0.0,0.0,0.0,0.0
27628000000,123,27628000000,imu_link,-0.000927248728487,-0.365976110246,-7.18739276442e-05,0.930623781006,0.0,0.0,0.0,0.0,0.0,0.0,0.0,0.0,0.0,0.00276372532501,0.00238970339625,0.00228895919266,0.0,0.0,0.0,0.0,0.0,0.0,0.0,0.0,0.0,5.7178468396,-0.020254567443,7.87322683033,0.0,0.0,0.0,0.0,0.0,0.0,0.0,0.0,0.0
27632000000,124,27632000000,imu_link,-0.000924817182374,-0.365972318572,-6.58623330192e-05,0.930625274971,0.0,0.0,0.0,0.0,0.0,0.0,0.0,0.0,0.0,0.00223203370435,0.00203498852708,0.00235413416645,0.0,0.0,0.0,0.0,0.0,0.0,0.0,0.0,0.0,5.72128610111,-0.0204733929115,7.86824500841,0.0,0.0,0.0,0.0,0.0,0.0,0.0,0.0,0.0
27636000000,125,27636000000,imu_link,-0.000923269077675,-0.365969447272,-6.00593721735e-05,0.930626406046,0.0,0.0,0.0,0.0,0.0,0.0,0.0,0.0,0.0,0.0017826426623,0.00154039113274,0.00241827424484,0.0,0.0,0.0,0.0,0.0,0.0,0.0,0.0,0.0,5.72525138854,-0.0207687071406,7.86505694588,0.0,0.0,0.0,0.0,0.0,0.0,0.0,0.0,0.0
27640000000,126,27640000000,imu_link,-0.000922408923798,-0.365967468872,-5.44348092796e-05,0.93062718525,0.0,0.0,0.0,0.0,0.0,0.0,0.0,0.0,0.0,0.00142975033892,0.00106058726265,0.00246072505329,0.0,0.0,0.0,0.0,0.0,0.0,0.0,0.0,0.0,5.72860264628,-0.0210237085036,7.85844834457,0.0,0.0,0.0,0.0,0.0,0.0,0.0,0.0,0.0
27644000000,127,27644000000,imu_link,-0.000922011558659,-0.365966201124,-4.89798501435e-05,0.930627684485,0.0,0.0,0.0,0.0,0.0,0.0,0.0,0.0,0.0,0.00118326393943,0.000678747604281,0.00246615355531,0.0,0.0,0.0,0.0,0.0,0.0,0.0,0.0,0.0,5.73306525034,-0.0212396761165,7.85373726064,0.0,0.0,0.0,0.0,0.0,0.0,0.0,0.0,0.0
27648000000,128,27648000000,imu_link,-0.000922094212951,-0.365965502847,-4.37319378554e-05,0.93062795926,0.0,0.0,0.0,0.0,0.0,0.0,0.0,0.0,0.0,0.00092192864713,0.00037277561004,0.00245737920826,0.0,0.0,0.0,0.0,0.0,0.0,0.0,0.0,0.0,5.7370564648,-0.0213588574345,7.84805181389,0.0,0.0,0.0,0.0,0.0,0.0,0.0,0.0,0.0
27652000000,129,27652000000,imu_link,-0.000922695714633,-0.365965470401,-3.87073299425e-05,0.930627971645,0.0,0.0,0.0,0.0,0.0,0.0,0.0,0.0,0.0,0.000639534440616,1.50341528028e-05,0.00244809996656,0.0,0.0,0.0,0.0,0.0,0.0,0.0,0.0,0.0,5.73959062934,-0.0214657746032,7.84044512388,0.0,0.0,0.0,0.0,0.0,0.0,0.0,0.0,0.0
27656000000,130,27656000000,imu_link,-0.000923681425338,-0.365966448454,-3.38528466649e-05,0.930627586241,0.0,0.0,0.0,0.0,0.0,0.0,0.0,0.0,0.0,0.000429462774414,-0.000527882933558,0.00243876832219,0.0,0.0,0.0,0.0,0.0,0.0,0.0,0.0,0.0,5.74305964971,-0.0216142199936,7.8368737978,0.0,0.0,0.0,0.0,0.0,0.0,0.0,0.0,0.0
27660000000,131,27660000000,imu_link,-0.000924696082267,-0.365968786723,-2.90763223346e-05,0.930626665874,0.0,0.0,0.0,0.0,0.0,0.0,0.0,0.0,0.0,0.000401504474009,-0.00125866368885,0.00240715236404,0.0,0.0,0.0,0.0,0.0,0.0,0.0,0.0,0.0,5.74748667405,-0.0217631590138,7.83572126317,0.0,0.0,0.0,0.0,0.0,0.0,0.0,0.0,0.0
27664000000,132,27664000000,imu_link,-0.000925304026944,-0.365972597844,-2.4282903211e-05,0.930625166676,0.0,0.0,0.0,0.0,0.0,0.0,0.0,0.0,0.0,0.000593598381579,-0.00204992009113,0.00233990235701,0.0,0.0,0.0,0.0,0.0,0.0,0.0,0.0,0.0,5.75265340371,-0.0218840613392,7.83501666553,0.0,0.0,0.0,0.0,0.0,0.0,0.0,0.0,0.0
27668000000,133,27668000000,imu_link,-0.000925534285526,-0.365977680149,-1.9468263225e-05,0.930623167904,0.0,0.0,0.0,0.0,0.0,0.0,0.0,0.0,0.0,0.000773007906797,-0.00273283885501,0.0022800711287,0.0,0.0,0.0,0.0,0.0,0.0,0.0,0.0,0.0,5.75671608148,-0.0218483755991,7.82922247668,0.0,0.0,0.0,0.0,0.0,0.0,0.0,0.0,0.0
27672000000,134,27672000000,imu_link,-0.000925538721153,-0.36598365935,-1.46199153804e-05,0.930620816581,0.0,0.0,0.0,0.0,0.0,0.0,0.0,0.0,0.0,0.000884099686903,-0.0032147009257,0.00225401421977,0.0,0.0,0.0,0.0,0.0,0.0,0.0,0.0,0.0,5.76001837335,-0.0217843347097,7.8206033185,0.0,0.0,0.0,0.0,0.0,0.0,0.0,0.0,0.0
27676000000,135,27676000000,imu_link,-0.000925334448738,-0.365990222992,-9.71782895434e-06,0.930618235549,0.0,0.0,0.0,0.0,0.0,0.0,0.0,0.0,0.0,0.000990945402826,-0.00352870582731,0.00224055533367,0.0,0.0,0.0,0.0,0.0,0.0,0.0,0.0,0.0,5.76292418535,-0.0217481179569,7.81152529465,0.0,0.0,0.0,0.0,0.0,0.0,0.0,0.0,0.0
27680000000,136,27680000000,imu_link,-0.000924764870502,-0.36599706153,-4.77635421165e-06,0.930615546688,0.0,0.0,0.0,0.0,0.0,0.0,0.0,0.0,0.0,0.00116808484812,-0.00367636603948,0.0021919061879,0.0,0.0,0.0,0.0,0.0,0.0,0.0,0.0,0.0,5.76640074957,-0.0217620773982,7.8041947689,0.0,0.0,0.0,0.0,0.0,0.0,0.0,0.0,0.0
27684000000,137,27684000000,imu_link,-0.000923583066023,-0.366004003724,1.7629943317e-07,0.930612817584,0.0,0.0,0.0,0.0,0.0,0.0,0.0,0.0,0.0,0.00145498584061,-0.00373196576066,0.0020850232905,0.0,0.0,0.0,0.0,0.0,0.0,0.0,0.0,0.0,5.77040861106,-0.0217881078466,7.79947592381,0.0,0.0,0.0,0.0,0.0,0.0,0.0,0.0,0.0
27688000000,138,27688000000,imu_link,-0.00092160019825,-0.366010876057,5.11590878449e-06,0.930610116662,0.0,0.0,0.0,0.0,0.0,0.0,0.0,0.0,0.0,0.00182535161361,-0.00369429627016,0.0019323897689,0.0,0.0,0.0,0.0,0.0,0.0,0.0,0.0,0.0,5.77437959414,-0.0217599394572,7.79493797346,0.0,0.0,0.0,0.0,0.0,0.0,0.0,0.0,0.0
27692000000,139,27692000000,imu_link,-0.000918791738953,-0.366017521911,1.00559927757e-05,0.930607505544,0.0,0.0,0.0,0.0,0.0,0.0,0.0,0.0,0.0,0.00220963234861,-0.00357248149387,0.00178162701523,0.0,0.0,0.0,0.0,0.0,0.0,0.0,0.0,0.0,5.77765947189,-0.021676431958,7.78879712277,0.0,0.0,0.0,0.0,0.0,0.0,0.0,0.0,0.0
27696000000,140,27696000000,imu_link,-0.000915448345365,-0.366023836237,1.49926815685e-05,0.930605025258,0.0,0.0,0.0,0.0,0.0,0.0,0.0,0.0,0.0,0.00245797970119,-0.00339427870679,0.00168230119894,0.0,0.0,0.0,0.0,0.0,0.0,0.0,0.0,0.0,5.78107900879,-0.0215541185571,7.78357800384,0.0,0.0,0.0,0.0,0.0,0.0,0.0,0.0,0.0
27700000000,141,27700000000,imu_link,-0.000911877983619,-0.366029825707,1.99402166482e-05,0.930602672881,0.0,0.0,0.0,0.0,0.0,0.0,0.0,0.0,0.0,0.00256563453774,-0.00321971962301,0.00164595786159,0.0,0.0,0.0,0.0,0.0,0.0,0.0,0.0,0.0,5.78568736624,-0.0214868182492,7.78216636554,0.0,0.0,0.0,0.0,0.0,0.0,0.0,0.0,0.0
27704000000,142,27704000000,imu_link,-0.00090834469429,-0.366035576559,2.48574851905e-05,0.930600414241,0.0,0.0,0.0,0.0,0.0,0.0,0.0,0.0,0.0,0.00254289058181,-0.00309152134831,0.00163876746689,0.0,0.0,0.0,0.0,0.0,0.0,0.0,0.0,0.0,5.78857325744,-0.0214752869736,7.77681681362,0.0,0.0,0.0,0.0,0.0,0.0,0.0,0.0,0.0
27708000000,143,27708000000,imu_link,-0.000905286682254,-0.366041286794,2.96220055009e-05,0.930598171039,0.0,0.0,0.0,0.0,0.0,0.0,0.0,0.0,0.0,0.00229379583183,-0.00306972118468,0.00165469613745,0.0,0.0,0.0,0.0,0.0,0.0,0.0,0.0,0.0,5.79280373116,-0.021452260687,7.77567361975,0.0,0.0,0.0,0.0,0.0,0.0,0.0,0.0,0.0
27712000000,144,27712000000,imu_link,-0.000903117039135,-0.366047173619,3.41362740158e-05,0.930595857448,0.0,0.0,0.0,0.0,0.0,0.0,0.0,0.0,0.0,0.00183460286619,-0.00316464444417,0.00170076516686,0.0,0.0,0.0,0.0,0.0,0.0,0.0,0.0,0.0,5.79570183526,-0.0214843278681,7.7713628518,0.0,0.0,0.0,0.0,0.0,0.0,0.0,0.0,0.0
27716000000,145,27716000000,imu_link,-0.000902105456495,-0.366053479876,3.83481974645e-05,0.930593377693,0.0,0.0,0.0,0.0,0.0,0.0,0.0,0.0,0.0,0.00124034125331,-0.00339006150753,0.00177185045404,0.0,0.0,0.0,0.0,0.0,0.0,0.0,0.0,0.0,5.79876787488,-0.0215908677313,7.76765526486,0.0,0.0,0.0,0.0,0.0,0.0,0.0,0.0,0.0
27720000000,146,27720000000,imu_link,-0.000902459132186,-0.36606038299,4.22220374099e-05,0.930590661779,0.0,0.0,0.0,0.0,0.0,0.0,0.0,0.0,0.0,0.000543094786972,-0.00371082123544,0.00186415541556,0.0,0.0,0.0,0.0,0.0,0.0,0.0,0.0,0.0,5.80203349494,-0.0217365158405,7.76396375159,0.0,0.0,0.0,0.0,0.0,0.0,0.0,0.0,0.0
27724000000,147,27724000000,imu_link,-0.000904314765771,-0.366068028189,4.5739184015e-05,0.930587652433,0.0,0.0,0.0,0.0,0.0,0.0,0.0,0.0,0.0,-0.000221192930185,-0.00410962489482,0.00197276265402,0.0,0.0,0.0,0.0,0.0,0.0,0.0,0.0,0.0,5.80508066063,-0.021947517423,7.75969548231,0.0,0.0,0.0,0.0,0.0,0.0,0.0,0.0,0.0
27728000000,148,27728000000,imu_link,-0.000907725350134,-0.366076597522,4.89092564118e-05,0.930584277961,0.0,0.0,0.0,0.0,0.0,0.0,0.0,0.0,0.0,-0.00100841454138,-0.004606256086,0.00209547054698,0.0,0.0,0.0,0.0,0.0,0.0,0.0,0.0,0.0,5.80923467477,-0.0222015241453,7.75817040143,0.0,0.0,0.0,0.0,0.0,0.0,0.0,0.0,0.0
27732000000,149,27732000000,imu_link,-0.000912381526069,-0.366086570504,5.18128280525e-05,0.930580349982,0.0,0.0,0.0,0.0,0.0,0.0,0.0,0.0,0.0,-0.00163704389599,-0.00536052449277,0.00219883727474,0.0,0.0,0.0,0.0,0.0,0.0,0.0,0.0,0.0,5.81318016264,-0.0225135360218,7.75813753735,0.0,0.0,0.0,0.0,0.0,0.0,0.0,0.0,0.0
27736000000,150,27736000000,imu_link,-0.00091783676665,-0.366098631252,5.45257778967e-05,0.930575599722,0.0,0.0,0.0,0.0,0.0,0.0,0.0,0.0,0.0,-0.00204416206791,-0.00648234721159,0.00225547512591,0.0,0.0,0.0,0.0,0.0,0.0,0.0,0.0,0.0,5.8176503893,-0.0227727604327,7.7606851898,0.0,0.0,0.0,0.0,0.0,0.0,0.0,0.0,0.0
27740000000,151,27740000000,imu_link,-0.000923622354249,-0.366112961773,5.71109219983e-05,0.930569955931,0.0,0.0,0.0,0.0,0.0,0.0,0.0,0.0,0.0,-0.0022217351976,-0.00770193718322,0.00225546118889,0.0,0.0,0.0,0.0,0.0,0.0,0.0,0.0,0.0,5.82199798498,-0.0229576866884,7.75949890895,0.0,0.0,0.0,0.0,0.0,0.0,0.0,0.0,0.0
27744000000,152,27744000000,imu_link,-0.00092953661952,-0.366129456967,5.95948114042e-05,0.930563460035,0.0,0.0,0.0,0.0,0.0,0.0,0.0,0.0,0.0,-0.00230059763861,-0.00886506003719,0.00223092884386,0.0,0.0,0.0,0.0,0.0,0.0,0.0,0.0,0.0,5.82517299548,-0.0230191151011,7.7533766724,0.0,0.0,0.0,0.0,0.0,0.0,0.0,0.0,0.0
27748000000,153,27748000000,imu_link,-0.000935597471836,-0.3661476711,6.19740296199e-05,0.930556287263,0.0,0.0,0.0,0.0,0.0,0.0,0.0,0.0,0.0,-0.00238832932536,-0.00978871015954,0.00220828342947,0.0,0.0,0.0,0.0,0.0,0.0,0.0,0.0,0.0,5.82896621399,-0.0230314949532,7.74635230607,0.0,0.0,0.0,0.0,0.0,0.0,0.0,0.0,0.0
27752000000,154,27752000000,imu_link,-0.000942077345622,-0.366166864646,6.42210052678e-05,0.930548728225,0.0,0.0,0.0,0.0,0.0,0.0,0.0,0.0,0.0,-0.00260771205567,-0.0103150498689,0.00222301952217,0.0,0.0,0.0,0.0,0.0,0.0,0.0,0.0,0.0,5.83289677039,-0.0229729864669,7.73796476715,0.0,0.0,0.0,0.0,0.0,0.0,0.0,0.0,0.0
27756000000,155,27756000000,imu_link,-0.000949387409505,-0.36618628629,6.63108010552e-05,0.930541078083,0.0,0.0,0.0,0.0,0.0,0.0,0.0,0.0,0.0,-0.00302280549148,-0.0104377568808,0.00230177729745,0.0,0.0,0.0,0.0,0.0,0.0,0.0,0.0,0.0,5.8372353647,-0.0229213838628,7.73104005468,0.0,0.0,0.0,0.0,0.0,0.0,0.0,0.0,0.0
27760000000,156,27760000000,imu_link,-0.000957712223731,-0.366205561725,6.82453303652e-05,0.930533483917,0.0,0.0,0.0,0.0,0.0,0.0,0.0,0.0,0.0,-0.00352333573894,-0.0103593741795,0.00241539775806,0.0,0.0,0.0,0.0,0.0,0.0,0.0,0.0,0.0,5.84094528454,-0.0229554912187,7.72579988552,0.0,0.0,0.0,0.0,0.0,0.0,0.0,0.0,0.0
27764000000,157,27764000000,imu_link,-0.000966869269115,-0.366224588384,7.00422952821e-05,0.930525986269,0.0,0.0,0.0,0.0,0.0,0.0,0.0,0.0,0.0,-0.00393567893437,-0.010225859776,0.00250389329519,0.0,0.0,0.0,0.0,0.0,0.0,0.0,0.0,0.0,5.84421383693,-0.0230639711902,7.72168427259,0.0,0.0,0.0,0.0,0.0,0.0,0.0,0.0,0.0
27768000000,158,27768000000,imu_link,-0.000976124071124,-0.366243544456,7.18005141374e-05,0.930518515759,0.0,0.0,0.0,0.0,0.0,0.0,0.0,0.0,0.0,-0.00398824076259,-0.0101880266681,0.00250379980014,0.0,0.0,0.0,0.0,0.0,0.0,0.0,0.0,0.0,5.84839169012,-0.0232191024829,7.72180717342,0.0,0.0,0.0,0.0,0.0,0.0,0.0,0.0,0.0
27772000000,159,27772000000,imu_link,-0.000984707992628,-0.366262613148,7.36044832634e-05,0.930511001086,0.0,0.0,0.0,0.0,0.0,0.0,0.0,0.0,0.0,-0.00366775512361,-0.0102485580482,0.00240217932985,0.0,0.0,0.0,0.0,0.0,0.0,0.0,0.0,0.0,5.85194178482,-0.0232972441566,7.72018978669,0.0,0.0,0.0,0.0,0.0,0.0,0.0,0.0,0.0
27776000000,160,27776000000,imu_link,-0.000992002199348,-0.366281738579,7.55073700013e-05,0.930503464912,0.0,0.0,0.0,0.0,0.0,0.0,0.0,0.0,0.0,-0.00304960598916,-0.0102789898451,0.0022119869951,0.0,0.0,0.0,0.0,0.0,0.0,0.0,0.0,0.0,5.85420315376,-0.023239609935,7.71371475496,0.0,0.0,0.0,0.0,0.0,0.0,0.0,0.0,0.0
27780000000,161,27780000000,imu_link,-0.000997699352683,-0.366300849059,7.75048966101e-05,0.930495935815,0.0,0.0,0.0,0.0,0.0,0.0,0.0,0.0,0.0,-0.0022892376319,-0.0102708453983,0.00196353976183,0.0,0.0,0.0,0.0,0.0,0.0,0.0,0.0,0.0,5.85694787644,-0.0230613790174,7.70870762274,0.0,0.0,0.0,0.0,0.0,0.0,0.0,0.0,0.0
27784000000,162,27784000000,imu_link,-0.00100182712331,-0.36631989189,7.95780768497e-05,0.930488434542,0.0,0.0,0.0,0.0,0.0,0.0,0.0,0.0,0.0,-0.00154521301736,-0.010234373797,0.00171133701871,0.0,0.0,0.0,0.0,0.0,0.0,0.0,0.0,0.0,5.85895145779,-0.0227975942321,7.70209064799,0.0,0.0,0.0,0.0,0.0,0.0,0.0,0.0,0.0
27788000000,163,27788000000,imu_link,-0.00100475479645,-0.366338956137,8.1676267224e-05,0.930480925658,0.0,0.0,0.0,0.0,0.0,0.0,0.0,0.0,0.0,-0.000982298412768,-0.0102457918155,0.00150315262425,0.0,0.0,0.0,0.0,0.0,0.0,0.0,0.0,0.0,5.86279375334,-0.0224952627747,7.7007896143,0.0,0.0,0.0,0.0,0.0,0.0,0.0,0.0,0.0
27792000000,164,27792000000,imu_link,-0.0010069778749,-0.366357988831,8.37689667837e-05,0.930473429496,0.0,0.0,0.0,0.0,0.0,0.0,0.0,0.0,0.0,-0.000655490526048,-0.0102288083434,0.00137155316611,0.0,0.0,0.0,0.0,0.0,0.0,0.0,0.0,0.0,5.86512121242,-0.0222391408193,7.69456830243,0.0,0.0,0.0,0.0,0.0,0.0,0.0,0.0,0.0
27796000000,165,27796000000,imu_link,-0.00100908614276,-0.36637671411,8.58033088639e-05,0.930466054051,0.0,0.0,0.0,0.0,0.0,0.0,0.0,0.0,0.0,-0.000612692627902,-0.0100636496303,0.00132352195813,0.0,0.0,0.0,0.0,0.0,0.0,0.0,0.0,0.0,5.86925020877,-0.0220168540018,7.69108055271,0.0,0.0,0.0,0.0,0.0,0.0,0.0,0.0,0.0
27800000000,166,27800000000,imu_link,-0.00101158885819,-0.36639483009,8.77184503768e-05,0.930458917673,0.0,0.0,0.0,0.0,0.0,0.0,0.0,0.0,0.0,-0.000817892066209,-0.00973631242309,0.00134062128257,0.0,0.0,0.0,0.0,0.0,0.0,0.0,0.0,0.0,5.87269146034,-0.0218722745391,7.68609109399,0.0,0.0,0.0,0.0,0.0,0.0,0.0,0.0,0.0
27804000000,167,27804000000,imu_link,-0.00101458887566,-0.366412261857,8.94941379486e-05,0.930452049792,0.0,0.0,0.0,0.0,0.0,0.0,0.0,0.0,0.0,-0.00107463340938,-0.00936871607176,0.00136718194271,0.0,0.0,0.0,0.0,0.0,0.0,0.0,0.0,0.0,5.87462157259,-0.0218603940975,7.67916601996,0.0,0.0,0.0,0.0,0.0,0.0,0.0,0.0,0.0
27808000000,168,27808000000,imu_link,-0.00101774587121,-0.36642913204,9.11805713596e-05,0.930445402521,0.0,0.0,0.0,0.0,0.0,0.0,0.0,0.0,0.0,-0.00116387856441,-0.00906698355226,0.00135469294763,0.0,0.0,0.0,0.0,0.0,0.0,0.0,0.0,0.0,5.87783235684,-0.0219539697534,7.67684233999,0.0,0.0,0.0,0.0,0.0,0.0,0.0,0.0,0.0
27812000000,169,27812000000,imu_link,-0.00102050419348,-0.36644557604,9.28369104132e-05,0.930438923172,0.0,0.0,0.0,0.0,0.0,0.0,0.0,0.0,0.0,-0.000983815550669,-0.00883795033477,0.00126785883611,0.0,0.0,0.0,0.0,0.0,0.0,0.0,0.0,0.0,5.88058656014,-0.0220325605922,7.67346117171,0.0,0.0,0.0,0.0,0.0,0.0,0.0,0.0,0.0
27816000000,170,27816000000,imu_link,-0.001022373969,-0.366461572984,9.45269092806e-05,0.930432620528,0.0,0.0,0.0,0.0,0.0,0.0,0.0,0.0,0.0,-0.000564168147021,-0.00859765296739,0.00112093593206,0.0,0.0,0.0,0.0,0.0,0.0,0.0,0.0,0.0,5.88348556948,-0.0220474806952,7.66921919358,0.0,0.0,0.0,0.0,0.0,0.0,0.0,0.0,0.0
27820000000,171,27820000000,imu_link,-0.00102325388835,-0.366476980738,9.62694766588e-05,0.930426550714,0.0,0.0,0.0,0.0,0.0,0.0,0.0,0.0,0.0,-9.3891876074e-05,-0.00828096437938,0.000964309718059,0.0,0.0,0.0,0.0,0.0,0.0,0.0,0.0,0.0,5.88617099934,-0.0219385302294,7.66364033876,0.0,0.0,0.0,0.0,0.0,0.0,0.0,0.0,0.0
27824000000,172,27824000000,imu_link,-0.00102330102924,-0.366491682129,9.80596073059e-05,0.930420759748,0.0,0.0,0.0,0.0,0.0,0.0,0.0,0.0,0.0,0.00030241980625,-0.00790132396183,0.000834187686462,0.0,0.0,0.0,0.0,0.0,0.0,0.0,0.0,0.0,5.88855948723,-0.0217960879618,7.65781337551,0.0,0.0,0.0,0.0,0.0,0.0,0.0,0.0,0.0
27828000000,173,27828000000,imu_link,-0.00102274862437,-0.366505490051,9.98939207236e-05,0.930415321117,0.0,0.0,0.0,0.0,0.0,0.0,0.0,0.0,0.0,0.000589655109953,-0.00742116069578,0.000745317570225,0.0,0.0,0.0,0.0,0.0,0.0,0.0,0.0,0.0,5.89246845119,-0.0216711554352,7.65539502795,0.0,0.0,0.0,0.0,0.0,0.0,0.0,0.0,0.0
27832000000,174,27832000000,imu_link,-0.00102161811622,-0.366518242768,0.000101795471992,0.930410298552,0.0,0.0,0.0,0.0,0.0,0.0,0.0,0.0,0.0,0.000871180168474,-0.00685408920082,0.000671176946284,0.0,0.0,0.0,0.0,0.0,0.0,0.0,0.0,0.0,5.89474618151,-0.0216105592603,7.64930560848,0.0,0.0,0.0,0.0,0.0,0.0,0.0,0.0,0.0
27836000000,175,27836000000,imu_link,-0.00101994716574,-0.366529953981,0.000103758175358,0.930405686664,0.0,0.0,0.0,0.0,0.0,0.0,0.0,0.0,0.0,0.00113406619666,-0.00629437484569,0.00060109533528,0.0,0.0,0.0,0.0,0.0,0.0,0.0,0.0,0.0,5.8963909206,-0.0215503506431,7.64298419516,0.0,0.0,0.0,0.0,0.0,0.0,0.0,0.0,0.0
27840000000,176,27840000000,imu_link,-0.00101790027436,-0.36654101758,0.000105746065226,0.930401330141,0.0,0.0,0.0,0.0,0.0,0.0,0.0,0.0,0.0,0.00131373459854,-0.00594633572907,0.000544232387036,0.0,0.0,0.0,0.0,0.0,0.0,0.0,0.0,0.0,5.89980699679,-0.021485431627,7.64332344437,0.0,0.0,0.0,0.0,0.0,0.0,0.0,0.0,0.0
27844000000,177,27844000000,imu_link,-0.00101586644426,-0.366551788186,0.000107695368811,0.930397088879,0.0,0.0,0.0,0.0,0.0,0.0,0.0,0.0,0.0,0.00130066090768,-0.00578889082214,0.000528818795053,0.0,0.0,0.0,0.0,0.0,0.0,0.0,0.0,0.0,5.90427417293,-0.0213654860174,7.64610168487,0.0,0.0,0.0,0.0,0.0,0.0,0.0,0.0,0.0
27848000000,178,27848000000,imu_link,-0.00101422217226,-0.366562405768,0.000109529639649,0.930392907343,0.0,0.0,0.0,0.0,0.0,0.0,0.0,0.0,0.0,0.0010983948961,-0.00570667881356,0.00054677684618,0.0,0.0,0.0,0.0,0.0,0.0,0.0,0.0,0.0,5.90828288306,-0.0212708303086,7.64615274564,0.0,0.0,0.0,0.0,0.0,0.0,0.0,0.0,0.0
27852000000,179,27852000000,imu_link,-0.00101301239586,-0.366572798483,0.000111253696944,0.930388813798,0.0,0.0,0.0,0.0,0.0,0.0,0.0,0.0,0.0,0.000876125950732,-0.0055858646035,0.000575249986004,0.0,0.0,0.0,0.0,0.0,0.0,0.0,0.0,0.0,5.9103439962,-0.0212992995261,7.63983625952,0.0,0.0,0.0,0.0,0.0,0.0,0.0,0.0,0.0
27856000000,180,27856000000,imu_link,-0.0010120199826,-0.366582871552,0.000112925425652,0.930384845829,0.0,0.0,0.0,0.0,0.0,0.0,0.0,0.0,0.0,0.000765500101222,-0.00541411179492,0.000590901645353,0.0,0.0,0.0,0.0,0.0,0.0,0.0,0.0,0.0,5.91338818799,-0.0213824176271,7.63565734574,0.0,0.0,0.0,0.0,0.0,0.0,0.0,0.0,0.0
27860000000,181,27860000000,imu_link,-0.0010110095924,-0.366592586504,0.000114631494563,0.930381018852,0.0,0.0,0.0,0.0,0.0,0.0,0.0,0.0,0.0,0.000780248662464,-0.00522169481219,0.000603754678821,0.0,0.0,0.0,0.0,0.0,0.0,0.0,0.0,0.0,5.91810769115,-0.0214420757419,7.63587449618,0.0,0.0,0.0,0.0,0.0,0.0,0.0,0.0,0.0
27864000000,182,27864000000,imu_link,-0.00100986708648,-0.366602022826,0.00011643377676,0.930377301675,0.0,0.0,0.0,0.0,0.0,0.0,0.0,0.0,0.0,0.000859414657753,-0.00507200846797,0.000624430419816,0.0,0.0,0.0,0.0,0.0,0.0,0.0,0.0,0.0,5.92067673595,-0.0214825300114,7.63190100604,0.0,0.0,0.0,0.0,0.0,0.0,0.0,0.0,0.0
27868000000,183,27868000000,imu_link,-0.00100848082935,-0.366611431726,0.000118393419887,0.930373595432,0.0,0.0,0.0,0.0,0.0,0.0,0.0,0.0,0.0,0.00100165648413,-0.00505734170713,0.000652966306969,0.0,0.0,0.0,0.0,0.0,0.0,0.0,0.0,0.0,5.92407653192,-0.0215535457476,7.63132751464,0.0,0.0,0.0,0.0,0.0,0.0,0.0,0.0,0.0
27872000000,184,27872000000,imu_link,-0.00100693082743,-0.366621231453,0.000120516437219,0.93036973522,0.0,0.0,0.0,0.0,0.0,0.0,0.0,0.0,0.0,0.00110767505694,-0.0052674650313,0.000698762515196,0.0,0.0,0.0,0.0,0.0,0.0,0.0,0.0,0.0,5.92645883091,-0.0215514348254,7.62963099356,0.0,0.0,0.0,0.0,0.0,0.0,0.0,0.0,0.0
27876000000,185,27876000000,imu_link,-0.00100556475347,-0.366631870591,0.000122762146495,0.930365543878,0.0,0.0,0.0,0.0,0.0,0.0,0.0,0.0,0.0,0.0010443879916,-0.00571869618059,0.00078915023913,0.0,0.0,0.0,0.0,0.0,0.0,0.0,0.0,0.0,5.92963700153,-0.0215088901477,7.63000939755,0.0,0.0,0.0,0.0,0.0,0.0,0.0,0.0,0.0
27880000000,186,27880000000,imu_link,-0.00100478416694,-0.366643658732,0.000125092172433,0.930360898938,0.0,0.0,0.0,0.0,0.0,0.0,0.0,0.0,0.0,0.000787187327888,-0.00633635151126,0.000935152215725,0.0,0.0,0.0,0.0,0.0,0.0,0.0,0.0,0.0,5.9335130971,-0.021509574078,7.63106718446,0.0,0.0,0.0,0.0,0.0,0.0,0.0,0.0,0.0
27884000000,187,27884000000,imu_link,-0.00100476836981,-0.366656844244,0.000127484109769,0.930355702276,0.0,0.0,0.0,0.0,0.0,0.0,0.0,0.0,0.0,0.000442407381967,-0.00708750645758,0.00110348725985,0.0,0.0,0.0,0.0,0.0,0.0,0.0,0.0,0.0,5.93640746576,-0.0216030564872,7.62895829493,0.0,0.0,0.0,0.0,0.0,0.0,0.0,0.0,0.0
27888000000,188,27888000000,imu_link,-0.00100560880028,-0.366671739552,0.000129892432779,0.930349830598,0.0,0.0,0.0,0.0,0.0,0.0,0.0,0.0,0.0,4.6665120728e-05,-0.00800656924157,0.00126726442074,0.0,0.0,0.0,0.0,0.0,0.0,0.0,0.0,0.0,5.939751931,-0.0217160250769,7.62827749575,0.0,0.0,0.0,0.0,0.0,0.0,0.0,0.0,0.0
27892000000,189,27892000000,imu_link,-0.00100751034097,-0.366688646125,0.000132227461409,0.930343164774,0.0,0.0,0.0,0.0,0.0,0.0,0.0,0.0,0.0,-0.000460904147068,-0.00908764894702,0.00142674958227,0.0,0.0,0.0,0.0,0.0,0.0,0.0,0.0,0.0,5.9428857798,-0.0217986943505,7.62716697985,0.0,0.0,0.0,0.0,0.0,0.0,0.0,0.0,0.0
27896000000,190,27896000000,imu_link,-0.00101054692869,-0.366707577423,0.000134434032157,0.930335699295,0.0,0.0,0.0,0.0,0.0,0.0,0.0,0.0,0.0,-0.00101298448898,-0.0101759654733,0.00157413195913,0.0,0.0,0.0,0.0,0.0,0.0,0.0,0.0,0.0,5.94481875327,-0.0219271556598,7.62117987464,0.0,0.0,0.0,0.0,0.0,0.0,0.0,0.0,0.0
27900000000,191,27900000000,imu_link,-0.00101463044902,-0.366728310032,0.000136492840907,0.930327522175,0.0,0.0,0.0,0.0,0.0,0.0,0.0,0.0,0.0,-0.0015275572495,-0.0111442149377,0.00169649456662,0.0,0.0,0.0,0.0,0.0,0.0,0.0,0.0,0.0,5.94820270303,-0.0220970722013,7.61719624311,0.0,0.0,0.0,0.0,0.0,0.0,0.0,0.0,0.0
27904000000,192,27904000000,imu_link,-0.001019401535,-0.366750370465,0.000138429911481,0.930318820309,0.0,0.0,0.0,0.0,0.0,0.0,0.0,0.0,0.0,-0.00187006712814,-0.011857981719,0.00176530346152,0.0,0.0,0.0,0.0,0.0,0.0,0.0,0.0,0.0,5.95164751377,-0.0222944777906,7.61186519809,0.0,0.0,0.0,0.0,0.0,0.0,0.0,0.0,0.0
27908000000,193,27908000000,imu_link,-0.0010243763844,-0.366773079841,0.000140313430297,0.93030986175,0.0,0.0,0.0,0.0,0.0,0.0,0.0,0.0,0.0,-0.00197484541603,-0.0122068730755,0.00177744551304,0.0,0.0,0.0,0.0,0.0,0.0,0.0,0.0,0.0,5.95524476291,-0.0224673811594,7.60545708137,0.0,0.0,0.0,0.0,0.0,0.0,0.0,0.0,0.0
27912000000,194,27912000000,imu_link,-0.00102915568924,-0.366795946559,0.0001421877464,0.930300840701,0.0,0.0,0.0,0.0,0.0,0.0,0.0,0.0,0.0,-0.00188561759528,-0.0122915301258,0.00173722837928,0.0,0.0,0.0,0.0,0.0,0.0,0.0,0.0,0.0,5.95742421511,-0.0225527135518,7.59695208352,0.0,0.0,0.0,0.0,0.0,0.0,0.0,0.0,0.0
27916000000,195,27916000000,imu_link,-0.00103367898594,-0.366818632735,0.000144043318721,0.93029189045,0.0,0.0,0.0,0.0,0.0,0.0,0.0,0.0,0.0,-0.00176992360587,-0.0121945752952,0.00168164619721,0.0,0.0,0.0,0.0,0.0,0.0,0.0,0.0,0.0,5.9587604468,-0.0225332759204,7.58787187023,0.0,0.0,0.0,0.0,0.0,0.0,0.0,0.0,0.0
27920000000,196,27920000000,imu_link,-0.00103826477333,-0.366841105789,0.000145833055523,0.930283023516,0.0,0.0,0.0,0.0,0.0,0.0,0.0,0.0,0.0,-0.00181100733738,-0.0120801228685,0.00166258859706,0.0,0.0,0.0,0.0,0.0,0.0,0.0,0.0,0.0,5.96104327036,-0.0224465151694,7.58344779565,0.0,0.0,0.0,0.0,0.0,0.0,0.0,0.0,0.0
27924000000,197,27924000000,imu_link,-0.00104334386476,-0.366863362465,0.000147514779226,0.930274240724,0.0,0.0,0.0,0.0,0.0,0.0,0.0,0.0,0.0,-0.00206021588569,-0.0119639513754,0.00170293551315,0.0,0.0,0.0,0.0,0.0,0.0,0.0,0.0,0.0,5.96334673466,-0.0223873015661,7.57954070253,0.0,0.0,0.0,0.0,0.0,0.0,0.0,0.0,0.0
27928000000,198,27928000000,imu_link,-0.00104918059354,-0.366885465051,0.000149080255695,0.930265517221,0.0,0.0,0.0,0.0,0.0,0.0,0.0,0.0,0.0,-0.00243390227172,-0.0118812862671,0.00178791531432,0.0,0.0,0.0,0.0,0.0,0.0,0.0,0.0,0.0,5.96622627921,-0.0224247800792,7.57742054305,0.0,0.0,0.0,0.0,0.0,0.0,0.0,0.0,0.0
27932000000,199,27932000000,imu_link,-0.00105570017674,-0.366907434248,0.000150554612317,0.930256844922,0.0,0.0,0.0,0.0,0.0,0.0,0.0,0.0,0.0,-0.00276819870323,-0.0118097510041,0.00187086332677,0.0,0.0,0.0,0.0,0.0,0.0,0.0,0.0,0.0,5.96772443265,-0.0225503179066,7.57137363365,0.0,0.0,0.0,0.0,0.0,0.0,0.0,0.0,0.0
27936000000,200,27936000000,imu_link,-0.00106288940501,-0.366929310341,0.000151939024352,0.93024820795,0.0,0.0,0.0,0.0,0.0,0.0,0.0,0.0,0.0,-0.00309614467113,-0.0117598668809,0.00195192290642,0.0,0.0,0.0,0.0,0.0,0.0,0.0,0.0,0.0,5.97007335717,-0.022616563881,7.56773374373,0.0,0.0,0.0,0.0,0.0,0.0,0.0,0.0,0.0
27940000000,201,27940000000,imu_link,-0.00107070172562,-0.366951056959,0.00015322046958,0.930239620699,0.0,0.0,0.0,0.0,0.0,0.0,0.0,0.0,0.0,-0.00340481444922,-0.0116904205253,0.00201841101666,0.0,0.0,0.0,0.0,0.0,0.0,0.0,0.0,0.0,5.97257251623,-0.0226437464112,7.56409477717,0.0,0.0,0.0,0.0,0.0,0.0,0.0,0.0,0.0
27944000000,202,27944000000,imu_link,-0.00107900868299,-0.366972518691,0.000154404710866,0.930231144622,0.0,0.0,0.0,0.0,0.0,0.0,0.0,0.0,0.0,-0.00365263300395,-0.0115374271288,0.00206409727294,0.0,0.0,0.0,0.0,0.0,0.0,0.0,0.0,0.0,5.97478039458,-0.0226905662169,7.55902031054,0.0,0.0,0.0,0.0,0.0,0.0,0.0,0.0,0.0
27948000000,203,27948000000,imu_link,-0.00108761260468,-0.366993490939,0.000155526574725,0.930222860673,0.0,0.0,0.0,0.0,0.0,0.0,0.0,0.0,0.0,-0.00380205969136,-0.0112744509367,0.0020898226793,0.0,0.0,0.0,0.0,0.0,0.0,0.0,0.0,0.0,5.97676479788,-0.0227196835283,7.55328604558,0.0,0.0,0.0,0.0,0.0,0.0,0.0,0.0,0.0
27952000000,204,27952000000,imu_link,-0.00109632413226,-0.367013978145,0.000156645240305,0.930214767343,0.0,0.0,0.0,0.0,0.0,0.0,0.0,0.0,0.0,-0.00385255391887,-0.0110138642134,0.00210832940046,0.0,0.0,0.0,0.0,0.0,0.0,0.0,0.0,0.0,5.97821487696,-0.0227142989066,7.54776386679,0.0,0.0,0.0,0.0,0.0,0.0,0.0,0.0,0.0
27956000000,205,27956000000,imu_link,-0.00110486757461,-0.36703412002,0.000157834140384,0.930206809853,0.0,0.0,0.0,0.0,0.0,0.0,0.0,0.0,0.0,-0.00376138620514,-0.0108283726695,0.00211032982731,0.0,0.0,0.0,0.0,0.0,0.0,0.0,0.0,0.0,5.98052436805,-0.0227308371806,7.54508528709,0.0,0.0,0.0,0.0,0.0,0.0,0.0,0.0,0.0
27960000000,206,27960000000,imu_link,-0.00111307609587,-0.367054318661,0.000159130121929,0.930198829762,0.0,0.0,0.0,0.0,0.0,0.0,0.0,0.0,0.0,-0.00358597895562,-0.0108590075452,0.00209864047236,0.0,0.0,0.0,0.0,0.0,0.0,0.0,0.0,0.0,5.98433434247,-0.0227344456803,7.54791694376,0.0,0.0,0.0,0.0,0.0,0.0,0.0,0.0,0.0
27964000000,207,27964000000,imu_link,-0.0011209123324,-0.367075008467,0.000160524840209,0.930190655697,0.0,0.0,0.0,0.0,0.0,0.0,0.0,0.0,0.0,-0.0033948557051,-0.0111231320818,0.00207598059259,0.0,0.0,0.0,0.0,0.0,0.0,0.0,0.0,0.0,5.98819648911,-0.0226860790024,7.55116748837,0.0,0.0,0.0,0.0,0.0,0.0,0.0,0.0,0.0
27968000000,208,27968000000,imu_link,-0.00112836790077,-0.367096547901,0.000162006897481,0.930182146173,0.0,0.0,0.0,0.0,0.0,0.0,0.0,0.0,0.0,-0.00320203494644,-0.0115799393315,0.00204628541128,0.0,0.0,0.0,0.0,0.0,0.0,0.0,0.0,0.0,5.99132017056,-0.0226313844314,7.55219094151,0.0,0.0,0.0,0.0,0.0,0.0,0.0,0.0,0.0
27972000000,209,27972000000,imu_link,-0.00113542693134,-0.367118872008,0.000163545023298,0.930173326791,0.0,0.0,0.0,0.0,0.0,0.0,0.0,0.0,0.0,-0.00300755584663,-0.0120018211787,0.00199916096079,0.0,0.0,0.0,0.0,0.0,0.0,0.0,0.0,0.0,5.99307353365,-0.0225703832176,7.54655305262,0.0,0.0,0.0,0.0,0.0,0.0,0.0,0.0,0.0
27976000000,210,27976000000,imu_link,-0.00114210272684,-0.367141622857,0.000165110150209,0.930164338763,0.0,0.0,0.0,0.0,0.0,0.0,0.0,0.0,0.0,-0.00282449266137,-0.0122312968259,0.00194114392073,0.0,0.0,0.0,0.0,0.0,0.0,0.0,0.0,0.0,5.9961765928,-0.0225139561243,7.54166144763,0.0,0.0,0.0,0.0,0.0,0.0,0.0,0.0,0.0
27980000000,211,27980000000,imu_link,-0.00114819415262,-0.367164441976,0.000166694907529,0.93015532381,0.0,0.0,0.0,0.0,0.0,0.0,0.0,0.0,0.0,-0.00254913016436,-0.0122680496389,0.00184296368676,0.0,0.0,0.0,0.0,0.0,0.0,0.0,0.0,0.0,5.9997368441,-0.0224520422921,7.53802017245,0.0,0.0,0.0,0.0,0.0,0.0,0.0,0.0,0.0
27984000000,212,27984000000,imu_link,-0.00115333388529,-0.367187307038,0.000168305322762,0.930146291206,0.0,0.0,0.0,0.0,0.0,0.0,0.0,0.0,0.0,-0.0021018225854,-0.0122927508036,0.00168015777066,0.0,0.0,0.0,0.0,0.0,0.0,0.0,0.0,0.0,6.00270568706,-0.0223438625905,7.53589684414,0.0,0.0,0.0,0.0,0.0,0.0,0.0,0.0,0.0
27988000000,213,27988000000,imu_link,-0.00115753014006,-0.367210619796,0.000169897307708,0.930137082353,0.0,0.0,0.0,0.0,0.0,0.0,0.0,0.0,0.0,-0.00166655934457,-0.0125333895459,0.00149812644399,0.0,0.0,0.0,0.0,0.0,0.0,0.0,0.0,0.0,6.0060494799,-0.0221610758382,7.53775929846,0.0,0.0,0.0,0.0,0.0,0.0,0.0,0.0,0.0
27992000000,214,27992000000,imu_link,-0.00116109726544,-0.367234663137,0.000171427506935,0.93012758515,0.0,0.0,0.0,0.0,0.0,0.0,0.0,0.0,0.0,-0.00138554419426,-0.0129261215462,0.00135348201175,0.0,0.0,0.0,0.0,0.0,0.0,0.0,0.0,0.0,6.00939923111,-0.0219529920255,7.53883270805,0.0,0.0,0.0,0.0,0.0,0.0,0.0,0.0,0.0
27996000000,215,27996000000,imu_link,-0.00116464238926,-0.367259522449,0.000172814573719,0.930117765078,0.0,0.0,0.0,0.0,0.0,0.0,0.0,0.0,0.0,-0.00140185104123,-0.0133648026229,0.00128243039104,0.0,0.0,0.0,0.0,0.0,0.0,0.0,0.0,0.0,6.01151747517,-0.0217432244857,7.53566218715,0.0,0.0,0.0,0.0,0.0,0.0,0.0,0.0,0.0
28000000000,216,28000000000,imu_link,-0.0011687986372,-0.367285224328,0.000173935390789,0.930107610789,0.0,0.0,0.0,0.0,0.0,0.0,0.0,0.0,0.0,-0.00173521853926,-0.0138178100675,0.00127036740752,0.0,0.0,0.0,0.0,0.0,0.0,0.0,0.0,0.0,6.01471993758,-0.0216303994404,7.53427738437,0.0,0.0,0.0,0.0,0.0,0.0,0.0,0.0,0.0
28004000000,217,28004000000,imu_link,-0.0011739982844,-0.367311645194,0.000174723247576,0.930097170464,0.0,0.0,0.0,0.0,0.0,0.0,0.0,0.0,0.0,-0.00228183072194,-0.0142044211093,0.00130674022682,0.0,0.0,0.0,0.0,0.0,0.0,0.0,0.0,0.0,6.01693935887,-0.0216514686494,7.52953252218,0.0,0.0,0.0,0.0,0.0,0.0,0.0,0.0,0.0
28008000000,218,28008000000,imu_link,-0.00118010868718,-0.367338583526,0.000175200008041,0.930086523772,0.0,0.0,0.0,0.0,0.0,0.0,0.0,0.0,0.0,-0.00276267730672,-0.0144827061639,0.0013290451632,0.0,0.0,0.0,0.0,0.0,0.0,0.0,0.0,0.0,6.01873308154,-0.0218339589477,7.5233649336,0.0,0.0,0.0,0.0,0.0,0.0,0.0,0.0,0.0
28012000000,219,28012000000,imu_link,-0.00118665725368,-0.367365765822,0.000175458377052,0.930075779257,0.0,0.0,0.0,0.0,0.0,0.0,0.0,0.0,0.0,-0.00300663329439,-0.0146139600215,0.00130782552806,0.0,0.0,0.0,0.0,0.0,0.0,0.0,0.0,0.0,6.02112975902,-0.022042385166,7.51829826947,0.0,0.0,0.0,0.0,0.0,0.0,0.0,0.0,0.0
28016000000,220,28016000000,imu_link,-0.0011932145637,-0.367392923967,0.000175584521971,0.930065043332,0.0,0.0,0.0,0.0,0.0,0.0,0.0,0.0,0.0,-0.00303497944504,-0.0146010714179,0.00124795592513,0.0,0.0,0.0,0.0,0.0,0.0,0.0,0.0,0.0,6.02375192585,-0.0221771038069,7.51402993692,0.0,0.0,0.0,0.0,0.0,0.0,0.0,0.0,0.0
28020000000,221,28020000000,imu_link,-0.00119974320284,-0.367420104378,0.000175592339438,0.930054297706,0.0,0.0,0.0,0.0,0.0,0.0,0.0,0.0,0.0,-0.00304339062911,-0.0146131403646,0.00118765063888,0.0,0.0,0.0,0.0,0.0,0.0,0.0,0.0,0.0,6.02546154026,-0.0221863231337,7.51022999168,0.0,0.0,0.0,0.0,0.0,0.0,0.0,0.0,0.0
28024000000,222,28024000000,imu_link,-0.00120656605789,-0.367447572409,0.000175435359632,0.930043437132,0.0,0.0,0.0,0.0,0.0,0.0,0.0,0.0,0.0,-0.00321057814189,-0.0147678833143,0.00116490341293,0.0,0.0,0.0,0.0,0.0,0.0,0.0,0.0,0.0,6.02790462722,-0.0220969542859,7.50943073164,0.0,0.0,0.0,0.0,0.0,0.0,0.0,0.0,0.0
28028000000,223,28028000000,imu_link,-0.00121377399601,-0.367475542704,0.0001751467103,0.930032376636,0.0,0.0,0.0,0.0,0.0,0.0,0.0,0.0,0.0,-0.00341400561963,-0.0150380646682,0.00117413767077,0.0,0.0,0.0,0.0,0.0,0.0,0.0,0.0,0.0,6.02983467505,-0.022067487265,7.50735326621,0.0,0.0,0.0,0.0,0.0,0.0,0.0,0.0,0.0
28032000000,224,28032000000,imu_link,-0.001221098445,-0.367504227649,0.000174806867626,0.930021032569,0.0,0.0,0.0,0.0,0.0,0.0,0.0,0.0,0.0,-0.00347782588886,-0.0154224497178,0.00117133050602,0.0,0.0,0.0,0.0,0.0,0.0,0.0,0.0,0.0,6.03169130006,-0.0220931866669,7.5048198223,0.0,0.0,0.0,0.0,0.0,0.0,0.0,0.0,0.0
28036000000,225,28036000000,imu_link,-0.00122801829143,-0.367533682959,0.000174503060588,0.930009383507,0.0,0.0,0.0,0.0,0.0,0.0,0.0,0.0,0.0,-0.00328331337243,-0.0158367783777,0.0011132971944,0.0,0.0,0.0,0.0,0.0,0.0,0.0,0.0,0.0,6.0342430373,-0.0221430360509,7.50274949801,0.0,0.0,0.0,0.0,0.0,0.0,0.0,0.0,0.0
28040000000,226,28040000000,imu_link,-0.00123402352932,-0.367563872853,0.000174271907945,0.929997444184,0.0,0.0,0.0,0.0,0.0,0.0,0.0,0.0,0.0,-0.0028449069529,-0.0162318279397,0.000978581389179,0.0,0.0,0.0,0.0,0.0,0.0,0.0,0.0,0.0,6.03670700624,-0.022120257625,7.49996488039,0.0,0.0,0.0,0.0,0.0,0.0,0.0,0.0,0.0
28044000000,227,28044000000,imu_link,-0.00123892784862,-0.367594876365,0.000174110606575,0.929985183545,0.0,0.0,0.0,0.0,0.0,0.0,0.0,0.0,0.0,-0.00232041296344,-0.0166693507574,0.00080825917701,0.0,0.0,0.0,0.0,0.0,0.0,0.0,0.0,0.0,6.03894438247,-0.0219631246847,7.4972083722,0.0,0.0,0.0,0.0,0.0,0.0,0.0,0.0,0.0
28048000000,228,28048000000,imu_link,-0.00124274835341,-0.367626648422,0.000173983688182,0.929972619315,0.0,0.0,0.0,0.0,0.0,0.0,0.0,0.0,0.0,-0.00181038271705,-0.0170826329423,0.000624595021995,0.0,0.0,0.0,0.0,0.0,0.0,0.0,0.0,0.0,6.04159212588,-0.0217677234419,7.49422097618,0.0,0.0,0.0,0.0,0.0,0.0,0.0,0.0,0.0
28052000000,229,28052000000,imu_link,-0.00124542761198,-0.367659028977,0.000173866678843,0.929959814773,0.0,0.0,0.0,0.0,0.0,0.0,0.0,0.0,0.0,-0.00127809968566,-0.0174098549372,0.000419069132724,0.0,0.0,0.0,0.0,0.0,0.0,0.0,0.0,0.0,6.04274670715,-0.0216319524019,7.48734803599,0.0,0.0,0.0,0.0,0.0,0.0,0.0,0.0,0.0
28056000000,230,28056000000,imu_link,-0.00124665257064,-0.367691704878,0.000173772027765,0.929946894088,0.0,0.0,0.0,0.0,0.0,0.0,0.0,0.0,0.0,-0.000597867341122,-0.0175686749666,0.000161948210415,0.0,0.0,0.0,0.0,0.0,0.0,0.0,0.0,0.0,6.04512360667,-0.0215308376474,7.48231658733,0.0,0.0,0.0,0.0,0.0,0.0,0.0,0.0,0.0
28060000000,231,28060000000,imu_link,-0.00124599910129,-0.367724405638,0.000173714393227,0.929933964757,0.0,0.0,0.0,0.0,0.0,0.0,0.0,0.0,0.0,0.000282349594747,-0.0175820098509,-0.000166196024602,0.0,0.0,0.0,0.0,0.0,0.0,0.0,0.0,0.0,6.04774295447,-0.0214111332367,7.47852813012,0.0,0.0,0.0,0.0,0.0,0.0,0.0,0.0,0.0
28064000000,232,28064000000,imu_link,-0.00124334523904,-0.36775693131,0.000173692697555,0.929921106007,0.0,0.0,0.0,0.0,0.0,0.0,0.0,0.0,0.0,0.00121913322377,-0.0174878184709,-0.000517179334067,0.0,0.0,0.0,0.0,0.0,0.0,0.0,0.0,0.0,6.04975820246,-0.0211743919508,7.47391571971,0.0,0.0,0.0,0.0,0.0,0.0,0.0,0.0,0.0
28068000000,233,28068000000,imu_link,-0.00123913303751,-0.367788937789,0.000173673557206,0.929908453358,0.0,0.0,0.0,0.0,0.0,0.0,0.0,0.0,0.0,0.00194434260444,-0.017208654024,-0.000802231377819,0.0,0.0,0.0,0.0,0.0,0.0,0.0,0.0,0.0,6.0528217131,-0.0208404776849,7.47060904186,0.0,0.0,0.0,0.0,0.0,0.0,0.0,0.0,0.0
28072000000,234,28072000000,imu_link,-0.00123427030541,-0.367820055871,0.00017357467191,0.929896151701,0.0,0.0,0.0,0.0,0.0,0.0,0.0,0.0,0.0,0.00223243949586,-0.0167310512721,-0.000958418158962,0.0,0.0,0.0,0.0,0.0,0.0,0.0,0.0,0.0,6.0565197536,-0.0204632814318,7.46858798804,0.0,0.0,0.0,0.0,0.0,0.0,0.0,0.0,0.0
28076000000,235,28076000000,imu_link,-0.00122939917805,-0.367850141179,0.000173353600837,0.9298842574,0.0,0.0,0.0,0.0,0.0,0.0,0.0,0.0,0.0,0.00221421269245,-0.0161758736681,-0.00101617016599,0.0,0.0,0.0,0.0,0.0,0.0,0.0,0.0,0.0,6.05905647967,-0.0202240208567,7.46597583544,0.0,0.0,0.0,0.0,0.0,0.0,0.0,0.0,0.0
28080000000,236,28080000000,imu_link,-0.00122457057229,-0.367879224524,0.0001730063673,0.929872758316,0.0,0.0,0.0,0.0,0.0,0.0,0.0,0.0,0.0,0.0021715679551,-0.015637247428,-0.00106642597219,0.0,0.0,0.0,0.0,0.0,0.0,0.0,0.0,0.0,6.06063409343,-0.0201979449696,7.46270984039,0.0,0.0,0.0,0.0,0.0,0.0,0.0,0.0,0.0
28084000000,237,28084000000,imu_link,-0.00121913939088,-0.367907387602,0.000172607310019,0.929861623068,0.0,0.0,0.0,0.0,0.0,0.0,0.0,0.0,0.0,0.00244249723649,-0.0151424781949,-0.00120082625495,0.0,0.0,0.0,0.0,0.0,0.0,0.0,0.0,0.0,6.06308817036,-0.0203058058854,7.46208005069,0.0,0.0,0.0,0.0,0.0,0.0,0.0,0.0,0.0
28088000000,238,28088000000,imu_link,-0.00121240953084,-0.367934796347,0.000172261177491,0.929850786969,0.0,0.0,0.0,0.0,0.0,0.0,0.0,0.0,0.0,0.00305627610351,-0.0147368804816,-0.00141468263736,0.0,0.0,0.0,0.0,0.0,0.0,0.0,0.0,0.0,6.06589091574,-0.0203305702056,7.46252550949,0.0,0.0,0.0,0.0,0.0,0.0,0.0,0.0,0.0
28092000000,239,28092000000,imu_link,-0.00120414725316,-0.367961530127,0.000172042844413,0.92984021895,0.0,0.0,0.0,0.0,0.0,0.0,0.0,0.0,0.0,0.00379246755552,-0.0143739629882,-0.00163679423547,0.0,0.0,0.0,0.0,0.0,0.0,0.0,0.0,0.0,6.06729019284,-0.0202123102103,7.45873794054,0.0,0.0,0.0,0.0,0.0,0.0,0.0,0.0,0.0
28096000000,240,28096000000,imu_link,-0.00119420886071,-0.367987688206,0.000172043430036,0.929829879922,0.0,0.0,0.0,0.0,0.0,0.0,0.0,0.0,0.0,0.0046121912364,-0.0140644546713,-0.00184306048937,0.0,0.0,0.0,0.0,0.0,0.0,0.0,0.0,0.0,6.06984360409,-0.020085433002,7.45740740074,0.0,0.0,0.0,0.0,0.0,0.0,0.0,0.0,0.0
28100000000,241,28100000000,imu_link,-0.00118263927799,-0.368013313622,0.000172278188884,0.929819752791,0.0,0.0,0.0,0.0,0.0,0.0,0.0,0.0,0.0,0.00541381474569,-0.0137781040681,-0.00203401900184,0.0,0.0,0.0,0.0,0.0,0.0,0.0,0.0,0.0,6.07173104633,-0.0199569877242,7.45432733858,0.0,0.0,0.0,0.0,0.0,0.0,0.0,0.0,0.0
28104000000,242,28104000000,imu_link,-0.00116956192043,-0.368038567142,0.000172730174695,0.929809773763,0.0,0.0,0.0,0.0,0.0,0.0,0.0,0.0,0.0,0.00615488497742,-0.0135782119827,-0.00221026149587,0.0,0.0,0.0,0.0,0.0,0.0,0.0,0.0,0.0,6.07404257036,-0.019803728874,7.45318708348,0.0,0.0,0.0,0.0,0.0,0.0,0.0,0.0,0.0
28108000000,243,28108000000,imu_link,-0.00115542202262,-0.368063589308,0.00017332191392,0.929799886634,0.0,0.0,0.0,0.0,0.0,0.0,0.0,0.0,0.0,0.00667465617765,-0.0134539167861,-0.00234068999212,0.0,0.0,0.0,0.0,0.0,0.0,0.0,0.0,0.0,6.07703113189,-0.0196067871128,7.45356641051,0.0,0.0,0.0,0.0,0.0,0.0,0.0,0.0,0.0
28112000000,244,28112000000,imu_link,-0.00114050246629,-0.368088497906,0.000174044362113,0.929790044404,0.0,0.0,0.0,0.0,0.0,0.0,0.0,0.0,0.0,0.00706120976525,-0.0133929995339,-0.00242334363844,0.0,0.0,0.0,0.0,0.0,0.0,0.0,0.0,0.0,6.07866519098,-0.0194929910001,7.45064361736,0.0,0.0,0.0,0.0,0.0,0.0,0.0,0.0,0.0
28116000000,245,28116000000,imu_link,-0.00112495844348,-0.368113348987,0.000174908122185,0.929780224662,0.0,0.0,0.0,0.0,0.0,0.0,0.0,0.0,0.0,0.00737754658998,-0.0133622561656,-0.00247254707082,0.0,0.0,0.0,0.0,0.0,0.0,0.0,0.0,0.0,6.08071184789,-0.0194288722797,7.44770014616,0.0,0.0,0.0,0.0,0.0,0.0,0.0,0.0,0.0
28120000000,246,28120000000,imu_link,-0.00110873089378,-0.368138124998,0.000175943024393,0.929770434399,0.0,0.0,0.0,0.0,0.0,0.0,0.0,0.0,0.0,0.0077268344836,-0.0133220869946,-0.00251875282333,0.0,0.0,0.0,0.0,0.0,0.0,0.0,0.0,0.0,6.08220032624,-0.0194025387095,7.44317028229,0.0,0.0,0.0,0.0,0.0,0.0,0.0,0.0,0.0
28124000000,247,28124000000,imu_link,-0.00109161226117,-0.368162755479,0.000177182225587,0.929760701722,0.0,0.0,0.0,0.0,0.0,0.0,0.0,0.0,0.0,0.00817873560431,-0.0132440243981,-0.00258772243054,0.0,0.0,0.0,0.0,0.0,0.0,0.0,0.0,0.0,6.08457618068,-0.01940546887,7.4402355313,0.0,0.0,0.0,0.0,0.0,0.0,0.0,0.0,0.0
28128000000,248,28128000000,imu_link,-0.00107345996316,-0.368187103765,0.000178667840831,0.929751080872,0.0,0.0,0.0,0.0,0.0,0.0,0.0,0.0,0.0,0.00870471261022,-0.0130924779159,-0.00266330381331,0.0,0.0,0.0,0.0,0.0,0.0,0.0,0.0,0.0,6.08699229034,-0.019378619084,7.43717953857,0.0,0.0,0.0,0.0,0.0,0.0,0.0,0.0,0.0
28132000000,249,28132000000,imu_link,-0.00105438373734,-0.368211053675,0.000180433031697,0.929741617693,0.0,0.0,0.0,0.0,0.0,0.0,0.0,0.0,0.0,0.00918581233747,-0.0128784893746,-0.0027032253631,0.0,0.0,0.0,0.0,0.0,0.0,0.0,0.0,0.0,6.08922968043,-0.0192872862474,7.43397960792,0.0,0.0,0.0,0.0,0.0,0.0,0.0,0.0,0.0
28136000000,250,28136000000,imu_link,-0.00103490762947,-0.368234598635,0.000182468000204,0.929732314185,0.0,0.0,0.0,0.0,0.0,0.0,0.0,0.0,0.0,0.00942149409861,-0.0126610216243,-0.00265123502873,0.0,0.0,0.0,0.0,0.0,0.0,0.0,0.0,0.0,6.09217157854,-0.0191701772495,7.43329618996,0.0,0.0,0.0,0.0,0.0,0.0,0.0,0.0,0.0
28140000000,251,28140000000,imu_link,-0.00101547119017,-0.368257771693,0.00018472699488,0.929723156796,0.0,0.0,0.0,0.0,0.0,0.0,0.0,0.0,0.0,0.00944441014913,-0.0124613463226,-0.00253961006058,0.0,0.0,0.0,0.0,0.0,0.0,0.0,0.0,0.0,6.09576834237,-0.0192272731307,7.43467480023,0.0,0.0,0.0,0.0,0.0,0.0,0.0,0.0,0.0
28144000000,252,28144000000,imu_link,-0.000996139027749,-0.36828063766,0.000187182560556,0.929714119821,0.0,0.0,0.0,0.0,0.0,0.0,0.0,0.0,0.0,0.00943221973987,-0.0122965098813,-0.00242888657157,0.0,0.0,0.0,0.0,0.0,0.0,0.0,0.0,0.0,6.09790368832,-0.0194863946168,7.43299514305,0.0,0.0,0.0,0.0,0.0,0.0,0.0,0.0,0.0
28148000000,253,28148000000,imu_link,-0.000976555465333,-0.368303100934,0.000189853215967,0.929705241535,0.0,0.0,0.0,0.0,0.0,0.0,0.0,0.0,0.0,0.00958880822048,-0.0120802251539,-0.00237500774801,0.0,0.0,0.0,0.0,0.0,0.0,0.0,0.0,0.0,6.10046703755,-0.0197503856762,7.43122691835,0.0,0.0,0.0,0.0,0.0,0.0,0.0,0.0,0.0
28152000000,254,28152000000,imu_link,-0.000956336528932,-0.368325025666,0.000192774701537,0.929696576161,0.0,0.0,0.0,0.0,0.0,0.0,0.0,0.0,0.0,0.00993050932826,-0.0117908569583,-0.00237517104857,0.0,0.0,0.0,0.0,0.0,0.0,0.0,0.0,0.0,6.10201848226,-0.019922602677,7.42702732924,0.0,0.0,0.0,0.0,0.0,0.0,0.0,0.0,0.0
28156000000,255,28156000000,imu_link,-0.000935504295529,-0.368346379548,0.000195949821864,0.929688136479,0.0,0.0,0.0,0.0,0.0,0.0,0.0,0.0,0.0,0.0102624723446,-0.0114841145679,-0.00236996447364,0.0,0.0,0.0,0.0,0.0,0.0,0.0,0.0,0.0,6.10348041494,-0.0199549219395,7.42326377298,0.0,0.0,0.0,0.0,0.0,0.0,0.0,0.0,0.0
28160000000,256,28160000000,imu_link,-0.00091448870558,-0.368367293125,0.00019934509336,0.929679870347,0.0,0.0,0.0,0.0,0.0,0.0,0.0,0.0,0.0,0.0103883748082,-0.0112475993738,-0.00230120891915,0.0,0.0,0.0,0.0,0.0,0.0,0.0,0.0,0.0,6.10573288105,-0.0199486692289,7.42209459851,0.0,0.0,0.0,0.0,0.0,0.0,0.0,0.0,0.0
28164000000,257,28164000000,imu_link,-0.000894076858328,-0.368388289189,0.000202825028137,0.929671569898,0.0,0.0,0.0,0.0,0.0,0.0,0.0,0.0,0.0,0.0101233007707,-0.0112922417052,-0.00215068880948,0.0,0.0,0.0,0.0,0.0,0.0,0.0,0.0,0.0,6.1095296083,-0.0199228105841,7.4268974472,0.0,0.0,0.0,0.0,0.0,0.0,0.0,0.0,0.0
28168000000,258,28168000000,imu_link,-0.000875182199579,-0.36840993579,0.000206214810591,0.929663009237,0.0,0.0,0.0,0.0,0.0,0.0,0.0,0.0,0.0,0.00940126943394,-0.01164236976,-0.00191340202323,0.0,0.0,0.0,0.0,0.0,0.0,0.0,0.0,0.0,6.11512841699,-0.0199725829556,7.43632228757,0.0,0.0,0.0,0.0,0.0,0.0,0.0,0.0,0.0
28172000000,259,28172000000,imu_link,-0.00085844066205,-0.368432358818,0.000209430237155,0.929654137943,0.0,0.0,0.0,0.0,0.0,0.0,0.0,0.0,0.0,0.0083680976504,-0.0120601996546,-0.0015981402376,0.0,0.0,0.0,0.0,0.0,0.0,0.0,0.0,0.0,6.11762800155,-0.020157156967,7.43549222901,0.0,0.0,0.0,0.0,0.0,0.0,0.0,0.0,0.0
28176000000,260,28176000000,imu_link,-0.000844083715815,-0.368455278635,0.000212443751238,0.929645066698,0.0,0.0,0.0,0.0,0.0,0.0,0.0,0.0,0.0,0.00722234167733,-0.0123276184634,-0.00125290662018,0.0,0.0,0.0,0.0,0.0,0.0,0.0,0.0,0.0,6.11957497479,-0.020468682661,7.43027944514,0.0,0.0,0.0,0.0,0.0,0.0,0.0,0.0,0.0
28180000000,261,28180000000,imu_link,-0.00083207828689,-0.368478104123,0.000215262344684,0.929636029901,0.0,0.0,0.0,0.0,0.0,0.0,0.0,0.0,0.0,0.00609341823328,-0.0122770935769,-0.000910259489976,0.0,0.0,0.0,0.0,0.0,0.0,0.0,0.0,0.0,6.12232014875,-0.0208421546152,7.42444617182,0.0,0.0,0.0,0.0,0.0,0.0,0.0,0.0,0.0
28184000000,262,28184000000,imu_link,-0.000822063511747,-0.368500620025,0.000217900821823,0.929627113295,0.0,0.0,0.0,0.0,0.0,0.0,0.0,0.0,0.0,0.00513502536071,-0.0121107594017,-0.000627108764248,0.0,0.0,0.0,0.0,0.0,0.0,0.0,0.0,0.0,6.12508207106,-0.0213401661339,7.42174647062,0.0,0.0,0.0,0.0,0.0,0.0,0.0,0.0,0.0
28188000000,263,28188000000,imu_link,-0.000813513003264,-0.36852288218,0.000220393530528,0.929618295287,0.0,0.0,0.0,0.0,0.0,0.0,0.0,0.0,0.0,0.00442762466026,-0.011974428435,-0.000424978767611,0.0,0.0,0.0,0.0,0.0,0.0,0.0,0.0,0.0,6.12778466075,-0.0218730408463,7.42151080653,0.0,0.0,0.0,0.0,0.0,0.0,0.0,0.0,0.0
28192000000,264,28192000000,imu_link,-0.000806004120039,-0.368545228509,0.000222773040069,0.929609442332,0.0,0.0,0.0,0.0,0.0,0.0,0.0,0.0,0.0,0.0039225859795,-0.0120198318709,-0.000285693790385,0.0,0.0,0.0,0.0,0.0,0.0,0.0,0.0,0.0,6.13081268471,-0.0223216631244,7.42405699198,0.0,0.0,0.0,0.0,0.0,0.0,0.0,0.0,0.0
28196000000,265,28196000000,imu_link,-0.000799133575404,-0.368568097477,0.000225095416734,0.929600380938,0.0,0.0,0.0,0.0,0.0,0.0,0.0,0.0,0.0,0.00361521294866,-0.0123010719883,-0.000194808506546,0.0,0.0,0.0,0.0,0.0,0.0,0.0,0.0,0.0,6.13336555351,-0.0226612727645,7.42630485498,0.0,0.0,0.0,0.0,0.0,0.0,0.0,0.0,0.0
28200000000,266,28200000000,imu_link,-0.000792508122211,-0.368591873155,0.000227406963357,0.929590959111,0.0,0.0,0.0,0.0,0.0,0.0,0.0,0.0,0.0,0.00349905253079,-0.0127889015784,-0.000154997594937,0.0,0.0,0.0,0.0,0.0,0.0,0.0,0.0,0.0,6.13472896986,-0.0228934921452,7.42541771553,0.0,0.0,0.0,0.0,0.0,0.0,0.0,0.0,0.0
28204000000,267,28204000000,imu_link,-0.000785822583052,-0.368616772241,0.000229739539015,0.929581091097,0.0,0.0,0.0,0.0,0.0,0.0,0.0,0.0,0.0,0.0035305512431,-0.0133933018846,-0.000156691415713,0.0,0.0,0.0,0.0,0.0,0.0,0.0,0.0,0.0,6.13701597546,-0.0230399256819,7.42505869132,0.0,0.0,0.0,0.0,0.0,0.0,0.0,0.0,0.0
28208000000,268,28208000000,imu_link,-0.000778867240864,-0.368642709813,0.000232120309525,0.929570810637,0.0,0.0,0.0,0.0,0.0,0.0,0.0,0.0,0.0,0.00366455450994,-0.013952047694,-0.000184378520267,0.0,0.0,0.0,0.0,0.0,0.0,0.0,0.0,0.0,6.13917174541,-0.0230923766788,7.42185987041,0.0,0.0,0.0,0.0,0.0,0.0,0.0,0.0,0.0
28212000000,269,28212000000,imu_link,-0.000771572487984,-0.36866946651,0.000234567714992,0.929560204676,0.0,0.0,0.0,0.0,0.0,0.0,0.0,0.0,0.0,0.00383436806362,-0.0143928268319,-0.000216249420774,0.0,0.0,0.0,0.0,0.0,0.0,0.0,0.0,0.0,6.14033264348,-0.0230711894721,7.41566628262,0.0,0.0,0.0,0.0,0.0,0.0,0.0,0.0,0.0
28216000000,270,28216000000,imu_link,-0.000764052920213,-0.368696988746,0.000237079775668,0.929549294285,0.0,0.0,0.0,0.0,0.0,0.0,0.0,0.0,0.0,0.00395056852162,-0.0148048030973,-0.000227899789049,0.0,0.0,0.0,0.0,0.0,0.0,0.0,0.0,0.0,6.14120296285,-0.0229934193206,7.41047200222,0.0,0.0,0.0,0.0,0.0,0.0,0.0,0.0,0.0
28220000000,271,28220000000,imu_link,-0.00075662247092,-0.368725392644,0.000239638667625,0.929538033065,0.0,0.0,0.0,0.0,0.0,0.0,0.0,0.0,0.0,0.00391754325071,-0.0152792589902,-0.000190000170031,0.0,0.0,0.0,0.0,0.0,0.0,0.0,0.0,0.0,6.14360979671,-0.0228967414732,7.40976759722,0.0,0.0,0.0,0.0,0.0,0.0,0.0,0.0,0.0
28224000000,272,28224000000,imu_link,-0.000749601793634,-0.368754917347,0.000242201009005,0.929526325807,0.0,0.0,0.0,0.0,0.0,0.0,0.0,0.0,0.0,0.00372742682795,-0.0158823592342,-0.000113220882225,0.0,0.0,0.0,0.0,0.0,0.0,0.0,0.0,0.0,6.14624954188,-0.0228384272368,7.41047861615,0.0,0.0,0.0,0.0,0.0,0.0,0.0,0.0,0.0
28228000000,273,28228000000,imu_link,-0.000742981467771,-0.368785431898,0.000244771366522,0.929514224359,0.0,0.0,0.0,0.0,0.0,0.0,0.0,0.0,0.0,0.00354256861536,-0.0164150387154,-3.60027584907e-05,0.0,0.0,0.0,0.0,0.0,0.0,0.0,0.0,0.0,6.14774779705,-0.0228752267167,7.40564457727,0.0,0.0,0.0,0.0,0.0,0.0,0.0,0.0,0.0
28232000000,274,28232000000,imu_link,-0.000736424396622,-0.368816342614,0.000247396821713,0.929501964438,0.0,0.0,0.0,0.0,0.0,0.0,0.0,0.0,0.0,0.00352322279092,-0.0166283929181,1.14020913176e-06,0.0,0.0,0.0,0.0,0.0,0.0,0.0,0.0,0.0,6.14974584166,-0.0230192244678,7.39835172619,0.0,0.0,0.0,0.0,0.0,0.0,0.0,0.0,0.0
28236000000,275,28236000000,imu_link,-0.000729478049909,-0.368846894485,0.000250119216162,0.929489845954,0.0,0.0,0.0,0.0,0.0,0.0,0.0,0.0,0.0,0.00372211185006,-0.016435621379,-2.54781347242e-05,0.0,0.0,0.0,0.0,0.0,0.0,0.0,0.0,0.0,6.15263287767,-0.02320135362,7.39222122472,0.0,0.0,0.0,0.0,0.0,0.0,0.0,0.0,0.0
28240000000,276,28240000000,imu_link,-0.000721970535553,-0.368876754784,0.00025296850308,0.929478001109,0.0,0.0,0.0,0.0,0.0,0.0,0.0,0.0,0.0,0.00400649990431,-0.0160638673485,-6.9779953231e-05,0.0,0.0,0.0,0.0,0.0,0.0,0.0,0.0,0.0,6.15373550193,-0.0232211690685,7.38584244895,0.0,0.0,0.0,0.0,0.0,0.0,0.0,0.0,0.0
28244000000,277,28244000000,imu_link,-0.000713958865939,-0.368905872544,0.000255944430481,0.929466450152,0.0,0.0,0.0,0.0,0.0,0.0,0.0,0.0,0.0,0.00426435788922,-0.0156646862732,-0.000103679886188,0.0,0.0,0.0,0.0,0.0,0.0,0.0,0.0,0.0,6.15556665599,-0.0231629797059,7.38346584246,0.0,0.0,0.0,0.0,0.0,0.0,0.0,0.0,0.0
28248000000,278,28248000000,imu_link,-0.000705744221645,-0.36893420993,0.000259012852582,0.929455207947,0.0,0.0,0.0,0.0,0.0,0.0,0.0,0.0,0.0,0.00437595796995,-0.0152451291398,-9.78947355338e-05,0.0,0.0,0.0,0.0,0.0,0.0,0.0,0.0,0.0,6.15682943599,-0.0230836835172,7.38001475241,0.0,0.0,0.0,0.0,0.0,0.0,0.0,0.0,0.0
28252000000,279,28252000000,imu_link,-0.00069754103843,-0.368961703796,0.000262155512391,0.929444299484,0.0,0.0,0.0,0.0,0.0,0.0,0.0,0.0,0.0,0.00438455311471,-0.0147915825985,-6.10257986902e-05,0.0,0.0,0.0,0.0,0.0,0.0,0.0,0.0,0.0,6.15841418315,-0.0230549878349,7.37681406005,0.0,0.0,0.0,0.0,0.0,0.0,0.0,0.0,0.0
28256000000,280,28256000000,imu_link,-0.000689598224642,-0.368988401372,0.000265326719932,0.929433705925,0.0,0.0,0.0,0.0,0.0,0.0,0.0,0.0,0.0,0.00426903438955,-0.0143634107213,5.10584534466e-07,0.0,0.0,0.0,0.0,0.0,0.0,0.0,0.0,0.0,6.16056658859,-0.0230525922593,7.37560136947,0.0,0.0,0.0,0.0,0.0,0.0,0.0,0.0,0.0
28260000000,281,28260000000,imu_link,-0.000681899647734,-0.36901445509,0.000268520610857,0.929423366849,0.0,0.0,0.0,0.0,0.0,0.0,0.0,0.0,0.0,0.00415989151,-0.0140172239832,5.63004637707e-05,0.0,0.0,0.0,0.0,0.0,0.0,0.0,0.0,0.0,6.16259312657,-0.0231073993481,7.37511744243,0.0,0.0,0.0,0.0,0.0,0.0,0.0,0.0,0.0
28264000000,282,28264000000,imu_link,-0.000674162112885,-0.369040109466,0.000271771726681,0.92941318543,0.0,0.0,0.0,0.0,0.0,0.0,0.0,0.0,0.0,0.00418866149733,-0.0138025805949,7.58205102229e-05,0.0,0.0,0.0,0.0,0.0,0.0,0.0,0.0,0.0,6.16527520245,-0.0231946399344,7.37691483244,0.0,0.0,0.0,0.0,0.0,0.0,0.0,0.0,0.0
28268000000,283,28268000000,imu_link,-0.000666322705462,-0.369065555368,0.000275104175672,0.92940308595,0.0,0.0,0.0,0.0,0.0,0.0,0.0,0.0,0.0,0.00425106590243,-0.0136906236757,9.48781740387e-05,0.0,0.0,0.0,0.0,0.0,0.0,0.0,0.0,0.0,6.16743643278,-0.0231942195913,7.37714799658,0.0,0.0,0.0,0.0,0.0,0.0,0.0,0.0,0.0
28272000000,284,28272000000,imu_link,-0.000658835092822,-0.369091087888,0.000278493025468,0.92939295092,0.0,0.0,0.0,0.0,0.0,0.0,0.0,0.0,0.0,0.00409797036314,-0.0137374056108,0.000185981416479,0.0,0.0,0.0,0.0,0.0,0.0,0.0,0.0,0.0,6.17010474356,-0.023096119008,7.37923005433,0.0,0.0,0.0,0.0,0.0,0.0,0.0,0.0,0.0
28276000000,285,28276000000,imu_link,-0.000652216166602,-0.36911694459,0.000281855252275,0.929382685651,0.0,0.0,0.0,0.0,0.0,0.0,0.0,0.0,0.0,0.00368929364674,-0.0139119574034,0.000333833358521,0.0,0.0,0.0,0.0,0.0,0.0,0.0,0.0,0.0,6.17237804979,-0.0231034329784,7.37988048193,0.0,0.0,0.0,0.0,0.0,0.0,0.0,0.0,0.0
28280000000,286,28280000000,imu_link,-0.000646578493407,-0.369143312357,0.000285130104804,0.929372215842,0.0,0.0,0.0,0.0,0.0,0.0,0.0,0.0,0.0,0.00321704947261,-0.0141870273647,0.00047419201111,0.0,0.0,0.0,0.0,0.0,0.0,0.0,0.0,0.0,6.17367534848,-0.0232892909245,7.37808816645,0.0,0.0,0.0,0.0,0.0,0.0,0.0,0.0,0.0
28284000000,287,28284000000,imu_link,-0.000641498772337,-0.369170309575,0.000288339638128,0.92936149472,0.0,0.0,0.0,0.0,0.0,0.0,0.0,0.0,0.0,0.00294554981234,-0.0145258093304,0.000546653564811,0.0,0.0,0.0,0.0,0.0,0.0,0.0,0.0,0.0,6.17563462645,-0.0235847748058,7.37694724483,0.0,0.0,0.0,0.0,0.0,0.0,0.0,0.0,0.0
28288000000,288,28288000000,imu_link,-0.000636525121428,-0.369198004165,0.000291504215204,0.929350495551,0.0,0.0,0.0,0.0,0.0,0.0,0.0,0.0,0.0,0.00288777307125,-0.0149011582987,0.000545158643263,0.0,0.0,0.0,0.0,0.0,0.0,0.0,0.0,0.0,6.17835591537,-0.0237816880238,7.37715681441,0.0,0.0,0.0,0.0,0.0,0.0,0.0,0.0,0.0
28292000000,289,28292000000,imu_link,-0.000631517019272,-0.369226532246,0.000294635272928,0.929339164279,0.0,0.0,0.0,0.0,0.0,0.0,0.0,0.0,0.0,0.00289736689551,-0.0153497607232,0.000523006500761,0.0,0.0,0.0,0.0,0.0,0.0,0.0,0.0,0.0,6.17879591636,-0.0238376585468,7.37268413096,0.0,0.0,0.0,0.0,0.0,0.0,0.0,0.0,0.0
28296000000,290,28296000000,imu_link,-0.000626602078407,-0.369255993531,0.000297728516045,0.929327461108,0.0,0.0,0.0,0.0,0.0,0.0,0.0,0.0,0.0,0.00284684169161,-0.015852024404,0.000522394132802,0.0,0.0,0.0,0.0,0.0,0.0,0.0,0.0,0.0,6.18009113113,-0.0238337395581,7.36986194093,0.0,0.0,0.0,0.0,0.0,0.0,0.0,0.0,0.0
28300000000,291,28300000000,imu_link,-0.000621965539827,-0.369286282852,0.000300769264916,0.92931542761,0.0,0.0,0.0,0.0,0.0,0.0,0.0,0.0,0.0,0.00270755958295,-0.0162977126214,0.000549192566686,0.0,0.0,0.0,0.0,0.0,0.0,0.0,0.0,0.0,6.18184709038,-0.0238078624324,7.36599257844,0.0,0.0,0.0,0.0,0.0,0.0,0.0,0.0,0.0
28304000000,292,28304000000,imu_link,-0.000617605285592,-0.369317142507,0.000303753420366,0.929303166113,0.0,0.0,0.0,0.0,0.0,0.0,0.0,0.0,0.0,0.00256857567015,-0.0166047618957,0.000573766929528,0.0,0.0,0.0,0.0,0.0,0.0,0.0,0.0,0.0,6.18330195007,-0.0238068788762,7.36059750004,0.0,0.0,0.0,0.0,0.0,0.0,0.0,0.0,0.0
28308000000,293,28308000000,imu_link,-0.000613339003247,-0.369348300571,0.000306696425757,0.929290784748,0.0,0.0,0.0,0.0,0.0,0.0,0.0,0.0,0.0,0.00251723043549,-0.0167655255155,0.000571925260145,0.0,0.0,0.0,0.0,0.0,0.0,0.0,0.0,0.0,6.18449259919,-0.0238357545257,7.3548028553,0.0,0.0,0.0,0.0,0.0,0.0,0.0,0.0,0.0
28312000000,294,28312000000,imu_link,-0.000608771100848,-0.369379623571,0.000309637235613,0.929278336782,0.0,0.0,0.0,0.0,0.0,0.0,0.0,0.0,0.0,0.00265692562768,-0.0168545076697,0.00051516332018,0.0,0.0,0.0,0.0,0.0,0.0,0.0,0.0,0.0,6.18610576577,-0.0238869340364,7.35125803369,0.0,0.0,0.0,0.0,0.0,0.0,0.0,0.0,0.0
28316000000,295,28316000000,imu_link,-0.000603745199915,-0.369411005101,0.000312611155767,0.929265864582,0.0,0.0,0.0,0.0,0.0,0.0,0.0,0.0,0.0,0.00287582838225,-0.0168862594308,0.000445945935242,0.0,0.0,0.0,0.0,0.0,0.0,0.0,0.0,0.0,6.18733689535,-0.0238406204627,7.34716100577,0.0,0.0,0.0,0.0,0.0,0.0,0.0,0.0,0.0
28320000000,296,28320000000,imu_link,-0.00059847673552,-0.369442328386,0.000315630364347,0.929253414414,0.0,0.0,0.0,0.0,0.0,0.0,0.0,0.0,0.0,0.00299691213181,-0.0168551792813,0.000422199761115,0.0,0.0,0.0,0.0,0.0,0.0,0.0,0.0,0.0,6.18932143827,-0.0237107622627,7.34442815169,0.0,0.0,0.0,0.0,0.0,0.0,0.0,0.0,0.0
28328000000,297,28328000000,imu_link,-0.000589666986569,-0.369503750746,0.000321645826698,0.929228996008,0.0,0.0,0.0,0.0,0.0,0.0,0.0,0.0,0.0,0.00237511685262,-0.0163516799132,0.000654748897893,0.0,0.0,0.0,0.0,0.0,0.0,0.0,0.0,0.0,6.19434085357,-0.0236249335336,7.3430365769,0.0,0.0,0.0,0.0,0.0,0.0,0.0,0.0,0.0
28332000000,298,28332000000,imu_link,-0.000586718987297,-0.36953335265,0.000324604927718,0.929217225234,0.0,0.0,0.0,0.0,0.0,0.0,0.0,0.0,0.0,0.001908151583,-0.0159294928137,0.000823358218296,0.0,0.0,0.0,0.0,0.0,0.0,0.0,0.0,0.0,6.19632418496,-0.0238646195644,7.3374610599,0.0,0.0,0.0,0.0,0.0,0.0,0.0,0.0,0.0
28336000000,299,28336000000,imu_link,-0.000584478229428,-0.369562135162,0.000327580031262,0.929205778787,0.0,0.0,0.0,0.0,0.0,0.0,0.0,0.0,0.0,0.00158274600217,-0.0154887617324,0.000961655509933,0.0,0.0,0.0,0.0,0.0,0.0,0.0,0.0,0.0,6.19723226063,-0.0240843676501,7.33410182229,0.0,0.0,0.0,0.0,0.0,0.0,0.0,0.0,0.0
28340000000,300,28340000000,imu_link,-0.000582606002175,-0.369590291136,0.000330626149623,0.929194580244,0.0,0.0,0.0,0.0,0.0,0.0,0.0,0.0,0.0,0.00142482287522,-0.015151822523,0.00106288917451,0.0,0.0,0.0,0.0,0.0,0.0,0.0,0.0,0.0,6.19856859568,-0.0242703116807,7.33319641565,0.0,0.0,0.0,0.0,0.0,0.0,0.0,0.0,0.0
28344000000,301,28344000000,imu_link,-0.000580814595455,-0.36961813789,0.000333794824212,0.929183503609,0.0,0.0,0.0,0.0,0.0,0.0,0.0,0.0,0.0,0.00141000830048,-0.0149856539528,0.0011348336319,0.0,0.0,0.0,0.0,0.0,0.0,0.0,0.0,0.0,6.20132810813,-0.0243419593696,7.33568041952,0.0,0.0,0.0,0.0,0.0,0.0,0.0,0.0,0.0
28348000000,302,28348000000,imu_link,-0.000579211615205,-0.369645789548,0.000337079537605,0.929172503446,0.0,0.0,0.0,0.0,0.0,0.0,0.0,0.0,0.0,0.00134396670935,-0.014880883345,0.00122361111786,0.0,0.0,0.0,0.0,0.0,0.0,0.0,0.0,0.0,6.20362066782,-0.0242957888341,7.33549852679,0.0,0.0,0.0,0.0,0.0,0.0,0.0,0.0,0.0
28352000000,303,28352000000,imu_link,-0.000578267167245,-0.369673406391,0.000340415226294,0.92916151574,0.0,0.0,0.0,0.0,0.0,0.0,0.0,0.0,0.0,0.00104745253782,-0.0148623107185,0.00136901336672,0.0,0.0,0.0,0.0,0.0,0.0,0.0,0.0,0.0,6.20553787247,-0.0241873467196,7.33502258801,0.0,0.0,0.0,0.0,0.0,0.0,0.0,0.0,0.0
28356000000,304,28356000000,imu_link,-0.000578281004575,-0.369701092904,0.000343753677313,0.929150498751,0.0,0.0,0.0,0.0,0.0,0.0,0.0,0.0,0.0,0.000602741886804,-0.0148999278371,0.00154740782639,0.0,0.0,0.0,0.0,0.0,0.0,0.0,0.0,0.0,6.20772533846,-0.0241811520105,7.33485155934,0.0,0.0,0.0,0.0,0.0,0.0,0.0,0.0,0.0
28360000000,305,28360000000,imu_link,-0.000579065388835,-0.369728884483,0.000347127397247,0.929139438494,0.0,0.0,0.0,0.0,0.0,0.0,0.0,0.0,0.0,0.000251253763294,-0.0149566148106,0.00170620597059,0.0,0.0,0.0,0.0,0.0,0.0,0.0,0.0,0.0,6.20946362608,-0.0243011211074,7.33301219504,0.0,0.0,0.0,0.0,0.0,0.0,0.0,0.0,0.0
28364000000,306,28364000000,imu_link,-0.000579919524844,-0.36975655219,0.00035065811484,0.929128426454,0.0,0.0,0.0,0.0,0.0,0.0,0.0,0.0,0.0,0.000247907957287,-0.0148901875087,0.00179206444341,0.0,0.0,0.0,0.0,0.0,0.0,0.0,0.0,0.0,6.21371377544,-0.0244857835835,7.33449971145,0.0,0.0,0.0,0.0,0.0,0.0,0.0,0.0,0.0
28368000000,307,28368000000,imu_link,-0.000580257662755,-0.369783648103,0.000354427467523,0.929117641248,0.0,0.0,0.0,0.0,0.0,0.0,0.0,0.0,0.0,0.000531906676762,-0.0145827756837,0.00180765495378,0.0,0.0,0.0,0.0,0.0,0.0,0.0,0.0,0.0,6.21642800409,-0.0245882173448,7.33084649427,0.0,0.0,0.0,0.0,0.0,0.0,0.0,0.0,0.0
28372000000,308,28372000000,imu_link,-0.000580002564051,-0.369809729755,0.000358432639374,0.929107259094,0.0,0.0,0.0,0.0,0.0,0.0,0.0,0.0,0.0,0.000851397693329,-0.0140372443023,0.00180774506825,0.0,0.0,0.0,0.0,0.0,0.0,0.0,0.0,0.0,6.21817342714,-0.0245668636892,7.32553330591,0.0,0.0,0.0,0.0,0.0,0.0,0.0,0.0,0.0
28376000000,309,28376000000,imu_link,-0.000579462985877,-0.369834962583,0.000362560543242,0.929097214087,0.0,0.0,0.0,0.0,0.0,0.0,0.0,0.0,0.0,0.00100649730718,-0.0135806663427,0.00181234477278,0.0,0.0,0.0,0.0,0.0,0.0,0.0,0.0,0.0,6.21974579562,-0.0244859440843,7.32479476733,0.0,0.0,0.0,0.0,0.0,0.0,0.0,0.0,0.0
28380000000,310,28380000000,imu_link,-0.000579072501735,-0.369860108359,0.000366670270067,0.929087202836,0.0,0.0,0.0,0.0,0.0,0.0,0.0,0.0,0.0,0.000933900190083,-0.0135339518071,0.00183148984747,0.0,0.0,0.0,0.0,0.0,0.0,0.0,0.0,0.0,6.2226615679,-0.0244098983059,7.33180290835,0.0,0.0,0.0,0.0,0.0,0.0,0.0,0.0,0.0
28384000000,311,28384000000,imu_link,-0.000579024265176,-0.36988604173,0.000370658217423,0.929076877054,0.0,0.0,0.0,0.0,0.0,0.0,0.0,0.0,0.0,0.000752155119741,-0.0139578923193,0.00183803946592,0.0,0.0,0.0,0.0,0.0,0.0,0.0,0.0,0.0,6.22589328192,-0.0244344675018,7.34012746151,0.0,0.0,0.0,0.0,0.0,0.0,0.0,0.0,0.0
28388000000,312,28388000000,imu_link,-0.000579601357402,-0.369913128245,0.000374447894523,0.929066090977,0.0,0.0,0.0,0.0,0.0,0.0,0.0,0.0,0.0,0.00042465018965,-0.0145785272329,0.00186133696263,0.0,0.0,0.0,0.0,0.0,0.0,0.0,0.0,0.0,6.22780967394,-0.0244367109036,7.34144628008,0.0,0.0,0.0,0.0,0.0,0.0,0.0,0.0,0.0
28392000000,313,28392000000,imu_link,-0.000580905570956,-0.369941150958,0.000378046997476,0.929054930807,0.0,0.0,0.0,0.0,0.0,0.0,0.0,0.0,0.0,5.13466742777e-05,-0.0150824219402,0.00190709356411,0.0,0.0,0.0,0.0,0.0,0.0,0.0,0.0,0.0,6.22894394892,-0.0244819890541,7.33611405974,0.0,0.0,0.0,0.0,0.0,0.0,0.0,0.0,0.0
28396000000,314,28396000000,imu_link,-0.00058292778628,-0.369969748807,0.000381469971422,0.92904354023,0.0,0.0,0.0,0.0,0.0,0.0,0.0,0.0,0.0,-0.000314939188502,-0.0153920196411,0.00195796250608,0.0,0.0,0.0,0.0,0.0,0.0,0.0,0.0,0.0,6.23036492797,-0.0245176585408,7.33069134276,0.0,0.0,0.0,0.0,0.0,0.0,0.0,0.0,0.0
28400000000,315,28400000000,imu_link,-0.000585549065392,-0.369998587025,0.000384723549795,0.929032052579,0.0,0.0,0.0,0.0,0.0,0.0,0.0,0.0,0.0,-0.000624627119456,-0.0155214701972,0.0019900407712,0.0,0.0,0.0,0.0,0.0,0.0,0.0,0.0,0.0,6.23220955547,-0.0245783199962,7.32676113707,0.0,0.0,0.0,0.0,0.0,0.0,0.0,0.0,0.0
28404000000,316,28404000000,imu_link,-0.000588625804213,-0.370027562091,0.000387803973341,0.92902050915,0.0,0.0,0.0,0.0,0.0,0.0,0.0,0.0,0.0,-0.00086827162928,-0.0155952188616,0.00199383796699,0.0,0.0,0.0,0.0,0.0,0.0,0.0,0.0,0.0,6.23262761067,-0.0246253676248,7.32178668856,0.0,0.0,0.0,0.0,0.0,0.0,0.0,0.0,0.0
28408000000,317,28408000000,imu_link,-0.00059215947288,-0.370056637046,0.000390682648706,0.929008924657,0.0,0.0,0.0,0.0,0.0,0.0,0.0,0.0,0.0,-0.00111787787601,-0.0156490678725,0.00198464075022,0.0,0.0,0.0,0.0,0.0,0.0,0.0,0.0,0.0,6.23452447161,-0.0246309589748,7.32022225539,0.0,0.0,0.0,0.0,0.0,0.0,0.0,0.0,0.0
28412000000,318,28412000000,imu_link,-0.000596208424456,-0.370085709411,0.000393348461379,0.928997339879,0.0,0.0,0.0,0.0,0.0,0.0,0.0,0.0,0.0,-0.00139661429178,-0.0156477535092,0.00198110783303,0.0,0.0,0.0,0.0,0.0,0.0,0.0,0.0,0.0,6.23553018251,-0.0245954964977,7.31560906735,0.0,0.0,0.0,0.0,0.0,0.0,0.0,0.0,0.0
28416000000,319,28416000000,imu_link,-0.000600829209677,-0.370114569395,0.000395806789908,0.928985838354,0.0,0.0,0.0,0.0,0.0,0.0,0.0,0.0,0.0,-0.0017005571294,-0.0155335233525,0.00199059239207,0.0,0.0,0.0,0.0,0.0,0.0,0.0,0.0,0.0,6.23630751914,-0.0246331154164,7.30995588727,0.0,0.0,0.0,0.0,0.0,0.0,0.0,0.0,0.0
28420000000,320,28420000000,imu_link,-0.000605965099111,-0.370142847371,0.000398072258077,0.928974567405,0.0,0.0,0.0,0.0,0.0,0.0,0.0,0.0,0.0,-0.0019753251541,-0.0152203550499,0.00199646311955,0.0,0.0,0.0,0.0,0.0,0.0,0.0,0.0,0.0,6.23768034571,-0.0247394706837,7.30452679566,0.0,0.0,0.0,0.0,0.0,0.0,0.0,0.0,0.0
28424000000,321,28424000000,imu_link,-0.000611533130122,-0.370170288518,0.000400174084228,0.928963628667,0.0,0.0,0.0,0.0,0.0,0.0,0.0,0.0,0.0,-0.00220606766862,-0.0147700398486,0.00200061796228,0.0,0.0,0.0,0.0,0.0,0.0,0.0,0.0,0.0,6.23945208022,-0.0248243577235,7.30108811328,0.0,0.0,0.0,0.0,0.0,0.0,0.0,0.0,0.0
28428000000,322,28428000000,imu_link,-0.000617330377157,-0.370197019308,0.000402192107737,0.92895297192,0.0,0.0,0.0,0.0,0.0,0.0,0.0,0.0,0.0,-0.00232781661167,-0.0143878287721,0.00200427842017,0.0,0.0,0.0,0.0,0.0,0.0,0.0,0.0,0.0,6.24104654368,-0.0249172702859,7.30041855994,0.0,0.0,0.0,0.0,0.0,0.0,0.0,0.0,0.0
28432000000,323,28432000000,imu_link,-0.000623251096035,-0.370223273405,0.000404167940291,0.92894250416,0.0,0.0,0.0,0.0,0.0,0.0,0.0,0.0,0.0,-0.00239282166687,-0.014131396759,0.00200764530252,0.0,0.0,0.0,0.0,0.0,0.0,0.0,0.0,0.0,6.24211716162,-0.0249574985744,7.29942491699,0.0,0.0,0.0,0.0,0.0,0.0,0.0,0.0,0.0
28436000000,324,28436000000,imu_link,-0.000629079415798,-0.370249248209,0.000406121767328,0.92893214689,0.0,0.0,0.0,0.0,0.0,0.0,0.0,0.0,0.0,-0.00235388753972,-0.0139812318471,0.00198038492769,0.0,0.0,0.0,0.0,0.0,0.0,0.0,0.0,0.0,6.2444706002,-0.0249239336061,7.30084981208,0.0,0.0,0.0,0.0,0.0,0.0,0.0,0.0,0.0
28440000000,325,28440000000,imu_link,-0.000634524528977,-0.370275029364,0.000408094438113,0.92892186618,0.0,0.0,0.0,0.0,0.0,0.0,0.0,0.0,0.0,-0.0021723492371,-0.0138771995105,0.00191824159755,0.0,0.0,0.0,0.0,0.0,0.0,0.0,0.0,0.0,6.24554874611,-0.0248120604421,7.29851108876,0.0,0.0,0.0,0.0,0.0,0.0,0.0,0.0,0.0
28444000000,326,28444000000,imu_link,-0.000639177869052,-0.370300554157,0.00041013947041,0.928911687314,0.0,0.0,0.0,0.0,0.0,0.0,0.0,0.0,0.0,-0.00179112010967,-0.0137394582432,0.00180532434197,0.0,0.0,0.0,0.0,0.0,0.0,0.0,0.0,0.0,6.24758549204,-0.0246984803644,7.29732912602,0.0,0.0,0.0,0.0,0.0,0.0,0.0,0.0,0.0
28448000000,327,28448000000,imu_link,-0.000642878692306,-0.370325845105,0.000412280542309,0.928901601451,0.0,0.0,0.0,0.0,0.0,0.0,0.0,0.0,0.0,-0.00133085867001,-0.0136138542484,0.00167362740478,0.0,0.0,0.0,0.0,0.0,0.0,0.0,0.0,0.0,6.24900673359,-0.0245159667751,7.29534917603,0.0,0.0,0.0,0.0,0.0,0.0,0.0,0.0,0.0
28452000000,328,28452000000,imu_link,-0.000645887895069,-0.370351077602,0.0004145003427,0.928891538522,0.0,0.0,0.0,0.0,0.0,0.0,0.0,0.0,0.0,-0.000995037960272,-0.0135826278621,0.00158214450539,0.0,0.0,0.0,0.0,0.0,0.0,0.0,0.0,0.0,6.25058072228,-0.0242605104669,7.29513080524,0.0,0.0,0.0,0.0,0.0,0.0,0.0,0.0,0.0
28456000000,329,28456000000,imu_link,-0.000648952057157,-0.370376404886,0.00041671786698,0.928881436951,0.0,0.0,0.0,0.0,0.0,0.0,0.0,0.0,0.0,-0.00102101719066,-0.0136337948101,0.00159124189574,0.0,0.0,0.0,0.0,0.0,0.0,0.0,0.0,0.0,6.25332485901,-0.0239651102898,7.29702788403,0.0,0.0,0.0,0.0,0.0,0.0,0.0,0.0,0.0
28460000000,330,28460000000,imu_link,-0.000652656247606,-0.37040191347,0.000418867905188,0.928871261848,0.0,0.0,0.0,0.0,0.0,0.0,0.0,0.0,0.0,-0.00133083168145,-0.0137314602632,0.00167838081074,0.0,0.0,0.0,0.0,0.0,0.0,0.0,0.0,0.0,6.25566655966,-0.023846073742,7.29750831861,0.0,0.0,0.0,0.0,0.0,0.0,0.0,0.0,0.0
28464000000,331,28464000000,imu_link,-0.000657411045077,-0.370427400738,0.000420861495487,0.928861093743,0.0,0.0,0.0,0.0,0.0,0.0,0.0,0.0,0.0,-0.00184773857121,-0.013719992724,0.00180029974403,0.0,0.0,0.0,0.0,0.0,0.0,0.0,0.0,0.0,6.258055021,-0.0238793388462,7.29585521877,0.0,0.0,0.0,0.0,0.0,0.0,0.0,0.0,0.0
28468000000,332,28468000000,imu_link,-0.000663330191953,-0.370452569004,0.000422655154893,0.928851051285,0.0,0.0,0.0,0.0,0.0,0.0,0.0,0.0,0.0,-0.00242541951394,-0.0135482562896,0.00192317760914,0.0,0.0,0.0,0.0,0.0,0.0,0.0,0.0,0.0,6.25983040551,-0.0240162687424,7.29210268065,0.0,0.0,0.0,0.0,0.0,0.0,0.0,0.0,0.0
28472000000,333,28472000000,imu_link,-0.00067023791178,-0.370477251896,0.000424250295467,0.928841200971,0.0,0.0,0.0,0.0,0.0,0.0,0.0,0.0,0.0,-0.00292114263266,-0.0132869716748,0.00201421046753,0.0,0.0,0.0,0.0,0.0,0.0,0.0,0.0,0.0,6.26092496102,-0.0242040245616,7.28801651512,0.0,0.0,0.0,0.0,0.0,0.0,0.0,0.0,0.0
28476000000,334,28476000000,imu_link,-0.000677901839857,-0.370501381149,0.000425674741976,0.928831570209,0.0,0.0,0.0,0.0,0.0,0.0,0.0,0.0,0.0,-0.00330376943872,-0.012988962836,0.00207515456719,0.0,0.0,0.0,0.0,0.0,0.0,0.0,0.0,0.0,6.26285859287,-0.0243769914125,7.2862236974,0.0,0.0,0.0,0.0,0.0,0.0,0.0,0.0,0.0
28480000000,335,28480000000,imu_link,-0.000686004458484,-0.370524949672,0.000427006045922,0.92882216206,0.0,0.0,0.0,0.0,0.0,0.0,0.0,0.0,0.0,-0.00352456417984,-0.0126871868704,0.00211330809682,0.0,0.0,0.0,0.0,0.0,0.0,0.0,0.0,0.0,6.26467004917,-0.0244550129641,7.2849074922,0.0,0.0,0.0,0.0,0.0,0.0,0.0,0.0,0.0
28484000000,336,28484000000,imu_link,-0.000694045933961,-0.370548094336,0.000428329100144,0.928812922293,0.0,0.0,0.0,0.0,0.0,0.0,0.0,0.0,0.0,-0.0034975487376,-0.0124591575142,0.00209825873762,0.0,0.0,0.0,0.0,0.0,0.0,0.0,0.0,0.0,6.26770700468,-0.0244944313564,7.2872689715,0.0,0.0,0.0,0.0,0.0,0.0,0.0,0.0,0.0
28488000000,337,28488000000,imu_link,-0.000701452779482,-0.370570905667,0.000429713601892,0.928803815229,0.0,0.0,0.0,0.0,0.0,0.0,0.0,0.0,0.0,-0.00319132041463,-0.0122799262897,0.00200930215897,0.0,0.0,0.0,0.0,0.0,0.0,0.0,0.0,0.0,6.27061518344,-0.0244667708314,7.28919408619,0.0,0.0,0.0,0.0,0.0,0.0,0.0,0.0,0.0
28492000000,338,28492000000,imu_link,-0.000707887678507,-0.370593347442,0.000431177645458,0.928794855613,0.0,0.0,0.0,0.0,0.0,0.0,0.0,0.0,0.0,-0.00272507754993,-0.0120812206291,0.00186625191674,0.0,0.0,0.0,0.0,0.0,0.0,0.0,0.0,0.0,6.27218326865,-0.0243399341565,7.28738474753,0.0,0.0,0.0,0.0,0.0,0.0,0.0,0.0,0.0
28496000000,339,28496000000,imu_link,-0.000713388017418,-0.370615307388,0.000432714218755,0.928786088271,0.0,0.0,0.0,0.0,0.0,0.0,0.0,0.0,0.0,-0.00227745878756,-0.0118220595242,0.00172689274523,0.0,0.0,0.0,0.0,0.0,0.0,0.0,0.0,0.0,6.27295059474,-0.0241155761987,7.28309423398,0.0,0.0,0.0,0.0,0.0,0.0,0.0,0.0,0.0
28500000000,340,28500000000,imu_link,-0.000718244362812,-0.370636660174,0.000434312344956,0.928777563054,0.0,0.0,0.0,0.0,0.0,0.0,0.0,0.0,0.0,-0.00196676872573,-0.011495392907,0.00163630474262,0.0,0.0,0.0,0.0,0.0,0.0,0.0,0.0,0.0,6.27487251524,-0.023854839091,7.28131783199,0.0,0.0,0.0,0.0,0.0,0.0,0.0,0.0,0.0
28504000000,341,28504000000,imu_link,-0.000722651021874,-0.370657401981,0.000435936029497,0.928769281411,0.0,0.0,0.0,0.0,0.0,0.0,0.0,0.0,0.0,-0.00175298285839,-0.0111666286168,0.00156500515199,0.0,0.0,0.0,0.0,0.0,0.0,0.0,0.0,0.0,6.27673754645,-0.023632144248,7.27990274963,0.0,0.0,0.0,0.0,0.0,0.0,0.0,0.0,0.0
28508000000,342,28508000000,imu_link,-0.000726646918022,-0.37067766247,0.0004375219282,0.928761191644,0.0,0.0,0.0,0.0,0.0,0.0,0.0,0.0,0.0,-0.00156905942849,-0.0109076281744,0.00147146392036,0.0,0.0,0.0,0.0,0.0,0.0,0.0,0.0,0.0,6.27914516513,-0.0235206321079,7.28127972017,0.0,0.0,0.0,0.0,0.0,0.0,0.0,0.0,0.0
28512000000,343,28512000000,imu_link,-0.000730264901124,-0.37069773963,0.000438994390099,0.92875317487,0.0,0.0,0.0,0.0,0.0,0.0,0.0,0.0,0.0,-0.00141452156233,-0.0108090063211,0.00134879474854,0.0,0.0,0.0,0.0,0.0,0.0,0.0,0.0,0.0,6.28066907197,-0.0234566239716,7.28206496649,0.0,0.0,0.0,0.0,0.0,0.0,0.0,0.0,0.0
28516000000,344,28516000000,imu_link,-0.00073326397185,-0.370717965553,0.000440328344747,0.928745098749,0.0,0.0,0.0,0.0,0.0,0.0,0.0,0.0,0.0,-0.00115283963018,-0.0108891737831,0.00116971922159,0.0,0.0,0.0,0.0,0.0,0.0,0.0,0.0,0.0,6.28264331123,-0.0234385081459,7.28412025574,0.0,0.0,0.0,0.0,0.0,0.0,0.0,0.0,0.0
28520000000,345,28520000000,imu_link,-0.000735367301555,-0.370738748538,0.000441538275908,0.928736800505,0.0,0.0,0.0,0.0,0.0,0.0,0.0,0.0,0.0,-0.000760075039227,-0.0111891825339,0.000945937141868,0.0,0.0,0.0,0.0,0.0,0.0,0.0,0.0,0.0,6.28468542345,-0.0233971514823,7.28674853849,0.0,0.0,0.0,0.0,0.0,0.0,0.0,0.0,0.0
28524000000,346,28524000000,imu_link,-0.000736582351018,-0.370760264367,0.000442659698322,0.928728209901,0.0,0.0,0.0,0.0,0.0,0.0,0.0,0.0,0.0,-0.000364261859766,-0.0115838500794,0.000739971612733,0.0,0.0,0.0,0.0,0.0,0.0,0.0,0.0,0.0,6.2859014929,-0.0232461550832,7.28568191361,0.0,0.0,0.0,0.0,0.0,0.0,0.0,0.0,0.0
28528000000,347,28528000000,imu_link,-0.000737169379123,-0.370782451536,0.000443694194318,0.928719351231,0.0,0.0,0.0,0.0,0.0,0.0,0.0,0.0,0.0,-8.89930287256e-05,-0.0119453971567,0.000582995504824,0.0,0.0,0.0,0.0,0.0,0.0,0.0,0.0,0.0,6.28745214936,-0.0230179909954,7.28361671042,0.0,0.0,0.0,0.0,0.0,0.0,0.0,0.0,0.0
28532000000,348,28532000000,imu_link,-0.000737583149603,-0.37080525725,0.00044463590309,0.92871024516,0.0,0.0,0.0,0.0,0.0,0.0,0.0,0.0,0.0,-2.59695220976e-05,-0.0122784948993,0.000507615315046,0.0,0.0,0.0,0.0,0.0,0.0,0.0,0.0,0.0,6.28907759429,-0.0227682398323,7.28136705376,0.0,0.0,0.0,0.0,0.0,0.0,0.0,0.0,0.0
28536000000,349,28536000000,imu_link,-0.000738200032122,-0.370828762311,0.000445450344543,0.928700859092,0.0,0.0,0.0,0.0,0.0,0.0,0.0,0.0,0.0,-0.000144140071532,-0.0126550607052,0.000485979924397,0.0,0.0,0.0,0.0,0.0,0.0,0.0,0.0,0.0,6.29136006517,-0.0226239013793,7.28178257238,0.0,0.0,0.0,0.0,0.0,0.0,0.0,0.0,0.0
28540000000,350,28540000000,imu_link,-0.000739210983185,-0.37085317426,0.000446084876958,0.928691109959,0.0,0.0,0.0,0.0,0.0,0.0,0.0,0.0,0.0,-0.000360819686211,-0.0131433374936,0.000475251192032,0.0,0.0,0.0,0.0,0.0,0.0,0.0,0.0,0.0,6.29342606578,-0.0225710038348,7.28266250243,0.0,0.0,0.0,0.0,0.0,0.0,0.0,0.0,0.0
28544000000,351,28544000000,imu_link,-0.00074060252292,-0.370878475906,0.000446558830574,0.928681004545,0.0,0.0,0.0,0.0,0.0,0.0,0.0,0.0,0.0,-0.000567650046541,-0.0136223839081,0.000471009027619,0.0,0.0,0.0,0.0,0.0,0.0,0.0,0.0,0.0,6.29398991195,-0.022581764649,7.27873688667,0.0,0.0,0.0,0.0,0.0,0.0,0.0,0.0,0.0
28548000000,352,28548000000,imu_link,-0.000742227444918,-0.37090456545,0.000446936118879,0.928670583509,0.0,0.0,0.0,0.0,0.0,0.0,0.0,0.0,0.0,-0.000694237221808,-0.0140466776858,0.000469180350065,0.0,0.0,0.0,0.0,0.0,0.0,0.0,0.0,0.0,6.29673538525,-0.0226005260939,7.27807136447,0.0,0.0,0.0,0.0,0.0,0.0,0.0,0.0,0.0
28552000000,353,28552000000,imu_link,-0.000743891843664,-0.370931474667,0.00044729390443,0.928659834199,0.0,0.0,0.0,0.0,0.0,0.0,0.0,0.0,0.0,-0.000716489497597,-0.0144881442314,0.000467214752893,0.0,0.0,0.0,0.0,0.0,0.0,0.0,0.0,0.0,6.29952979276,-0.0226476682642,7.27890533384,0.0,0.0,0.0,0.0,0.0,0.0,0.0,0.0,0.0
28556000000,354,28556000000,imu_link,-0.000745449093995,-0.370959334243,0.000447672630731,0.928648704426,0.0,0.0,0.0,0.0,0.0,0.0,0.0,0.0,0.0,-0.000663207547597,-0.0150000187479,0.000456797417106,0.0,0.0,0.0,0.0,0.0,0.0,0.0,0.0,0.0,6.30124394686,-0.0226783775119,7.27840860006,0.0,0.0,0.0,0.0,0.0,0.0,0.0,0.0,0.0
28560000000,355,28560000000,imu_link,-0.000746794044277,-0.370988132713,0.000448070330279,0.928637198758,0.0,0.0,0.0,0.0,0.0,0.0,0.0,0.0,0.0,-0.000561462577088,-0.0155057457245,0.000425964005305,0.0,0.0,0.0,0.0,0.0,0.0,0.0,0.0,0.0,6.30279889857,-0.0226779495082,7.27672156045,0.0,0.0,0.0,0.0,0.0,0.0,0.0,0.0,0.0
28564000000,356,28564000000,imu_link,-0.000747834078936,-0.371017610313,0.000448468030757,0.928625420963,0.0,0.0,0.0,0.0,0.0,0.0,0.0,0.0,0.0,-0.000420138170655,-0.0158716245947,0.000369211779668,0.0,0.0,0.0,0.0,0.0,0.0,0.0,0.0,0.0,6.30370125341,-0.0226540460834,7.27159655415,0.0,0.0,0.0,0.0,0.0,0.0,0.0,0.0,0.0
28568000000,357,28568000000,imu_link,-0.000748386914461,-0.371047387153,0.000448849414019,0.928613522914,0.0,0.0,0.0,0.0,0.0,0.0,0.0,0.0,0.0,-0.000197064471056,-0.0160329766023,0.000271170833536,0.0,0.0,0.0,0.0,0.0,0.0,0.0,0.0,0.0,6.30718030976,-0.022644263196,7.27102040811,0.0,0.0,0.0,0.0,0.0,0.0,0.0,0.0,0.0
28572000000,358,28572000000,imu_link,-0.000748501319568,-0.371077151621,0.00044918118771,0.928601629079,0.0,0.0,0.0,0.0,0.0,0.0,0.0,0.0,0.0,-2.69766182394e-06,-0.0160265302874,0.000166801227259,0.0,0.0,0.0,0.0,0.0,0.0,0.0,0.0,0.0,6.30798043496,-0.0224931672715,7.2658370492,0.0,0.0,0.0,0.0,0.0,0.0,0.0,0.0,0.0
28576000000,359,28576000000,imu_link,-0.000748189012085,-0.371106869376,0.000449439591126,0.928589753185,0.0,0.0,0.0,0.0,0.0,0.0,0.0,0.0,0.0,0.000181829531601,-0.016001581198,5.35771555064e-05,0.0,0.0,0.0,0.0,0.0,0.0,0.0,0.0,0.0,6.30872519666,-0.0223374759159,7.26263981982,0.0,0.0,0.0,0.0,0.0,0.0,0.0,0.0,0.0
28580000000,360,28580000000,imu_link,-0.000747622680203,-0.371136747442,0.000449589153233,0.928577812371,0.0,0.0,0.0,0.0,0.0,0.0,0.0,0.0,0.0,0.000279515568468,-0.0160880752418,-4.41377889843e-05,0.0,0.0,0.0,0.0,0.0,0.0,0.0,0.0,0.0,6.30994428109,-0.0221771748571,7.26253920908,0.0,0.0,0.0,0.0,0.0,0.0,0.0,0.0,0.0
28584000000,361,28584000000,imu_link,-0.000746935310373,-0.371166942859,0.00044960426337,0.928565743754,0.0,0.0,0.0,0.0,0.0,0.0,0.0,0.0,0.0,0.000310642997899,-0.0162591109654,-0.000129113062156,0.0,0.0,0.0,0.0,0.0,0.0,0.0,0.0,0.0,6.31112468896,-0.0220645817204,7.26202749406,0.0,0.0,0.0,0.0,0.0,0.0,0.0,0.0,0.0
28588000000,362,28588000000,imu_link,-0.00074604922827,-0.371197699111,0.00044950609891,0.928553450012,0.0,0.0,0.0,0.0,0.0,0.0,0.0,0.0,0.0,0.000381669656306,-0.0165612791167,-0.000218741076369,0.0,0.0,0.0,0.0,0.0,0.0,0.0,0.0,0.0,6.31323218858,-0.0220196251986,7.26434193545,0.0,0.0,0.0,0.0,0.0,0.0,0.0,0.0,0.0
28592000000,363,28592000000,imu_link,-0.000744782858424,-0.371229075805,0.000449334551463,0.928540907378,0.0,0.0,0.0,0.0,0.0,0.0,0.0,0.0,0.0,0.000544376317909,-0.0168955874904,-0.00032356755717,0.0,0.0,0.0,0.0,0.0,0.0,0.0,0.0,0.0,6.31464871009,-0.0219720508813,7.26333705129,0.0,0.0,0.0,0.0,0.0,0.0,0.0,0.0,0.0
28596000000,364,28596000000,imu_link,-0.000742996864856,-0.371260902391,0.000449112557294,0.928528184068,0.0,0.0,0.0,0.0,0.0,0.0,0.0,0.0,0.0,0.000776090255546,-0.0171380934746,-0.000443565141258,0.0,0.0,0.0,0.0,0.0,0.0,0.0,0.0,0.0,6.31602227271,-0.0218671561428,7.25971824677,0.0,0.0,0.0,0.0,0.0,0.0,0.0,0.0,0.0
28600000000,365,28600000000,imu_link,-0.000740662634958,-0.371292868377,0.000448853166392,0.928515404203,0.0,0.0,0.0,0.0,0.0,0.0,0.0,0.0,0.0,0.00102362241177,-0.0172134195906,-0.00056273554596,0.0,0.0,0.0,0.0,0.0,0.0,0.0,0.0,0.0,6.31647205431,-0.0217791527027,7.25331133003,0.0,0.0,0.0,0.0,0.0,0.0,0.0,0.0,0.0
28604000000,366,28604000000,imu_link,-0.000737836604439,-0.371324558995,0.000448568686457,0.928502733583,0.0,0.0,0.0,0.0,0.0,0.0,0.0,0.0,0.0,0.00124738920515,-0.017065397595,-0.000665606894209,0.0,0.0,0.0,0.0,0.0,0.0,0.0,0.0,0.0,6.31934389183,-0.0217316545665,7.25123297608,0.0,0.0,0.0,0.0,0.0,0.0,0.0,0.0,0.0
28608000000,367,28608000000,imu_link,-0.000734563923156,-0.371355643008,0.000448270059829,0.928490304675,0.0,0.0,0.0,0.0,0.0,0.0,0.0,0.0,0.0,0.00145234615023,-0.0167389986726,-0.000754931139633,0.0,0.0,0.0,0.0,0.0,0.0,0.0,0.0,0.0,6.3216898831,-0.0216811086769,7.24905095526,0.0,0.0,0.0,0.0,0.0,0.0,0.0,0.0,0.0
28612000000,368,28612000000,imu_link,-0.000731069803289,-0.371385756306,0.000447961448615,0.928478263009,0.0,0.0,0.0,0.0,0.0,0.0,0.0,0.0,0.0,0.00155365382126,-0.0162164930156,-0.000800412937452,0.0,0.0,0.0,0.0,0.0,0.0,0.0,0.0,0.0,6.32314627978,-0.0216071220083,7.2450354269,0.0,0.0,0.0,0.0,0.0,0.0,0.0,0.0,0.0
28616000000,369,28616000000,imu_link,-0.000727535131295,-0.371414522175,0.000447610586744,0.928466759262,0.0,0.0,0.0,0.0,0.0,0.0,0.0,0.0,0.0,0.00156513248579,-0.0154910694176,-0.000827185538118,0.0,0.0,0.0,0.0,0.0,0.0,0.0,0.0,0.0,6.32442282324,-0.0215077176725,7.24060910135,0.0,0.0,0.0,0.0,0.0,0.0,0.0,0.0,0.0
28620000000,370,28620000000,imu_link,-0.000723973307255,-0.371441662465,0.000447198675296,0.928455904856,0.0,0.0,0.0,0.0,0.0,0.0,0.0,0.0,0.0,0.00156700004368,-0.0146158178944,-0.000860123114298,0.0,0.0,0.0,0.0,0.0,0.0,0.0,0.0,0.0,6.32510075998,-0.0214398308806,7.23572468503,0.0,0.0,0.0,0.0,0.0,0.0,0.0,0.0,0.0
28624000000,371,28624000000,imu_link,-0.000720215464554,-0.371467277351,0.000446730457798,0.928445660003,0.0,0.0,0.0,0.0,0.0,0.0,0.0,0.0,0.0,0.00164810190922,-0.0137944990839,-0.000922250825366,0.0,0.0,0.0,0.0,0.0,0.0,0.0,0.0,0.0,6.32641811728,-0.0214024612323,7.23541115967,0.0,0.0,0.0,0.0,0.0,0.0,0.0,0.0,0.0
28628000000,372,28628000000,imu_link,-0.000716216459779,-0.371491583515,0.000446240329437,0.928435938167,0.0,0.0,0.0,0.0,0.0,0.0,0.0,0.0,0.0,0.00175646593018,-0.013089865235,-0.000976859800837,0.0,0.0,0.0,0.0,0.0,0.0,0.0,0.0,0.0,6.32786624719,-0.0213341508832,7.23630796965,0.0,0.0,0.0,0.0,0.0,0.0,0.0,0.0,0.0
28632000000,373,28632000000,imu_link,-0.000712118028147,-0.371514837651,0.000445780388035,0.928426636613,0.0,0.0,0.0,0.0,0.0,0.0,0.0,0.0,0.0,0.00180861399967,-0.0125234620361,-0.000981031625773,0.0,0.0,0.0,0.0,0.0,0.0,0.0,0.0,0.0,6.33001307404,-0.0212373594023,7.23894585408,0.0,0.0,0.0,0.0,0.0,0.0,0.0,0.0,0.0
28636000000,374,28636000000,imu_link,-0.000708400148893,-0.371537507851,0.000445319919381,0.928417567757,0.0,0.0,0.0,0.0,0.0,0.0,0.0,0.0,0.0,0.00163207158436,-0.0122090807548,-0.000910429905372,0.0,0.0,0.0,0.0,0.0,0.0,0.0,0.0,0.0,6.33297949721,-0.0211146133247,7.2449648775,0.0,0.0,0.0,0.0,0.0,0.0,0.0,0.0,0.0
28640000000,375,28640000000,imu_link,-0.000705272804193,-0.371559855723,0.000444807565968,0.928408626819,0.0,0.0,0.0,0.0,0.0,0.0,0.0,0.0,0.0,0.00134841876759,-0.0120355403216,-0.00082472671212,0.0,0.0,0.0,0.0,0.0,0.0,0.0,0.0,0.0,6.33468024383,-0.0210779462272,7.24624425561,0.0,0.0,0.0,0.0,0.0,0.0,0.0,0.0,0.0
28644000000,376,28644000000,imu_link,-0.000702452438035,-0.371581802106,0.00044421835104,0.928399845742,0.0,0.0,0.0,0.0,0.0,0.0,0.0,0.0,0.0,0.00119178434393,-0.0118193730549,-0.000803269681867,0.0,0.0,0.0,0.0,0.0,0.0,0.0,0.0,0.0,6.33595276357,-0.0212213691048,7.24420838509,0.0,0.0,0.0,0.0,0.0,0.0,0.0,0.0,0.0
28648000000,377,28648000000,imu_link,-0.00069943944532,-0.371603098506,0.000443561528914,0.928391324399,0.0,0.0,0.0,0.0,0.0,0.0,0.0,0.0,0.0,0.00126887636627,-0.0114694137002,-0.000870270597264,0.0,0.0,0.0,0.0,0.0,0.0,0.0,0.0,0.0,6.33836798812,-0.0214081270097,7.24318563387,0.0,0.0,0.0,0.0,0.0,0.0,0.0,0.0,0.0
28652000000,378,28652000000,imu_link,-0.000695993914659,-0.371623509874,0.000442858415119,0.928383157095,0.0,0.0,0.0,0.0,0.0,0.0,0.0,0.0,0.0,0.00146137763889,-0.0109928844028,-0.000971894215882,0.0,0.0,0.0,0.0,0.0,0.0,0.0,0.0,0.0,6.33941241479,-0.0214510181434,7.23951033895,0.0,0.0,0.0,0.0,0.0,0.0,0.0,0.0,0.0
28656000000,379,28656000000,imu_link,-0.000692141310064,-0.371643045253,0.000442104146306,0.928375340258,0.0,0.0,0.0,0.0,0.0,0.0,0.0,0.0,0.0,0.0016411486581,-0.010521209092,-0.00107105182832,0.0,0.0,0.0,0.0,0.0,0.0,0.0,0.0,0.0,6.33911769122,-0.0213963134677,7.23507491888,0.0,0.0,0.0,0.0,0.0,0.0,0.0,0.0,0.0
28660000000,380,28660000000,imu_link,-0.000688173400287,-0.37166203917,0.000441254803633,0.928367739827,0.0,0.0,0.0,0.0,0.0,0.0,0.0,0.0,0.0,0.00167719971544,-0.0102296487832,-0.00113647057917,0.0,0.0,0.0,0.0,0.0,0.0,0.0,0.0,0.0,6.34070265998,-0.0212854057267,7.23681274011,0.0,0.0,0.0,0.0,0.0,0.0,0.0,0.0,0.0
28664000000,381,28664000000,imu_link,-0.000684382499712,-0.371680892354,0.000440251209517,0.928360195214,0.0,0.0,0.0,0.0,0.0,0.0,0.0,0.0,0.0,0.00156642045189,-0.0101538584728,-0.00117514170204,0.0,0.0,0.0,0.0,0.0,0.0,0.0,0.0,0.0,6.34212229142,-0.0211501788575,7.23879504256,0.0,0.0,0.0,0.0,0.0,0.0,0.0,0.0,0.0
28668000000,382,28668000000,imu_link,-0.000680875393796,-0.371700017183,0.000439087272356,0.928352541246,0.0,0.0,0.0,0.0,0.0,0.0,0.0,0.0,0.0,0.00140479317977,-0.0103001553186,-0.00119689810743,0.0,0.0,0.0,0.0,0.0,0.0,0.0,0.0,0.0,6.34432623181,-0.0210713446245,7.24202885343,0.0,0.0,0.0,0.0,0.0,0.0,0.0,0.0,0.0
28672000000,383,28672000000,imu_link,-0.000677502719816,-0.37171977892,0.000437822816665,0.92834463173,0.0,0.0,0.0,0.0,0.0,0.0,0.0,0.0,0.0,0.0013234848682,-0.0106432229364,-0.00121873297205,0.0,0.0,0.0,0.0,0.0,0.0,0.0,0.0,0.0,6.34514941825,-0.0210576200684,7.24205233246,0.0,0.0,0.0,0.0,0.0,0.0,0.0,0.0,0.0
