%time,field.header.seq,field.header.stamp,field.header.frame_id,field.orientation.x,field.orientation.y,field.orientation.z,field.orientation.w,field.orientation_covariance0,field.orientation_covariance1,field.orientation_covariance2,field.orientation_covariance3,field.orientation_covariance4,field.orientation_covariance5,field.orientation_covariance6,field.orientation_covariance7,field.orientation_covariance8,field.angular_velocity.x,field.angular_velocity.y,field.angular_velocity.z,field.angular_velocity_covariance0,field.angular_velocity_covariance1,field.angular_velocity_covariance2,field.angular_velocity_covariance3,field.angular_velocity_covariance4,field.angular_velocity_covariance5,field.angular_velocity_covariance6,field.angular_velocity_covariance7,field.angular_velocity_covariance8,field.linear_acceleration.x,field.linear_acceleration.y,field.linear_acceleration.z,field.linear_acceleration_covariance0,field.linear_acceleration_covariance1,field.linear_acceleration_covariance2,field.linear_acceleration_covariance3,field.linear_acceleration_covariance4,field.linear_acceleration_covariance5,field.linear_acceleration_covariance6,field.linear_acceleration_covariance7,field.linear_acceleration_covariance8
24928000000,0,24928000000,imu_link,0.000407749208207,-0.376935206828,0.000657886711,0.926239305352,0.0,0.0,0.0,0.0,0.0,0.0,0.0,0.0,0.0,-0.0010545224858,-0.00847837257319,0.00198572231928,0.0,0.0,0.0,0.0,0.0,0.0,0.0,0.0,0.0,6.64148077005,-0.00183267803301,6.9998748134,0.0,0.0,0.0,0.0,0.0,0.0,0.0,0.0,0.0
24932000000,1,24932000000,imu_link,0.000403740487757,-0.376950237109,0.000660698588192,0.926233188357,0.0,0.0,0.0,0.0,0.0,0.0,0.0,0.0,0.0,-0.00133026647827,-0.00811178176279,0.0020628259621,0.0,0.0,0.0,0.0,0.0,0.0,0.0,0.0,0.0,6.64253550596,-0.00187666166109,7.0020213061,0.0,0.0,0.0,0.0,0.0,0.0,0.0,0.0,0.0
24936000000,2,24936000000,imu_link,0.000399096220884,-0.376964964662,0.000663466344216,0.926227194565,0.0,0.0,0.0,0.0,0.0,0.0,0.0,0.0,0.0,-0.00163283918041,-0.00794816200424,0.00216207559265,0.0,0.0,0.0,0.0,0.0,0.0,0.0,0.0,0.0,6.64366741407,-0.00199839932233,7.00585028681,0.0,0.0,0.0,0.0,0.0,0.0,0.0,0.0,0.0
24940000000,3,24940000000,imu_link,0.000393904620644,-0.376979725169,0.000666203198335,0.926221187311,0.0,0.0,0.0,0.0,0.0,0.0,0.0,0.0,0.0,-0.00189214941835,-0.00796578500707,0.00225093829366,0.0,0.0,0.0,0.0,0.0,0.0,0.0,0.0,0.0,6.64380164867,-0.00215773824861,7.00754760997,0.0,0.0,0.0,0.0,0.0,0.0,0.0,0.0,0.0
24944000000,4,24944000000,imu_link,0.000388586731763,-0.376994847139,0.000668947500746,0.926215032668,0.0,0.0,0.0,0.0,0.0,0.0,0.0,0.0,0.0,-0.00194932247414,-0.00816092072556,0.00227831209218,0.0,0.0,0.0,0.0,0.0,0.0,0.0,0.0,0.0,6.64600328682,-0.00232722220158,7.01317754666,0.0,0.0,0.0,0.0,0.0,0.0,0.0,0.0,0.0
24948000000,5,24948000000,imu_link,0.0003836257619,-0.377010488486,0.000671694607002,0.926208666138,0.0,0.0,0.0,0.0,0.0,0.0,0.0,0.0,0.0,-0.00178363462587,-0.00844150656698,0.00221250404056,0.0,0.0,0.0,0.0,0.0,0.0,0.0,0.0,0.0,6.64654861219,-0.00243622908456,7.01419319955,0.0,0.0,0.0,0.0,0.0,0.0,0.0,0.0,0.0
24952000000,6,24952000000,imu_link,0.000379325735182,-0.377026562295,0.000674437623822,0.926202122957,0.0,0.0,0.0,0.0,0.0,0.0,0.0,0.0,0.0,-0.00147843122882,-0.00867530436268,0.00208616123532,0.0,0.0,0.0,0.0,0.0,0.0,0.0,0.0,0.0,6.64716448096,-0.00244737390931,7.01307050422,0.0,0.0,0.0,0.0,0.0,0.0,0.0,0.0,0.0
24956000000,7,24956000000,imu_link,0.000375736098956,-0.377042675585,0.000677189253268,0.926195563056,0.0,0.0,0.0,0.0,0.0,0.0,0.0,0.0,0.0,-0.00114783518631,-0.00869697751865,0.00195624483534,0.0,0.0,0.0,0.0,0.0,0.0,0.0,0.0,0.0,6.6484501848,-0.00233909166661,7.0098508713,0.0,0.0,0.0,0.0,0.0,0.0,0.0,0.0,0.0
24960000000,8,24960000000,imu_link,0.000372712310005,-0.377058327419,0.000679960541491,0.926189190427,0.0,0.0,0.0,0.0,0.0,0.0,0.0,0.0,0.0,-0.000881965405394,-0.00844816197646,0.00185852438434,0.0,0.0,0.0,0.0,0.0,0.0,0.0,0.0,0.0,6.64940894186,-0.00217102357656,7.0054693164,0.0,0.0,0.0,0.0,0.0,0.0,0.0,0.0,0.0
24964000000,9,24964000000,imu_link,0.000370146269666,-0.377073129321,0.000682764507671,0.926183163293,0.0,0.0,0.0,0.0,0.0,0.0,0.0,0.0,0.0,-0.000663599174876,-0.00798957649062,0.00178708255441,0.0,0.0,0.0,0.0,0.0,0.0,0.0,0.0,0.0,6.64982405773,-0.00203784578348,7.00132252204,0.0,0.0,0.0,0.0,0.0,0.0,0.0,0.0,0.0
24972000000,10,24972000000,imu_link,0.000367033409108,-0.377100666465,0.000688593899655,0.926171948656,0.0,0.0,0.0,0.0,0.0,0.0,0.0,0.0,0.0,4.49285963588e-05,-0.00731341903333,0.00158822232297,0.0,0.0,0.0,0.0,0.0,0.0,0.0,0.0,0.0,6.65011941394,-0.00197005437902,7.00143516618,0.0,0.0,0.0,0.0,0.0,0.0,0.0,0.0,0.0
24976000000,11,24976000000,imu_link,0.000366681900971,-0.377114244007,0.000691623967358,0.926166418182,0.0,0.0,0.0,0.0,0.0,0.0,0.0,0.0,0.0,0.000404882015343,-0.00732966488062,0.00147385466211,0.0,0.0,0.0,0.0,0.0,0.0,0.0,0.0,0.0,6.65146830372,-0.0017629722407,7.00758306147,0.0,0.0,0.0,0.0,0.0,0.0,0.0,0.0,0.0
24980000000,12,24980000000,imu_link,0.000366676422137,-0.377127947584,0.000694635004136,0.926160836022,0.0,0.0,0.0,0.0,0.0,0.0,0.0,0.0,0.0,0.000561499850141,-0.00739789855373,0.00139983645162,0.0,0.0,0.0,0.0,0.0,0.0,0.0,0.0,0.0,6.65238875421,-0.00162225479324,7.00852061062,0.0,0.0,0.0,0.0,0.0,0.0,0.0,0.0,0.0
24984000000,13,24984000000,imu_link,0.000366451747828,-0.37714172665,0.000697547633661,0.926155223038,0.0,0.0,0.0,0.0,0.0,0.0,0.0,0.0,0.0,0.000441418088402,-0.00743861008749,0.00139562289568,0.0,0.0,0.0,0.0,0.0,0.0,0.0,0.0,0.0,6.65374246298,-0.00156098415361,7.00911151588,0.0,0.0,0.0,0.0,0.0,0.0,0.0,0.0,0.0
24988000000,14,24988000000,imu_link,0.000365650619376,-0.377155404038,0.000700328846339,0.926149651538,0.0,0.0,0.0,0.0,0.0,0.0,0.0,0.0,0.0,0.000149721554121,-0.00738352559389,0.00144343605237,0.0,0.0,0.0,0.0,0.0,0.0,0.0,0.0,0.0,6.65420111609,-0.0015898250977,7.00690506043,0.0,0.0,0.0,0.0,0.0,0.0,0.0,0.0,0.0
24992000000,15,24992000000,imu_link,0.000364219809361,-0.377168965093,0.00070296643349,0.926144127527,0.0,0.0,0.0,0.0,0.0,0.0,0.0,0.0,0.0,-0.000168920644974,-0.007320505339,0.00149563269157,0.0,0.0,0.0,0.0,0.0,0.0,0.0,0.0,0.0,6.65376866335,-0.00170971897303,7.00451336392,0.0,0.0,0.0,0.0,0.0,0.0,0.0,0.0,0.0
24996000000,16,24996000000,imu_link,0.000362257526089,-0.377182402954,0.000705445116662,0.926138653776,0.0,0.0,0.0,0.0,0.0,0.0,0.0,0.0,0.0,-0.000444963739087,-0.00725382122534,0.00152223620682,0.0,0.0,0.0,0.0,0.0,0.0,0.0,0.0,0.0,6.65373387088,-0.00186374715467,7.00290326086,0.0,0.0,0.0,0.0,0.0,0.0,0.0,0.0,0.0
25000000000,17,25000000000,imu_link,0.000359877808114,-0.377195744489,0.000707761081435,0.926133219306,0.0,0.0,0.0,0.0,0.0,0.0,0.0,0.0,0.0,-0.000668925343626,-0.00720169020959,0.00152557951654,0.0,0.0,0.0,0.0,0.0,0.0,0.0,0.0,0.0,6.65337069857,-0.00199580488832,7.00083001538,0.0,0.0,0.0,0.0,0.0,0.0,0.0,0.0,0.0
25004000000,18,25004000000,imu_link,0.000357076639841,-0.377209060393,0.000709933970639,0.926127795311,0.0,0.0,0.0,0.0,0.0,0.0,0.0,0.0,0.0,-0.000891061466528,-0.0071877222918,0.00153880230888,0.0,0.0,0.0,0.0,0.0,0.0,0.0,0.0,0.0,6.65388381906,-0.00205478049414,7.00084820033,0.0,0.0,0.0,0.0,0.0,0.0,0.0,0.0,0.0
25008000000,19,25008000000,imu_link,0.00035400039561,-0.377222444213,0.000712027496339,0.926122343582,0.0,0.0,0.0,0.0,0.0,0.0,0.0,0.0,0.0,-0.00103342668421,-0.00722431864427,0.00155395447675,0.0,0.0,0.0,0.0,0.0,0.0,0.0,0.0,0.0,6.65498163168,-0.00209370754044,7.00207463642,0.0,0.0,0.0,0.0,0.0,0.0,0.0,0.0,0.0
25012000000,20,25012000000,imu_link,0.000350913874431,-0.377235955941,0.000714088947035,0.926116839541,0.0,0.0,0.0,0.0,0.0,0.0,0.0,0.0,0.0,-0.0010442715239,-0.00729341716229,0.00154108139995,0.0,0.0,0.0,0.0,0.0,0.0,0.0,0.0,0.0,6.65595802848,-0.00214668250941,7.00290931639,0.0,0.0,0.0,0.0,0.0,0.0,0.0,0.0,0.0
25016000000,21,25016000000,imu_link,0.000348013367915,-0.377249383545,0.000716145704553,0.926111369457,0.0,0.0,0.0,0.0,0.0,0.0,0.0,0.0,0.0,-0.00095899700683,-0.00724812456318,0.00150379558977,0.0,0.0,0.0,0.0,0.0,0.0,0.0,0.0,0.0,6.65682921147,-0.00215669084192,7.00112712467,0.0,0.0,0.0,0.0,0.0,0.0,0.0,0.0,0.0
25020000000,22,25020000000,imu_link,0.000345394539834,-0.377262450291,0.000718206779905,0.926106046024,0.0,0.0,0.0,0.0,0.0,0.0,0.0,0.0,0.0,-0.000827646061334,-0.00705346551817,0.00145254817603,0.0,0.0,0.0,0.0,0.0,0.0,0.0,0.0,0.0,6.65780484799,-0.0021195367945,6.99890216308,0.0,0.0,0.0,0.0,0.0,0.0,0.0,0.0,0.0
25024000000,23,25024000000,imu_link,0.000343257667738,-0.377274892374,0.000720313773949,0.926100976625,0.0,0.0,0.0,0.0,0.0,0.0,0.0,0.0,0.0,-0.00059563273939,-0.00671646003727,0.0013826999155,0.0,0.0,0.0,0.0,0.0,0.0,0.0,0.0,0.0,6.65884541994,-0.00212335809851,6.99691794566,0.0,0.0,0.0,0.0,0.0,0.0,0.0,0.0,0.0
25028000000,24,25028000000,imu_link,0.000341701637263,-0.37728663783,0.000722485546323,0.92609619056,0.0,0.0,0.0,0.0,0.0,0.0,0.0,0.0,0.0,-0.000314251856495,-0.00634063677117,0.00130290546635,0.0,0.0,0.0,0.0,0.0,0.0,0.0,0.0,0.0,6.65903378716,-0.00213121574491,6.99538798795,0.0,0.0,0.0,0.0,0.0,0.0,0.0,0.0,0.0
25032000000,25,25032000000,imu_link,0.000340881496403,-0.377297764419,0.000724762120092,0.926091656092,0.0,0.0,0.0,0.0,0.0,0.0,0.0,0.0,0.0,4.64510858038e-05,-0.00600685809895,0.00121241627206,0.0,0.0,0.0,0.0,0.0,0.0,0.0,0.0,0.0,6.65970553601,-0.00212152614452,6.9959257105,0.0,0.0,0.0,0.0,0.0,0.0,0.0,0.0,0.0
25036000000,26,25036000000,imu_link,0.000340685290542,-0.377308710061,0.000727152775721,0.926087194866,0.0,0.0,0.0,0.0,0.0,0.0,0.0,0.0,0.0,0.000356936088283,-0.00590946065568,0.00114747937886,0.0,0.0,0.0,0.0,0.0,0.0,0.0,0.0,0.0,6.66138631102,-0.00203945797043,7.00153401425,0.0,0.0,0.0,0.0,0.0,0.0,0.0,0.0,0.0
25040000000,27,25040000000,imu_link,0.000340933449693,-0.377319938172,0.00072969491732,0.926082618111,0.0,0.0,0.0,0.0,0.0,0.0,0.0,0.0,0.0,0.000591191930453,-0.00606218650818,0.00113388271294,0.0,0.0,0.0,0.0,0.0,0.0,0.0,0.0,0.0,6.66342200077,-0.00196268599476,7.00794789213,0.0,0.0,0.0,0.0,0.0,0.0,0.0,0.0,0.0
25044000000,28,25044000000,imu_link,0.000341400905651,-0.37733174718,0.000732387283978,0.926077804304,0.0,0.0,0.0,0.0,0.0,0.0,0.0,0.0,0.0,0.000720905336377,-0.0063759427755,0.00116225610371,0.0,0.0,0.0,0.0,0.0,0.0,0.0,0.0,0.0,6.66339008421,-0.00190292654823,7.00902244009,0.0,0.0,0.0,0.0,0.0,0.0,0.0,0.0,0.0
25048000000,29,25048000000,imu_link,0.000342008655394,-0.377344326132,0.000735230092387,0.926072676415,0.0,0.0,0.0,0.0,0.0,0.0,0.0,0.0,0.0,0.000814021706733,-0.006791739127,0.0012056942815,0.0,0.0,0.0,0.0,0.0,0.0,0.0,0.0,0.0,6.66306482947,-0.00186903050551,7.00820827778,0.0,0.0,0.0,0.0,0.0,0.0,0.0,0.0,0.0
25052000000,30,25052000000,imu_link,0.000342443811863,-0.377357880826,0.000738172688198,0.926067150703,0.0,0.0,0.0,0.0,0.0,0.0,0.0,0.0,0.0,0.000752641185635,-0.00731852071783,0.00128477612323,0.0,0.0,0.0,0.0,0.0,0.0,0.0,0.0,0.0,6.66339504008,-0.00177433378721,7.00906975634,0.0,0.0,0.0,0.0,0.0,0.0,0.0,0.0,0.0
25056000000,31,25056000000,imu_link,0.00034239448431,-0.377372665546,0.00074114643103,0.926061123667,0.0,0.0,0.0,0.0,0.0,0.0,0.0,0.0,0.0,0.000533817455786,-0.00798246922075,0.00139100581095,0.0,0.0,0.0,0.0,0.0,0.0,0.0,0.0,0.0,6.66449828019,-0.0017482711665,7.01169605998,0.0,0.0,0.0,0.0,0.0,0.0,0.0,0.0,0.0
25060000000,32,25060000000,imu_link,0.000341913602925,-0.3773886946,0.000744128722108,0.926054589404,0.0,0.0,0.0,0.0,0.0,0.0,0.0,0.0,0.0,0.000335233498754,-0.00865417941552,0.00147679321183,0.0,0.0,0.0,0.0,0.0,0.0,0.0,0.0,0.0,6.66493456843,-0.00183926352109,7.01073153173,0.0,0.0,0.0,0.0,0.0,0.0,0.0,0.0,0.0
25064000000,33,25064000000,imu_link,0.000341462099318,-0.377405529911,0.000747142883305,0.926047726186,0.0,0.0,0.0,0.0,0.0,0.0,0.0,0.0,0.0,0.000354606180743,-0.00908957545126,0.00148626675271,0.0,0.0,0.0,0.0,0.0,0.0,0.0,0.0,0.0,6.6670525684,-0.00199972602306,7.00903728788,0.0,0.0,0.0,0.0,0.0,0.0,0.0,0.0,0.0
25068000000,34,25068000000,imu_link,0.000341590239975,-0.377422734541,0.000750204272049,0.926040711827,0.0,0.0,0.0,0.0,0.0,0.0,0.0,0.0,0.0,0.000631795113192,-0.00928930835151,0.00139887327569,0.0,0.0,0.0,0.0,0.0,0.0,0.0,0.0,0.0,6.66986461508,-0.00209823322883,7.00860196973,0.0,0.0,0.0,0.0,0.0,0.0,0.0,0.0,0.0
25072000000,35,25072000000,imu_link,0.000342415755843,-0.377440083669,0.000753291814281,0.926033637911,0.0,0.0,0.0,0.0,0.0,0.0,0.0,0.0,0.0,0.000959585462915,-0.00936770986578,0.00127942726213,0.0,0.0,0.0,0.0,0.0,0.0,0.0,0.0,0.0,6.66963806054,-0.00207535143333,7.00485501605,0.0,0.0,0.0,0.0,0.0,0.0,0.0,0.0,0.0
25076000000,36,25076000000,imu_link,0.000343455138383,-0.377457816692,0.000756322171923,0.926026407093,0.0,0.0,0.0,0.0,0.0,0.0,0.0,0.0,0.0,0.00104769972081,-0.00957516114066,0.0012127137311,0.0,0.0,0.0,0.0,0.0,0.0,0.0,0.0,0.0,6.67065604174,-0.00197801889101,7.00741401627,0.0,0.0,0.0,0.0,0.0,0.0,0.0,0.0,0.0
25080000000,37,25080000000,imu_link,0.000343951968544,-0.377476128441,0.000759232770543,0.92601894026,0.0,0.0,0.0,0.0,0.0,0.0,0.0,0.0,0.0,0.000773710494863,-0.00988747705514,0.00125984767561,0.0,0.0,0.0,0.0,0.0,0.0,0.0,0.0,0.0,6.67161192849,-0.00188749623499,7.00975514378,0.0,0.0,0.0,0.0,0.0,0.0,0.0,0.0,0.0
25084000000,38,25084000000,imu_link,0.000343317621654,-0.377494852819,0.000762014043471,0.926011305311,0.0,0.0,0.0,0.0,0.0,0.0,0.0,0.0,0.0,0.000225428398671,-0.0101098503827,0.00141359960418,0.0,0.0,0.0,0.0,0.0,0.0,0.0,0.0,0.0,6.67202712695,-0.0019251410017,7.00805632193,0.0,0.0,0.0,0.0,0.0,0.0,0.0,0.0,0.0
25088000000,39,25088000000,imu_link,0.000341454174957,-0.3775135477,0.000764674888537,0.92600368249,0.0,0.0,0.0,0.0,0.0,0.0,0.0,0.0,0.0,-0.000366373052655,-0.0100934568657,0.0015898205641,0.0,0.0,0.0,0.0,0.0,0.0,0.0,0.0,0.0,6.67182448609,-0.00213043396179,7.00204182174,0.0,0.0,0.0,0.0,0.0,0.0,0.0,0.0,0.0
25092000000,40,25092000000,imu_link,0.000338650832863,-0.377531702889,0.000767251145505,0.925996279666,0.0,0.0,0.0,0.0,0.0,0.0,0.0,0.0,0.0,-0.000817344143312,-0.00980170715688,0.00172789148918,0.0,0.0,0.0,0.0,0.0,0.0,0.0,0.0,0.0,6.67214349074,-0.00237980656903,6.99645604359,0.0,0.0,0.0,0.0,0.0,0.0,0.0,0.0,0.0
25096000000,41,25096000000,imu_link,0.000335420550559,-0.377549078648,0.000769802527674,0.925989194381,0.0,0.0,0.0,0.0,0.0,0.0,0.0,0.0,0.0,-0.00101946693727,-0.00938073281309,0.00179671244246,0.0,0.0,0.0,0.0,0.0,0.0,0.0,0.0,0.0,6.67286024961,-0.0025895928926,6.99431000415,0.0,0.0,0.0,0.0,0.0,0.0,0.0,0.0,0.0
25100000000,42,25100000000,imu_link,0.000332198582147,-0.37756579586,0.000772387284926,0.925982377186,0.0,0.0,0.0,0.0,0.0,0.0,0.0,0.0,0.0,-0.00100910877032,-0.00902521841529,0.00181038184083,0.0,0.0,0.0,0.0,0.0,0.0,0.0,0.0,0.0,6.67261431972,-0.00270566468589,6.99369287414,0.0,0.0,0.0,0.0,0.0,0.0,0.0,0.0,0.0
25104000000,43,25104000000,imu_link,0.000329456665085,-0.377582031059,0.000775033478533,0.925975755948,0.0,0.0,0.0,0.0,0.0,0.0,0.0,0.0,0.0,-0.000775097489849,-0.00876523205063,0.00174804510737,0.0,0.0,0.0,0.0,0.0,0.0,0.0,0.0,0.0,6.67265534184,-0.00276803054858,6.99418912533,0.0,0.0,0.0,0.0,0.0,0.0,0.0,0.0,0.0
25108000000,44,25108000000,imu_link,0.000327504745462,-0.377597913357,0.000777765468372,0.925969277919,0.0,0.0,0.0,0.0,0.0,0.0,0.0,0.0,0.0,-0.000393027529643,-0.00857509851584,0.00163850967525,0.0,0.0,0.0,0.0,0.0,0.0,0.0,0.0,0.0,6.67300486188,-0.0027404657534,6.99491721851,0.0,0.0,0.0,0.0,0.0,0.0,0.0,0.0,0.0
25112000000,45,25112000000,imu_link,0.000326440282894,-0.377613422035,0.000780616321088,0.925962951513,0.0,0.0,0.0,0.0,0.0,0.0,0.0,0.0,0.0,4.04131077889e-05,-0.00837381796914,0.00152587025135,0.0,0.0,0.0,0.0,0.0,0.0,0.0,0.0,0.0,6.67354025339,-0.00262755307199,6.99419443922,0.0,0.0,0.0,0.0,0.0,0.0,0.0,0.0,0.0
25116000000,46,25116000000,imu_link,0.000326089327764,-0.377628371402,0.000783593612594,0.925956852536,0.0,0.0,0.0,0.0,0.0,0.0,0.0,0.0,0.0,0.000394807509047,-0.00807218450787,0.00144951401703,0.0,0.0,0.0,0.0,0.0,0.0,0.0,0.0,0.0,6.6742307372,-0.00250342258264,6.99227390332,0.0,0.0,0.0,0.0,0.0,0.0,0.0,0.0,0.0
25120000000,47,25120000000,imu_link,0.000326098719274,-0.377642685101,0.000786699059211,0.925951012286,0.0,0.0,0.0,0.0,0.0,0.0,0.0,0.0,0.0,0.000586044600686,-0.0077291530824,0.00144060350112,0.0,0.0,0.0,0.0,0.0,0.0,0.0,0.0,0.0,6.67409996168,-0.00243612045226,6.99022783666,0.0,0.0,0.0,0.0,0.0,0.0,0.0,0.0,0.0
25124000000,48,25124000000,imu_link,0.000325971604179,-0.377656425611,0.000789864776361,0.925945405546,0.0,0.0,0.0,0.0,0.0,0.0,0.0,0.0,0.0,0.000534413139295,-0.00741962600871,0.001494097333,0.0,0.0,0.0,0.0,0.0,0.0,0.0,0.0,0.0,6.67475085195,-0.00237928083987,6.99083110627,0.0,0.0,0.0,0.0,0.0,0.0,0.0,0.0,0.0
25128000000,49,25128000000,imu_link,0.000325463059189,-0.377669903259,0.000793023808072,0.925939905911,0.0,0.0,0.0,0.0,0.0,0.0,0.0,0.0,0.0,0.000356645466043,-0.00727755354188,0.00156294173992,0.0,0.0,0.0,0.0,0.0,0.0,0.0,0.0,0.0,6.67483611906,-0.00242993251636,6.9924787775,0.0,0.0,0.0,0.0,0.0,0.0,0.0,0.0,0.0
25132000000,50,25132000000,imu_link,0.000324464900862,-0.377683223169,0.000796154077943,0.925934470574,0.0,0.0,0.0,0.0,0.0,0.0,0.0,0.0,0.0,0.000124590043676,-0.00719219471644,0.00164203081988,0.0,0.0,0.0,0.0,0.0,0.0,0.0,0.0,0.0,6.67442602145,-0.00253196631913,6.99128294947,0.0,0.0,0.0,0.0,0.0,0.0,0.0,0.0,0.0
25136000000,51,25136000000,imu_link,0.000322903862314,-0.377696459863,0.000799244408314,0.925929069178,0.0,0.0,0.0,0.0,0.0,0.0,0.0,0.0,0.0,-0.000143519674891,-0.00714704095614,0.00172980833653,0.0,0.0,0.0,0.0,0.0,0.0,0.0,0.0,0.0,6.67422776277,-0.00262370342325,6.99011593926,0.0,0.0,0.0,0.0,0.0,0.0,0.0,0.0,0.0
25140000000,52,25140000000,imu_link,0.000320928338342,-0.377709540908,0.000802304864928,0.925923731211,0.0,0.0,0.0,0.0,0.0,0.0,0.0,0.0,0.0,-0.000341001372755,-0.00706284181155,0.0017942022074,0.0,0.0,0.0,0.0,0.0,0.0,0.0,0.0,0.0,6.67432063593,-0.0027416272504,6.98822248508,0.0,0.0,0.0,0.0,0.0,0.0,0.0,0.0,0.0
25144000000,53,25144000000,imu_link,0.00031883433424,-0.377722408416,0.000805342426578,0.925918480185,0.0,0.0,0.0,0.0,0.0,0.0,0.0,0.0,0.0,-0.000400105268607,-0.00694751956005,0.00180590910814,0.0,0.0,0.0,0.0,0.0,0.0,0.0,0.0,0.0,6.67481346073,-0.00282845043154,6.9873711165,0.0,0.0,0.0,0.0,0.0,0.0,0.0,0.0,0.0
25148000000,54,25148000000,imu_link,0.000316985598264,-0.377735197907,0.000808391195501,0.925913260671,0.0,0.0,0.0,0.0,0.0,0.0,0.0,0.0,0.0,-0.000284413111832,-0.00690554656465,0.00176475085979,0.0,0.0,0.0,0.0,0.0,0.0,0.0,0.0,0.0,6.67451248185,-0.0028948948128,6.98671321515,0.0,0.0,0.0,0.0,0.0,0.0,0.0,0.0,0.0
25152000000,55,25152000000,imu_link,0.000315884345618,-0.377748123316,0.000811512861251,0.925907985167,0.0,0.0,0.0,0.0,0.0,0.0,0.0,0.0,0.0,7.53610365809e-05,-0.00697933543499,0.00165736771944,0.0,0.0,0.0,0.0,0.0,0.0,0.0,0.0,0.0,6.67555425572,-0.00294184661033,6.98936873466,0.0,0.0,0.0,0.0,0.0,0.0,0.0,0.0,0.0
25156000000,56,25156000000,imu_link,0.00031591881859,-0.377761357719,0.000814756658841,0.925902582879,0.0,0.0,0.0,0.0,0.0,0.0,0.0,0.0,0.0,0.000624111931509,-0.00714677333549,0.00149950027856,0.0,0.0,0.0,0.0,0.0,0.0,0.0,0.0,0.0,6.67621309341,-0.00289984542125,6.99073512906,0.0,0.0,0.0,0.0,0.0,0.0,0.0,0.0,0.0
25160000000,57,25160000000,imu_link,0.000317076602943,-0.37777494933,0.000818130938965,0.925897034115,0.0,0.0,0.0,0.0,0.0,0.0,0.0,0.0,0.0,0.00116867363329,-0.00734024706534,0.00134785161581,0.0,0.0,0.0,0.0,0.0,0.0,0.0,0.0,0.0,6.67500035024,-0.00276374646092,6.98719874921,0.0,0.0,0.0,0.0,0.0,0.0,0.0,0.0,0.0
25164000000,58,25164000000,imu_link,0.000319013879035,-0.377788983041,0.000821612673025,0.925891304352,0.0,0.0,0.0,0.0,0.0,0.0,0.0,0.0,0.0,0.00154968272813,-0.00757940660434,0.00125050515998,0.0,0.0,0.0,0.0,0.0,0.0,0.0,0.0,0.0,6.67601864836,-0.00262251756738,6.98845667134,0.0,0.0,0.0,0.0,0.0,0.0,0.0,0.0,0.0
25168000000,59,25168000000,imu_link,0.000321435615941,-0.377803532211,0.000825183357184,0.925885363747,0.0,0.0,0.0,0.0,0.0,0.0,0.0,0.0,0.0,0.0017905858171,-0.00785804791888,0.00120034107727,0.0,0.0,0.0,0.0,0.0,0.0,0.0,0.0,0.0,6.67677469268,-0.00254637446203,6.98897869348,0.0,0.0,0.0,0.0,0.0,0.0,0.0,0.0,0.0
25172000000,60,25172000000,imu_link,0.000324110530798,-0.377818653784,0.000828829189795,0.925879189121,0.0,0.0,0.0,0.0,0.0,0.0,0.0,0.0,0.0,0.0019217898146,-0.0081673367223,0.00118749329141,0.0,0.0,0.0,0.0,0.0,0.0,0.0,0.0,0.0,6.67734944782,-0.00251356739329,6.98903225649,0.0,0.0,0.0,0.0,0.0,0.0,0.0,0.0,0.0
25176000000,61,25176000000,imu_link,0.000326806872229,-0.377834369226,0.000832539501612,0.925872771771,0.0,0.0,0.0,0.0,0.0,0.0,0.0,0.0,0.0,0.0019436829738,-0.00848811396208,0.0012134924176,0.0,0.0,0.0,0.0,0.0,0.0,0.0,0.0,0.0,6.6778160091,-0.00251197008692,6.98837683683,0.0,0.0,0.0,0.0,0.0,0.0,0.0,0.0,0.0
25180000000,62,25180000000,imu_link,0.000329239669615,-0.37785071657,0.000836307640761,0.925866096246,0.0,0.0,0.0,0.0,0.0,0.0,0.0,0.0,0.0,0.00183238256769,-0.00882929878551,0.00129026151733,0.0,0.0,0.0,0.0,0.0,0.0,0.0,0.0,0.0,6.67866723914,-0.00253557946807,6.98881629812,0.0,0.0,0.0,0.0,0.0,0.0,0.0,0.0,0.0
25184000000,63,25184000000,imu_link,0.000331321665657,-0.377867723198,0.000840132536379,0.925859151366,0.0,0.0,0.0,0.0,0.0,0.0,0.0,0.0,0.0,0.00168047642769,-0.00918523495672,0.00138303239572,0.0,0.0,0.0,0.0,0.0,0.0,0.0,0.0,0.0,6.67853414912,-0.00260667775095,6.98701044955,0.0,0.0,0.0,0.0,0.0,0.0,0.0,0.0,0.0
25188000000,64,25188000000,imu_link,0.000333147179778,-0.377885353467,0.000844030441069,0.925851951589,0.0,0.0,0.0,0.0,0.0,0.0,0.0,0.0,0.0,0.00157531750276,-0.00952197563619,0.00146549896081,0.0,0.0,0.0,0.0,0.0,0.0,0.0,0.0,0.0,6.6779196267,-0.00269627098086,6.9839488985,0.0,0.0,0.0,0.0,0.0,0.0,0.0,0.0,0.0
25192000000,65,25192000000,imu_link,0.000334895286679,-0.37790356242,0.000848013936439,0.925844515147,0.0,0.0,0.0,0.0,0.0,0.0,0.0,0.0,0.0,0.00155545063067,-0.00983453276056,0.00151994290705,0.0,0.0,0.0,0.0,0.0,0.0,0.0,0.0,0.0,6.67829405982,-0.00281064480701,6.98284600556,0.0,0.0,0.0,0.0,0.0,0.0,0.0,0.0,0.0
25196000000,66,25196000000,imu_link,0.000336689020073,-0.377922258784,0.000852093602572,0.925836879203,0.0,0.0,0.0,0.0,0.0,0.0,0.0,0.0,0.0,0.00159457052735,-0.0100978657724,0.00155600749217,0.0,0.0,0.0,0.0,0.0,0.0,0.0,0.0,0.0,6.67933464481,-0.00289238119382,6.98250403911,0.0,0.0,0.0,0.0,0.0,0.0,0.0,0.0,0.0
25200000000,67,25200000000,imu_link,0.000338591667025,-0.377941205469,0.000856248465426,0.925829140502,0.0,0.0,0.0,0.0,0.0,0.0,0.0,0.0,0.0,0.00165910852936,-0.010233194437,0.00157032293169,0.0,0.0,0.0,0.0,0.0,0.0,0.0,0.0,0.0,6.67962446421,-0.00293946994865,6.97941794103,0.0,0.0,0.0,0.0,0.0,0.0,0.0,0.0,0.0
25204000000,68,25204000000,imu_link,0.000340528186174,-0.377959999604,0.000860436944052,0.92582146356,0.0,0.0,0.0,0.0,0.0,0.0,0.0,0.0,0.0,0.00168119571012,-0.0101509152741,0.00157943104656,0.0,0.0,0.0,0.0,0.0,0.0,0.0,0.0,0.0,6.68177958411,-0.00293733413165,6.97809556868,0.0,0.0,0.0,0.0,0.0,0.0,0.0,0.0,0.0
25208000000,69,25208000000,imu_link,0.000342270443854,-0.377978160442,0.000864636033542,0.925814044765,0.0,0.0,0.0,0.0,0.0,0.0,0.0,0.0,0.0,0.00159350373578,-0.00980888521226,0.0016208355742,0.0,0.0,0.0,0.0,0.0,0.0,0.0,0.0,0.0,6.68393315223,-0.00297436218654,6.97662329002,0.0,0.0,0.0,0.0,0.0,0.0,0.0,0.0,0.0
25212000000,70,25212000000,imu_link,0.000343674790707,-0.377995403729,0.000868828982939,0.925807000289,0.0,0.0,0.0,0.0,0.0,0.0,0.0,0.0,0.0,0.00143625464418,-0.00931325744968,0.00168153588853,0.0,0.0,0.0,0.0,0.0,0.0,0.0,0.0,0.0,6.68430533772,-0.00309851656241,6.97386998716,0.0,0.0,0.0,0.0,0.0,0.0,0.0,0.0,0.0
25216000000,71,25216000000,imu_link,0.000344576631233,-0.378011617287,0.000873009266312,0.925800376063,0.0,0.0,0.0,0.0,0.0,0.0,0.0,0.0,0.0,0.00120162397217,-0.00875694963627,0.00177028577389,0.0,0.0,0.0,0.0,0.0,0.0,0.0,0.0,0.0,6.6849599391,-0.00321517331188,6.97303010285,0.0,0.0,0.0,0.0,0.0,0.0,0.0,0.0,0.0
25220000000,72,25220000000,imu_link,0.000344843728239,-0.378026826071,0.000877171595911,0.925794162016,0.0,0.0,0.0,0.0,0.0,0.0,0.0,0.0,0.0,0.000904775628958,-0.00821403942687,0.00188159302441,0.0,0.0,0.0,0.0,0.0,0.0,0.0,0.0,0.0,6.68407565764,-0.00335107146966,6.97075953551,0.0,0.0,0.0,0.0,0.0,0.0,0.0,0.0,0.0
25224000000,73,25224000000,imu_link,0.000344268775022,-0.378040987453,0.000881310527171,0.925788375697,0.0,0.0,0.0,0.0,0.0,0.0,0.0,0.0,0.0,0.000510956065231,-0.00764798837676,0.00202955259802,0.0,0.0,0.0,0.0,0.0,0.0,0.0,0.0,0.0,6.68502052117,-0.00349646479926,6.97123728772,0.0,0.0,0.0,0.0,0.0,0.0,0.0,0.0,0.0
25228000000,74,25228000000,imu_link,0.000342878563875,-0.378053934258,0.000885438246094,0.925783085407,0.0,0.0,0.0,0.0,0.0,0.0,0.0,0.0,0.0,0.000131908371792,-0.00699165092115,0.00217803528089,0.0,0.0,0.0,0.0,0.0,0.0,0.0,0.0,0.0,6.68551905147,-0.0036563038126,6.96925459763,0.0,0.0,0.0,0.0,0.0,0.0,0.0,0.0,0.0
25232000000,75,25232000000,imu_link,0.000340798497908,-0.378065469209,0.000889577668741,0.925778371696,0.0,0.0,0.0,0.0,0.0,0.0,0.0,0.0,0.0,-0.000184681064096,-0.00622881946257,0.00231335669011,0.0,0.0,0.0,0.0,0.0,0.0,0.0,0.0,0.0,6.68598321805,-0.00380000440863,6.96713750829,0.0,0.0,0.0,0.0,0.0,0.0,0.0,0.0,0.0
25236000000,76,25236000000,imu_link,0.000338206178715,-0.378075693453,0.000893757193346,0.925774193221,0.0,0.0,0.0,0.0,0.0,0.0,0.0,0.0,0.0,-0.000413725175763,-0.00552069504024,0.00242829066971,0.0,0.0,0.0,0.0,0.0,0.0,0.0,0.0,0.0,6.68569230775,-0.00393173789478,6.96639485368,0.0,0.0,0.0,0.0,0.0,0.0,0.0,0.0,0.0
25240000000,77,25240000000,imu_link,0.000335086470068,-0.378084941669,0.000897944794657,0.925770413383,0.0,0.0,0.0,0.0,0.0,0.0,0.0,0.0,0.0,-0.000655951390631,-0.00499331003068,0.00253138264885,0.0,0.0,0.0,0.0,0.0,0.0,0.0,0.0,0.0,6.68604601997,-0.0040119244531,6.96891809549,0.0,0.0,0.0,0.0,0.0,0.0,0.0,0.0,0.0
25244000000,78,25244000000,imu_link,0.00033121167735,-0.378093611468,0.000902089197515,0.925766869952,0.0,0.0,0.0,0.0,0.0,0.0,0.0,0.0,0.0,-0.00101341489435,-0.00468054662016,0.0026539266318,0.0,0.0,0.0,0.0,0.0,0.0,0.0,0.0,0.0,6.68672276032,-0.0040629848381,6.97251473443,0.0,0.0,0.0,0.0,0.0,0.0,0.0,0.0,0.0
25248000000,79,25248000000,imu_link,0.000326539283149,-0.378102007619,0.0009061481619,0.925763438521,0.0,0.0,0.0,0.0,0.0,0.0,0.0,0.0,0.0,-0.00139865839926,-0.00453236095149,0.00276506675621,0.0,0.0,0.0,0.0,0.0,0.0,0.0,0.0,0.0,6.68725637408,-0.00417510755482,6.97476950872,0.0,0.0,0.0,0.0,0.0,0.0,0.0,0.0,0.0
25252000000,80,25252000000,imu_link,0.000321248612908,-0.378110446173,0.000910119451286,0.925759989942,0.0,0.0,0.0,0.0,0.0,0.0,0.0,0.0,0.0,-0.00170143853425,-0.00455496436159,0.0028413840005,0.0,0.0,0.0,0.0,0.0,0.0,0.0,0.0,0.0,6.68907108342,-0.0043729360202,6.97974999283,0.0,0.0,0.0,0.0,0.0,0.0,0.0,0.0,0.0
25256000000,81,25256000000,imu_link,0.000315628839196,-0.37811933679,0.000914030326404,0.925756356755,0.0,0.0,0.0,0.0,0.0,0.0,0.0,0.0,0.0,-0.0018653716437,-0.00479897588828,0.00287579479401,0.0,0.0,0.0,0.0,0.0,0.0,0.0,0.0,0.0,6.69016945962,-0.004610422323,6.98404171238,0.0,0.0,0.0,0.0,0.0,0.0,0.0,0.0,0.0
25260000000,82,25260000000,imu_link,0.0003099031217,-0.378128991617,0.000917901308136,0.925752411348,0.0,0.0,0.0,0.0,0.0,0.0,0.0,0.0,0.0,-0.00192225292194,-0.00521169849101,0.00287762200585,0.0,0.0,0.0,0.0,0.0,0.0,0.0,0.0,0.0,6.69087433134,-0.00475531515636,6.98666057497,0.0,0.0,0.0,0.0,0.0,0.0,0.0,0.0,0.0
25264000000,83,25264000000,imu_link,0.000303966240791,-0.378139465238,0.000921701386526,0.925748131459,0.0,0.0,0.0,0.0,0.0,0.0,0.0,0.0,0.0,-0.00203372470413,-0.00565385132533,0.00288500642373,0.0,0.0,0.0,0.0,0.0,0.0,0.0,0.0,0.0,6.69024859076,-0.00478988885585,6.9844953018,0.0,0.0,0.0,0.0,0.0,0.0,0.0,0.0,0.0
25268000000,84,25268000000,imu_link,0.000297236760728,-0.378150483043,0.000925409031095,0.925743629437,0.0,0.0,0.0,0.0,0.0,0.0,0.0,0.0,0.0,-0.00241829176126,-0.00594738760777,0.00299226279282,0.0,0.0,0.0,0.0,0.0,0.0,0.0,0.0,0.0,6.69255886193,-0.00476522358847,6.98492186126,0.0,0.0,0.0,0.0,0.0,0.0,0.0,0.0,0.0
25272000000,85,25272000000,imu_link,0.000289036519016,-0.378161818169,0.000929011663251,0.925738998138,0.0,0.0,0.0,0.0,0.0,0.0,0.0,0.0,0.0,-0.00311904873623,-0.00611804483481,0.00322184709752,0.0,0.0,0.0,0.0,0.0,0.0,0.0,0.0,0.0,6.69406574827,-0.00477629201316,6.98436210755,0.0,0.0,0.0,0.0,0.0,0.0,0.0,0.0,0.0
25276000000,86,25276000000,imu_link,0.000278965553901,-0.378173361598,0.0009324732094,0.925734282205,0.0,0.0,0.0,0.0,0.0,0.0,0.0,0.0,0.0,-0.00401171073673,-0.00622961549902,0.00351033018651,0.0,0.0,0.0,0.0,0.0,0.0,0.0,0.0,0.0,6.69528079775,-0.00490793835868,6.98420745979,0.0,0.0,0.0,0.0,0.0,0.0,0.0,0.0,0.0
25280000000,87,25280000000,imu_link,0.000267065143297,-0.378185071849,0.000935803585765,0.925729498492,0.0,0.0,0.0,0.0,0.0,0.0,0.0,0.0,0.0,-0.00488337172444,-0.00631881396433,0.00379559464878,0.0,0.0,0.0,0.0,0.0,0.0,0.0,0.0,0.0,6.69526573581,-0.00514003327946,6.98258487675,0.0,0.0,0.0,0.0,0.0,0.0,0.0,0.0,0.0
25284000000,88,25284000000,imu_link,0.00025369645216,-0.378197045958,0.0009390394334,0.925724607144,0.0,0.0,0.0,0.0,0.0,0.0,0.0,0.0,0.0,-0.00558097078976,-0.00646062332912,0.00402956711867,0.0,0.0,0.0,0.0,0.0,0.0,0.0,0.0,0.0,6.69556735324,-0.0054321031865,6.9827656981,0.0,0.0,0.0,0.0,0.0,0.0,0.0,0.0,0.0
25288000000,89,25288000000,imu_link,0.000239565585218,-0.378209163097,0.000942227126394,0.925719657221,0.0,0.0,0.0,0.0,0.0,0.0,0.0,0.0,0.0,-0.00594291893541,-0.00653755067805,0.00415145011384,0.0,0.0,0.0,0.0,0.0,0.0,0.0,0.0,0.0,6.69756591693,-0.00573986537178,6.98417896245,0.0,0.0,0.0,0.0,0.0,0.0,0.0,0.0,0.0
25292000000,90,25292000000,imu_link,0.000225264123585,-0.378221218103,0.000945371066094,0.925714732359,0.0,0.0,0.0,0.0,0.0,0.0,0.0,0.0,0.0,-0.00603012804259,-0.00650397777173,0.0041634394609,0.0,0.0,0.0,0.0,0.0,0.0,0.0,0.0,0.0,6.69923198573,-0.00592311387614,6.9843295822,0.0,0.0,0.0,0.0,0.0,0.0,0.0,0.0,0.0
25296000000,91,25296000000,imu_link,0.000211167796936,-0.378232889383,0.000948493480845,0.925709963843,0.0,0.0,0.0,0.0,0.0,0.0,0.0,0.0,0.0,-0.00593908662923,-0.00629690013186,0.00411456615553,0.0,0.0,0.0,0.0,0.0,0.0,0.0,0.0,0.0,6.7007981212,-0.00596024713777,6.98251745287,0.0,0.0,0.0,0.0,0.0,0.0,0.0,0.0,0.0
25300000000,92,25300000000,imu_link,0.000197300575209,-0.378244007814,0.000951579047431,0.925705420813,0.0,0.0,0.0,0.0,0.0,0.0,0.0,0.0,0.0,-0.00583977448907,-0.00599848059794,0.00405401798212,0.0,0.0,0.0,0.0,0.0,0.0,0.0,0.0,0.0,6.70037894644,-0.00593295409588,6.97885891212,0.0,0.0,0.0,0.0,0.0,0.0,0.0,0.0,0.0
25304000000,93,25304000000,imu_link,0.000183619247053,-0.378254549448,0.00095459454207,0.925701113133,0.0,0.0,0.0,0.0,0.0,0.0,0.0,0.0,0.0,-0.00576673407568,-0.00568709396148,0.00398625954898,0.0,0.0,0.0,0.0,0.0,0.0,0.0,0.0,0.0,6.70010750965,-0.00590580658989,6.97688754725,0.0,0.0,0.0,0.0,0.0,0.0,0.0,0.0,0.0
25308000000,94,25308000000,imu_link,0.000170065645288,-0.378264736547,0.000957500594334,0.925696950063,0.0,0.0,0.0,0.0,0.0,0.0,0.0,0.0,0.0,-0.00572815844141,-0.00549571884524,0.00391134596851,0.0,0.0,0.0,0.0,0.0,0.0,0.0,0.0,0.0,6.70011457962,-0.00588784631143,6.97769133428,0.0,0.0,0.0,0.0,0.0,0.0,0.0,0.0,0.0
25312000000,95,25312000000,imu_link,0.000156600443452,-0.378274764616,0.000960268080751,0.925692851769,0.0,0.0,0.0,0.0,0.0,0.0,0.0,0.0,0.0,-0.00571337932755,-0.00540991426814,0.00383044715512,0.0,0.0,0.0,0.0,0.0,0.0,0.0,0.0,0.0,6.70010073636,-0.00588311638444,6.97797502648,0.0,0.0,0.0,0.0,0.0,0.0,0.0,0.0,0.0
25316000000,96,25316000000,imu_link,0.000143445692148,-0.378284651018,0.000962901702949,0.925688811128,0.0,0.0,0.0,0.0,0.0,0.0,0.0,0.0,0.0,-0.00559494363213,-0.00533360001221,0.00370973200551,0.0,0.0,0.0,0.0,0.0,0.0,0.0,0.0,0.0,6.70029423542,-0.00590416612125,6.9770386756,0.0,0.0,0.0,0.0,0.0,0.0,0.0,0.0,0.0
25320000000,97,25320000000,imu_link,0.000130784968828,-0.378294125935,0.000965410119619,0.92568493839,0.0,0.0,0.0,0.0,0.0,0.0,0.0,0.0,0.0,-0.00538978114073,-0.00511163588237,0.00355822937558,0.0,0.0,0.0,0.0,0.0,0.0,0.0,0.0,0.0,6.70118593531,-0.00582656078593,6.97498991976,0.0,0.0,0.0,0.0,0.0,0.0,0.0,0.0,0.0
25324000000,98,25324000000,imu_link,0.000118727557144,-0.378302941315,0.000967786765111,0.925681334956,0.0,0.0,0.0,0.0,0.0,0.0,0.0,0.0,0.0,-0.00513516627268,-0.00475573540074,0.00338295233096,0.0,0.0,0.0,0.0,0.0,0.0,0.0,0.0,0.0,6.70118332144,-0.00564940963343,6.97164400476,0.0,0.0,0.0,0.0,0.0,0.0,0.0,0.0,0.0
25328000000,99,25328000000,imu_link,0.000107053783131,-0.378310983517,0.000970040838947,0.925678047331,0.0,0.0,0.0,0.0,0.0,0.0,0.0,0.0,0.0,-0.00498043237827,-0.0043383345065,0.00325345683691,0.0,0.0,0.0,0.0,0.0,0.0,0.0,0.0,0.0,6.70114811011,-0.0054514246628,6.96969818825,0.0,0.0,0.0,0.0,0.0,0.0,0.0,0.0,0.0
25332000000,100,25332000000,imu_link,9.53543584507e-05,-0.378318483868,0.000972155425679,0.925674981073,0.0,0.0,0.0,0.0,0.0,0.0,0.0,0.0,0.0,-0.00501843829988,-0.00404566681443,0.00319361235545,0.0,0.0,0.0,0.0,0.0,0.0,0.0,0.0,0.0,6.70254746592,-0.00527265240643,6.97348312594,0.0,0.0,0.0,0.0,0.0,0.0,0.0,0.0,0.0
25336000000,101,25336000000,imu_link,8.34886582337e-05,-0.3783259047,0.000974115664142,0.925671947269,0.0,0.0,0.0,0.0,0.0,0.0,0.0,0.0,0.0,-0.00512455614892,-0.00400265066918,0.00315360717859,0.0,0.0,0.0,0.0,0.0,0.0,0.0,0.0,0.0,6.70387375957,-0.00521902618107,6.97892728954,0.0,0.0,0.0,0.0,0.0,0.0,0.0,0.0,0.0
25340000000,102,25340000000,imu_link,7.1560471069e-05,-0.378333462947,0.000975937952097,0.925668857226,0.0,0.0,0.0,0.0,0.0,0.0,0.0,0.0,0.0,-0.00517963706257,-0.00407686428008,0.0031016120638,0.0,0.0,0.0,0.0,0.0,0.0,0.0,0.0,0.0,6.70443339526,-0.00521071678244,6.98040697693,0.0,0.0,0.0,0.0,0.0,0.0,0.0,0.0,0.0
25344000000,103,25344000000,imu_link,5.99735709169e-05,-0.378341073467,0.000977672490012,0.925665745659,0.0,0.0,0.0,0.0,0.0,0.0,0.0,0.0,0.0,-0.00503830180881,-0.00410529958731,0.00299645054939,0.0,0.0,0.0,0.0,0.0,0.0,0.0,0.0,0.0,6.70571639935,-0.00527439029995,6.98060285625,0.0,0.0,0.0,0.0,0.0,0.0,0.0,0.0,0.0
25348000000,104,25348000000,imu_link,4.8804136083e-05,-0.378348564033,0.000979336877622,0.925662682953,0.0,0.0,0.0,0.0,0.0,0.0,0.0,0.0,0.0,-0.00485829833424,-0.00404074380585,0.00288498306171,0.0,0.0,0.0,0.0,0.0,0.0,0.0,0.0,0.0,6.70597788099,-0.00524541456688,6.97813897917,0.0,0.0,0.0,0.0,0.0,0.0,0.0,0.0,0.0
25352000000,105,25352000000,imu_link,3.76472078653e-05,-0.378355765534,0.000980915159532,0.925659738282,0.0,0.0,0.0,0.0,0.0,0.0,0.0,0.0,0.0,-0.00486866019886,-0.00388463475921,0.00284269986289,0.0,0.0,0.0,0.0,0.0,0.0,0.0,0.0,0.0,6.70704807819,-0.00513962855545,6.97742573554,0.0,0.0,0.0,0.0,0.0,0.0,0.0,0.0,0.0
25356000000,106,25356000000,imu_link,2.591900294e-05,-0.378362803437,0.000982378372723,0.925656860417,0.0,0.0,0.0,0.0,0.0,0.0,0.0,0.0,0.0,-0.00515475359884,-0.00379600041672,0.002897479696,0.0,0.0,0.0,0.0,0.0,0.0,0.0,0.0,0.0,6.70769913732,-0.00507648838803,6.97839374337,0.0,0.0,0.0,0.0,0.0,0.0,0.0,0.0,0.0
25360000000,107,25360000000,imu_link,1.32978558103e-05,-0.378369946561,0.000983733091751,0.925653939457,0.0,0.0,0.0,0.0,0.0,0.0,0.0,0.0,0.0,-0.00558860884079,-0.00385241547529,0.00301621610185,0.0,0.0,0.0,0.0,0.0,0.0,0.0,0.0,0.0,6.70839159484,-0.00514088444458,6.9806613094,0.0,0.0,0.0,0.0,0.0,0.0,0.0,0.0,0.0
25364000000,108,25364000000,imu_link,-1.99391515975e-07,-0.378377344743,0.00098498592913,0.925650914108,0.0,0.0,0.0,0.0,0.0,0.0,0.0,0.0,0.0,-0.00601349087692,-0.00398978134023,0.00313486056116,0.0,0.0,0.0,0.0,0.0,0.0,0.0,0.0,0.0,6.70835218714,-0.00523242425552,6.98043438875,0.0,0.0,0.0,0.0,0.0,0.0,0.0,0.0,0.0
25368000000,109,25368000000,imu_link,-1.45115948976e-05,-0.378384926342,0.000986138057956,0.925647813609,0.0,0.0,0.0,0.0,0.0,0.0,0.0,0.0,0.0,-0.00640981654287,-0.0040884878861,0.00324246752543,0.0,0.0,0.0,0.0,0.0,0.0,0.0,0.0,0.0,6.70811800096,-0.00526893314688,6.97805989857,0.0,0.0,0.0,0.0,0.0,0.0,0.0,0.0,0.0
25372000000,110,25372000000,imu_link,-2.97767771818e-05,-0.378392585832,0.000987151397118,0.925644681091,0.0,0.0,0.0,0.0,0.0,0.0,0.0,0.0,0.0,-0.00687717455806,-0.0041301241857,0.00335854399861,0.0,0.0,0.0,0.0,0.0,0.0,0.0,0.0,0.0,6.70853062673,-0.00530777442781,6.9764297558,0.0,0.0,0.0,0.0,0.0,0.0,0.0,0.0,0.0
25376000000,111,25376000000,imu_link,-4.62440136951e-05,-0.378400425798,0.000987968671202,0.925641474619,0.0,0.0,0.0,0.0,0.0,0.0,0.0,0.0,0.0,-0.00747069707581,-0.00422704864249,0.00349525872027,0.0,0.0,0.0,0.0,0.0,0.0,0.0,0.0,0.0,6.70905630763,-0.00536167000558,6.97721032209,0.0,0.0,0.0,0.0,0.0,0.0,0.0,0.0,0.0
25380000000,112,25380000000,imu_link,-6.38985334267e-05,-0.378408571496,0.000988561645039,0.925638142948,0.0,0.0,0.0,0.0,0.0,0.0,0.0,0.0,0.0,-0.00806278794643,-0.00439164346534,0.00361613692952,0.0,0.0,0.0,0.0,0.0,0.0,0.0,0.0,0.0,6.70994793474,-0.00550906209795,6.97871974197,0.0,0.0,0.0,0.0,0.0,0.0,0.0,0.0,0.0
25384000000,113,25384000000,imu_link,-8.23395016438e-05,-0.378417121017,0.000988957965243,0.925634645907,0.0,0.0,0.0,0.0,0.0,0.0,0.0,0.0,0.0,-0.00846418389999,-0.00460943400513,0.0036739901391,0.0,0.0,0.0,0.0,0.0,0.0,0.0,0.0,0.0,6.71083090037,-0.00570094711143,6.97968819632,0.0,0.0,0.0,0.0,0.0,0.0,0.0,0.0,0.0
25388000000,114,25388000000,imu_link,-0.000101042550547,-0.378426182905,0.000989185802851,0.925630939086,0.0,0.0,0.0,0.0,0.0,0.0,0.0,0.0,0.0,-0.00861761972265,-0.00488612192718,0.0036456840218,0.0,0.0,0.0,0.0,0.0,0.0,0.0,0.0,0.0,6.7113709886,-0.00581211212244,6.98019901795,0.0,0.0,0.0,0.0,0.0,0.0,0.0,0.0,0.0
25392000000,115,25392000000,imu_link,-0.000119684587441,-0.378435790156,0.000989260994103,0.925627008988,0.0,0.0,0.0,0.0,0.0,0.0,0.0,0.0,0.0,-0.00861854612257,-0.00518079419981,0.00356357553576,0.0,0.0,0.0,0.0,0.0,0.0,0.0,0.0,0.0,6.71259683682,-0.00585514802152,6.98150591171,0.0,0.0,0.0,0.0,0.0,0.0,0.0,0.0,0.0
25396000000,116,25396000000,imu_link,-0.000138051634086,-0.378445792731,0.000989190130559,0.925622916964,0.0,0.0,0.0,0.0,0.0,0.0,0.0,0.0,0.0,-0.00851911833284,-0.00539452203751,0.0034440027633,0.0,0.0,0.0,0.0,0.0,0.0,0.0,0.0,0.0,6.71307126006,-0.00580827584147,6.97976084098,0.0,0.0,0.0,0.0,0.0,0.0,0.0,0.0,0.0
25400000000,117,25400000000,imu_link,-0.000156088788016,-0.378455975232,0.000988964735062,0.925618751105,0.0,0.0,0.0,0.0,0.0,0.0,0.0,0.0,0.0,-0.00839577527402,-0.00549191711591,0.00331008444855,0.0,0.0,0.0,0.0,0.0,0.0,0.0,0.0,0.0,6.71297906005,-0.00573703997991,6.9760773291,0.0,0.0,0.0,0.0,0.0,0.0,0.0,0.0,0.0
25404000000,118,25404000000,imu_link,-0.000173684097372,-0.378466062832,0.000988595220151,0.925614623803,0.0,0.0,0.0,0.0,0.0,0.0,0.0,0.0,0.0,-0.00821850695405,-0.0054409078217,0.00315976361388,0.0,0.0,0.0,0.0,0.0,0.0,0.0,0.0,0.0,6.71326972726,-0.00569059739811,6.97242001553,0.0,0.0,0.0,0.0,0.0,0.0,0.0,0.0,0.0
25408000000,119,25408000000,imu_link,-0.000190519869602,-0.378475735471,0.000988127662908,0.925610665975,0.0,0.0,0.0,0.0,0.0,0.0,0.0,0.0,0.0,-0.00788532063305,-0.00521715692932,0.00297061165811,0.0,0.0,0.0,0.0,0.0,0.0,0.0,0.0,0.0,6.71462654145,-0.00558377640395,6.97103544957,0.0,0.0,0.0,0.0,0.0,0.0,0.0,0.0,0.0
25412000000,120,25412000000,imu_link,-0.000206061092712,-0.378484753335,0.000987645410843,0.925606975767,0.0,0.0,0.0,0.0,0.0,0.0,0.0,0.0,0.0,-0.00728862821967,-0.00486411839845,0.00271876325341,0.0,0.0,0.0,0.0,0.0,0.0,0.0,0.0,0.0,6.71631604153,-0.00542786026844,6.97124685423,0.0,0.0,0.0,0.0,0.0,0.0,0.0,0.0,0.0
25416000000,121,25416000000,imu_link,-0.000219846269498,-0.37849323887,0.000987233294156,0.925603503217,0.0,0.0,0.0,0.0,0.0,0.0,0.0,0.0,0.0,-0.00646236596824,-0.00457743891446,0.00241885113282,0.0,0.0,0.0,0.0,0.0,0.0,0.0,0.0,0.0,6.71672289734,-0.00522032618384,6.97241862795,0.0,0.0,0.0,0.0,0.0,0.0,0.0,0.0,0.0
25420000000,122,25420000000,imu_link,-0.000231917397029,-0.378501592843,0.000986943834445,0.92560008447,0.0,0.0,0.0,0.0,0.0,0.0,0.0,0.0,0.0,-0.00564581769756,-0.00450722926233,0.00215122687234,0.0,0.0,0.0,0.0,0.0,0.0,0.0,0.0,0.0,6.71792159266,-0.0049237148582,6.97716082666,0.0,0.0,0.0,0.0,0.0,0.0,0.0,0.0,0.0
25424000000,123,25424000000,imu_link,-0.000242539662089,-0.378510370513,0.000986755182078,0.925596492486,0.0,0.0,0.0,0.0,0.0,0.0,0.0,0.0,0.0,-0.00495643538452,-0.00473682817546,0.0019237184953,0.0,0.0,0.0,0.0,0.0,0.0,0.0,0.0,0.0,6.71956153637,-0.00462766294468,6.98371101923,0.0,0.0,0.0,0.0,0.0,0.0,0.0,0.0,0.0
25428000000,124,25428000000,imu_link,-0.000251959501243,-0.378519824247,0.000986618422327,0.92559262408,0.0,0.0,0.0,0.0,0.0,0.0,0.0,0.0,0.0,-0.00439050091507,-0.00510262362218,0.00172022336328,0.0,0.0,0.0,0.0,0.0,0.0,0.0,0.0,0.0,6.72079351168,-0.00437898564164,6.98685457466,0.0,0.0,0.0,0.0,0.0,0.0,0.0,0.0,0.0
25432000000,125,25432000000,imu_link,-0.00026020284039,-0.378530080016,0.000986535403089,0.92558842774,0.0,0.0,0.0,0.0,0.0,0.0,0.0,0.0,0.0,-0.00383628708898,-0.00553645403982,0.00152249071985,0.0,0.0,0.0,0.0,0.0,0.0,0.0,0.0,0.0,6.720110579,-0.00419152044957,6.98517702296,0.0,0.0,0.0,0.0,0.0,0.0,0.0,0.0,0.0
25436000000,126,25436000000,imu_link,-0.000267340596408,-0.378541081351,0.000986487642283,0.925583926557,0.0,0.0,0.0,0.0,0.0,0.0,0.0,0.0,0.0,-0.00331836385014,-0.00593974384385,0.0013296132524,0.0,0.0,0.0,0.0,0.0,0.0,0.0,0.0,0.0,6.7202702372,-0.00404024566624,6.98352673589,0.0,0.0,0.0,0.0,0.0,0.0,0.0,0.0,0.0
25440000000,127,25440000000,imu_link,-0.00027357777326,-0.378552527681,0.000986447108167,0.925579243427,0.0,0.0,0.0,0.0,0.0,0.0,0.0,0.0,0.0,-0.00290045906178,-0.00618056610265,0.00116253486276,0.0,0.0,0.0,0.0,0.0,0.0,0.0,0.0,0.0,6.72054251167,-0.00386726382584,6.98008965507,0.0,0.0,0.0,0.0,0.0,0.0,0.0,0.0,0.0
25444000000,128,25444000000,imu_link,-0.000279293610069,-0.378564106134,0.000986385935402,0.925574506231,0.0,0.0,0.0,0.0,0.0,0.0,0.0,0.0,0.0,-0.00266316726877,-0.00625219884076,0.00105431480807,0.0,0.0,0.0,0.0,0.0,0.0,0.0,0.0,0.0,6.72198721879,-0.00371227871471,6.9787032919,0.0,0.0,0.0,0.0,0.0,0.0,0.0,0.0,0.0
25448000000,129,25448000000,imu_link,-0.000284946384589,-0.378575779787,0.000986277042814,0.925569729962,0.0,0.0,0.0,0.0,0.0,0.0,0.0,0.0,0.0,-0.00264306775919,-0.00630367660694,0.00102030009922,0.0,0.0,0.0,0.0,0.0,0.0,0.0,0.0,0.0,6.72349693341,-0.00361725263646,6.97992304934,0.0,0.0,0.0,0.0,0.0,0.0,0.0,0.0,0.0
25452000000,130,25452000000,imu_link,-0.000290868432086,-0.378587557299,0.000986102142924,0.92556491099,0.0,0.0,0.0,0.0,0.0,0.0,0.0,0.0,0.0,-0.00278023490191,-0.00635968197073,0.00104072929333,0.0,0.0,0.0,0.0,0.0,0.0,0.0,0.0,0.0,6.72390412544,-0.00357121020936,6.97964241119,0.0,0.0,0.0,0.0,0.0,0.0,0.0,0.0,0.0
25456000000,131,25456000000,imu_link,-0.000297336018487,-0.378599435271,0.000985844473704,0.925560050626,0.0,0.0,0.0,0.0,0.0,0.0,0.0,0.0,0.0,-0.00304842400682,-0.00641372773741,0.00110569801892,0.0,0.0,0.0,0.0,0.0,0.0,0.0,0.0,0.0,6.72368700665,-0.00355628495743,6.97846193447,0.0,0.0,0.0,0.0,0.0,0.0,0.0,0.0,0.0
25460000000,132,25460000000,imu_link,-0.000304415852907,-0.378611611573,0.000985481398748,0.925555067913,0.0,0.0,0.0,0.0,0.0,0.0,0.0,0.0,0.0,-0.00335187867926,-0.00657463142324,0.00117283268273,0.0,0.0,0.0,0.0,0.0,0.0,0.0,0.0,0.0,6.72464822305,-0.00357011476892,6.98086736949,0.0,0.0,0.0,0.0,0.0,0.0,0.0,0.0,0.0
25464000000,133,25464000000,imu_link,-0.000311991465329,-0.378624224375,0.000984994988829,0.92554990636,0.0,0.0,0.0,0.0,0.0,0.0,0.0,0.0,0.0,-0.00360490392714,-0.00681022671117,0.00120963137027,0.0,0.0,0.0,0.0,0.0,0.0,0.0,0.0,0.0,6.72570538033,-0.00365898878448,6.98300169983,0.0,0.0,0.0,0.0,0.0,0.0,0.0,0.0,0.0
25468000000,134,25468000000,imu_link,-0.000319871691382,-0.378637290124,0.000984398792,0.925544559256,0.0,0.0,0.0,0.0,0.0,0.0,0.0,0.0,0.0,-0.00376690749806,-0.00705479896455,0.00121651251282,0.0,0.0,0.0,0.0,0.0,0.0,0.0,0.0,0.0,6.72581961763,-0.00376570389284,6.98232929575,0.0,0.0,0.0,0.0,0.0,0.0,0.0,0.0,0.0
25472000000,135,25472000000,imu_link,-0.000327731735846,-0.378650730915,0.000983764084256,0.925539058483,0.0,0.0,0.0,0.0,0.0,0.0,0.0,0.0,0.0,-0.00376506802514,-0.0072574539738,0.00119488563178,0.0,0.0,0.0,0.0,0.0,0.0,0.0,0.0,0.0,6.72680102707,-0.00388054405617,6.98229461254,0.0,0.0,0.0,0.0,0.0,0.0,0.0,0.0,0.0
25476000000,136,25476000000,imu_link,-0.000335188996693,-0.378664266142,0.000983124118637,0.92553351893,0.0,0.0,0.0,0.0,0.0,0.0,0.0,0.0,0.0,-0.00357972029577,-0.00730869561477,0.00111619889203,0.0,0.0,0.0,0.0,0.0,0.0,0.0,0.0,0.0,6.72856698157,-0.00393982404212,6.98168126885,0.0,0.0,0.0,0.0,0.0,0.0,0.0,0.0,0.0
25480000000,137,25480000000,imu_link,-0.000342017824007,-0.378677697134,0.000982471308046,0.925528021978,0.0,0.0,0.0,0.0,0.0,0.0,0.0,0.0,0.0,-0.00329127573415,-0.00725270010313,0.000991268532542,0.0,0.0,0.0,0.0,0.0,0.0,0.0,0.0,0.0,6.72914318052,-0.00394602488413,6.97978902635,0.0,0.0,0.0,0.0,0.0,0.0,0.0,0.0,0.0
25484000000,138,25484000000,imu_link,-0.000348081572094,-0.378690818138,0.000981782299167,0.925522651911,0.0,0.0,0.0,0.0,0.0,0.0,0.0,0.0,0.0,-0.00294390436884,-0.0070855943298,0.000829648728579,0.0,0.0,0.0,0.0,0.0,0.0,0.0,0.0,0.0,6.7289560212,-0.00391971394163,6.97645348471,0.0,0.0,0.0,0.0,0.0,0.0,0.0,0.0,0.0
25488000000,139,25488000000,imu_link,-0.000353415323997,-0.378703566534,0.000981048080871,0.925517434377,0.0,0.0,0.0,0.0,0.0,0.0,0.0,0.0,0.0,-0.00261444110518,-0.00688463456232,0.000670496103722,0.0,0.0,0.0,0.0,0.0,0.0,0.0,0.0,0.0,6.72838964258,-0.00384970387701,6.97367728235,0.0,0.0,0.0,0.0,0.0,0.0,0.0,0.0,0.0
25492000000,140,25492000000,imu_link,-0.000358141572664,-0.378715904435,0.000980266178373,0.925512384866,0.0,0.0,0.0,0.0,0.0,0.0,0.0,0.0,0.0,-0.00234211172727,-0.00666314878221,0.00053338812165,0.0,0.0,0.0,0.0,0.0,0.0,0.0,0.0,0.0,6.72802407823,-0.00378132182004,6.97142996276,0.0,0.0,0.0,0.0,0.0,0.0,0.0,0.0,0.0
25496000000,141,25496000000,imu_link,-0.000362200071354,-0.378727811771,0.000979476062397,0.9255075116,0.0,0.0,0.0,0.0,0.0,0.0,0.0,0.0,0.0,-0.00203441898326,-0.00643085438503,0.00040313423334,0.0,0.0,0.0,0.0,0.0,0.0,0.0,0.0,0.0,6.72845067101,-0.00375899460296,6.97093028491,0.0,0.0,0.0,0.0,0.0,0.0,0.0,0.0,0.0
25500000000,142,25500000000,imu_link,-0.000365476299655,-0.378739091654,0.000978728603572,0.925502895171,0.0,0.0,0.0,0.0,0.0,0.0,0.0,0.0,0.0,-0.00166398889703,-0.00609225331822,0.000274728062599,0.0,0.0,0.0,0.0,0.0,0.0,0.0,0.0,0.0,6.72926709226,-0.00367710557812,6.96989085646,0.0,0.0,0.0,0.0,0.0,0.0,0.0,0.0,0.0
25504000000,143,25504000000,imu_link,-0.000367811646657,-0.378749455411,0.000978089955879,0.925498653743,0.0,0.0,0.0,0.0,0.0,0.0,0.0,0.0,0.0,-0.00120747235237,-0.005597781182,0.000146890206191,0.0,0.0,0.0,0.0,0.0,0.0,0.0,0.0,0.0,6.73021010143,-0.00354694301756,6.96784449671,0.0,0.0,0.0,0.0,0.0,0.0,0.0,0.0,0.0
25508000000,144,25508000000,imu_link,-0.000369134954897,-0.378758759483,0.000977661876513,0.925494846032,0.0,0.0,0.0,0.0,0.0,0.0,0.0,0.0,0.0,-0.000698677781226,-0.00502581189214,5.26587684184e-05,0.0,0.0,0.0,0.0,0.0,0.0,0.0,0.0,0.0,6.73098655372,-0.00342544893061,6.96708310249,0.0,0.0,0.0,0.0,0.0,0.0,0.0,0.0,0.0
25512000000,145,25512000000,imu_link,-0.000369692565378,-0.378767021974,0.000977492178402,0.925491464521,0.0,0.0,0.0,0.0,0.0,0.0,0.0,0.0,0.0,-0.000294833214014,-0.00446353069457,2.7200563453e-05,0.0,0.0,0.0,0.0,0.0,0.0,0.0,0.0,0.0,6.73218862871,-0.00327301333143,6.96865609612,0.0,0.0,0.0,0.0,0.0,0.0,0.0,0.0,0.0
25516000000,146,25516000000,imu_link,-0.000370116696095,-0.378774488071,0.000977512237844,0.925488408717,0.0,0.0,0.0,0.0,0.0,0.0,0.0,0.0,0.0,-0.000196679631703,-0.00403342000326,8.97192174418e-05,0.0,0.0,0.0,0.0,0.0,0.0,0.0,0.0,0.0,6.73449713707,-0.00310386859912,6.97448671489,0.0,0.0,0.0,0.0,0.0,0.0,0.0,0.0,0.0
25520000000,147,25520000000,imu_link,-0.000371148769937,-0.378781494449,0.000977588620716,0.925485540693,0.0,0.0,0.0,0.0,0.0,0.0,0.0,0.0,0.0,-0.000467075409039,-0.00378483742707,0.000230912527377,0.0,0.0,0.0,0.0,0.0,0.0,0.0,0.0,0.0,6.7373801499,-0.00299543634042,6.98181081262,0.0,0.0,0.0,0.0,0.0,0.0,0.0,0.0,0.0
25524000000,148,25524000000,imu_link,-0.000372855877137,-0.378788445002,0.00097769648816,0.925482695149,0.0,0.0,0.0,0.0,0.0,0.0,0.0,0.0,0.0,-0.000773447869952,-0.00375442358497,0.000373326229123,0.0,0.0,0.0,0.0,0.0,0.0,0.0,0.0,0.0,6.73765094313,-0.003102335584,6.98471101673,0.0,0.0,0.0,0.0,0.0,0.0,0.0,0.0,0.0
25528000000,149,25528000000,imu_link,-0.000374808793627,-0.378795742696,0.000977925938288,0.92547970723,0.0,0.0,0.0,0.0,0.0,0.0,0.0,0.0,0.0,-0.000864363176126,-0.00394192730824,0.000476147307016,0.0,0.0,0.0,0.0,0.0,0.0,0.0,0.0,0.0,6.73721952471,-0.00335825989537,6.98655685913,0.0,0.0,0.0,0.0,0.0,0.0,0.0,0.0,0.0
25532000000,150,25532000000,imu_link,-0.000376479399785,-0.378803658275,0.000978342818623,0.925476466252,0.0,0.0,0.0,0.0,0.0,0.0,0.0,0.0,0.0,-0.000698577599408,-0.00427594962281,0.000509417699043,0.0,0.0,0.0,0.0,0.0,0.0,0.0,0.0,0.0,6.7375639383,-0.00359162968225,6.98853543202,0.0,0.0,0.0,0.0,0.0,0.0,0.0,0.0,0.0
25536000000,151,25536000000,imu_link,-0.000377813356795,-0.378812202979,0.000978941923216,0.925472967625,0.0,0.0,0.0,0.0,0.0,0.0,0.0,0.0,0.0,-0.000508639810003,-0.00461606797974,0.000529985474818,0.0,0.0,0.0,0.0,0.0,0.0,0.0,0.0,0.0,6.73610394656,-0.00366128527879,6.98478807361,0.0,0.0,0.0,0.0,0.0,0.0,0.0,0.0,0.0
25540000000,152,25540000000,imu_link,-0.000379021371049,-0.378821163578,0.000979687465025,0.925469298562,0.0,0.0,0.0,0.0,0.0,0.0,0.0,0.0,0.0,-0.00042286116378,-0.00484088831986,0.000573897848053,0.0,0.0,0.0,0.0,0.0,0.0,0.0,0.0,0.0,6.73561870199,-0.00368112570901,6.98060006935,0.0,0.0,0.0,0.0,0.0,0.0,0.0,0.0,0.0
25544000000,153,25544000000,imu_link,-0.000380527205516,-0.378830451542,0.000980529307577,0.925465495167,0.0,0.0,0.0,0.0,0.0,0.0,0.0,0.0,0.0,-0.000542618331634,-0.00501768795462,0.000674873601221,0.0,0.0,0.0,0.0,0.0,0.0,0.0,0.0,0.0,6.73579809536,-0.00364903964779,6.97915905237,0.0,0.0,0.0,0.0,0.0,0.0,0.0,0.0,0.0
25548000000,154,25548000000,imu_link,-0.000382584113463,-0.378840109235,0.00098144930137,0.925461540001,0.0,0.0,0.0,0.0,0.0,0.0,0.0,0.0,0.0,-0.000783025183198,-0.00521726581526,0.000815422509331,0.0,0.0,0.0,0.0,0.0,0.0,0.0,0.0,0.0,6.73545246865,-0.00368817021097,6.97791070879,0.0,0.0,0.0,0.0,0.0,0.0,0.0,0.0,0.0
25552000000,155,25552000000,imu_link,-0.000385248943713,-0.37885041005,0.000982476845541,0.925457321073,0.0,0.0,0.0,0.0,0.0,0.0,0.0,0.0,0.0,-0.00104432339211,-0.00556454253465,0.000980348465062,0.0,0.0,0.0,0.0,0.0,0.0,0.0,0.0,0.0,6.73566632796,-0.00381279398723,6.97964399586,0.0,0.0,0.0,0.0,0.0,0.0,0.0,0.0,0.0
25556000000,156,25556000000,imu_link,-0.000388268002898,-0.378861603928,0.000983681723553,0.925452736064,0.0,0.0,0.0,0.0,0.0,0.0,0.0,0.0,0.0,-0.00117515299616,-0.00604699370545,0.00112951361159,0.0,0.0,0.0,0.0,0.0,0.0,0.0,0.0,0.0,6.73589234162,-0.00400794730883,6.9810196493,0.0,0.0,0.0,0.0,0.0,0.0,0.0,0.0,0.0
25560000000,157,25560000000,imu_link,-0.000391120228763,-0.378873470707,0.000985097621524,0.925447875248,0.0,0.0,0.0,0.0,0.0,0.0,0.0,0.0,0.0,-0.00105836564365,-0.00641073179803,0.00119555976087,0.0,0.0,0.0,0.0,0.0,0.0,0.0,0.0,0.0,6.73563731087,-0.0042136509208,6.97748028924,0.0,0.0,0.0,0.0,0.0,0.0,0.0,0.0,0.0
25564000000,158,25564000000,imu_link,-0.000393394713971,-0.37888561423,0.000986733476082,0.925442900954,0.0,0.0,0.0,0.0,0.0,0.0,0.0,0.0,0.0,-0.0007495218559,-0.00656061241474,0.00118789540908,0.0,0.0,0.0,0.0,0.0,0.0,0.0,0.0,0.0,6.73650807609,-0.00432417504155,6.97401399711,0.0,0.0,0.0,0.0,0.0,0.0,0.0,0.0,0.0
25568000000,159,25568000000,imu_link,-0.000394896560573,-0.378897749588,0.000988582550155,0.925437929911,0.0,0.0,0.0,0.0,0.0,0.0,0.0,0.0,0.0,-0.000351607828417,-0.00655664162286,0.00114018582768,0.0,0.0,0.0,0.0,0.0,0.0,0.0,0.0,0.0,6.73588013239,-0.00432061863499,6.96911042689,0.0,0.0,0.0,0.0,0.0,0.0,0.0,0.0,0.0
25572000000,160,25572000000,imu_link,-0.000395661248828,-0.378909787669,0.000990635032908,0.925432998603,0.0,0.0,0.0,0.0,0.0,0.0,0.0,0.0,0.0,2.80807933677e-05,-0.00650450652296,0.00109465262929,0.0,0.0,0.0,0.0,0.0,0.0,0.0,0.0,0.0,6.735275387,-0.00429634804239,6.96619146276,0.0,0.0,0.0,0.0,0.0,0.0,0.0,0.0,0.0
25576000000,161,25576000000,imu_link,-0.000395692761963,-0.37892173596,0.000992904503491,0.925428103952,0.0,0.0,0.0,0.0,0.0,0.0,0.0,0.0,0.0,0.000408494151449,-0.00645642025703,0.00105615246946,0.0,0.0,0.0,0.0,0.0,0.0,0.0,0.0,0.0,6.73484403376,-0.00432122198882,6.96429464074,0.0,0.0,0.0,0.0,0.0,0.0,0.0,0.0,0.0
25580000000,162,25580000000,imu_link,-0.000394971395458,-0.378933297386,0.000995383882019,0.925423367622,0.0,0.0,0.0,0.0,0.0,0.0,0.0,0.0,0.0,0.000796854864547,-0.00624783230605,0.00101063653638,0.0,0.0,0.0,0.0,0.0,0.0,0.0,0.0,0.0,6.73509655355,-0.00434794622227,6.96100073711,0.0,0.0,0.0,0.0,0.0,0.0,0.0,0.0,0.0
25584000000,163,25584000000,imu_link,-0.000393681732989,-0.378944127799,0.000998044334911,0.9254189305,0.0,0.0,0.0,0.0,0.0,0.0,0.0,0.0,0.0,0.00109454250882,-0.00585321234358,0.000986744079267,0.0,0.0,0.0,0.0,0.0,0.0,0.0,0.0,0.0,6.73514415403,-0.00434655289125,6.95680509048,0.0,0.0,0.0,0.0,0.0,0.0,0.0,0.0,0.0
25588000000,164,25588000000,imu_link,-0.000392239403926,-0.378954054277,0.00100080306265,0.925414863339,0.0,0.0,0.0,0.0,0.0,0.0,0.0,0.0,0.0,0.00118432703218,-0.00536495116281,0.00100328403993,0.0,0.0,0.0,0.0,0.0,0.0,0.0,0.0,0.0,6.73619451716,-0.00429808936458,6.9564585284,0.0,0.0,0.0,0.0,0.0,0.0,0.0,0.0,0.0
25592000000,165,25592000000,imu_link,-0.000390919433947,-0.378963131946,0.00100358068685,0.925411143565,0.0,0.0,0.0,0.0,0.0,0.0,0.0,0.0,0.0,0.00113178389462,-0.00490632220279,0.00103520444402,0.0,0.0,0.0,0.0,0.0,0.0,0.0,0.0,0.0,6.73692906101,-0.00430947825208,6.95744359631,0.0,0.0,0.0,0.0,0.0,0.0,0.0,0.0,0.0
25596000000,166,25596000000,imu_link,-0.000389782362143,-0.378971510503,0.00100633252148,0.925407709927,0.0,0.0,0.0,0.0,0.0,0.0,0.0,0.0,0.0,0.00104267597602,-0.00452852458716,0.00105792036304,0.0,0.0,0.0,0.0,0.0,0.0,0.0,0.0,0.0,6.73758750686,-0.00439623582552,6.95923455024,0.0,0.0,0.0,0.0,0.0,0.0,0.0,0.0,0.0
25600000000,167,25600000000,imu_link,-0.000388892019655,-0.378979478198,0.00100904997857,0.925404444384,0.0,0.0,0.0,0.0,0.0,0.0,0.0,0.0,0.0,0.000922238811692,-0.00430643427383,0.00108876093417,0.0,0.0,0.0,0.0,0.0,0.0,0.0,0.0,0.0,6.73711021346,-0.00449351224302,6.96013844066,0.0,0.0,0.0,0.0,0.0,0.0,0.0,0.0,0.0
25604000000,168,25604000000,imu_link,-0.000388533356132,-0.378987300782,0.00101167991785,0.925401238054,0.0,0.0,0.0,0.0,0.0,0.0,0.0,0.0,0.0,0.000659730768789,-0.00422778603929,0.00114901229142,0.0,0.0,0.0,0.0,0.0,0.0,0.0,0.0,0.0,6.73722911217,-0.00456551917839,6.96211474928,0.0,0.0,0.0,0.0,0.0,0.0,0.0,0.0,0.0
25608000000,169,25608000000,imu_link,-0.000388921630947,-0.378995182506,0.00101418401262,0.925398007242,0.0,0.0,0.0,0.0,0.0,0.0,0.0,0.0,0.0,0.000290240531704,-0.00425938741533,0.00123232493133,0.0,0.0,0.0,0.0,0.0,0.0,0.0,0.0,0.0,6.73719838899,-0.00468943119453,6.96310631051,0.0,0.0,0.0,0.0,0.0,0.0,0.0,0.0,0.0
25612000000,170,25612000000,imu_link,-0.000390119127242,-0.379003211516,0.00101659082977,0.925394715789,0.0,0.0,0.0,0.0,0.0,0.0,0.0,0.0,0.0,-0.000102705794717,-0.00433859807702,0.00134066230422,0.0,0.0,0.0,0.0,0.0,0.0,0.0,0.0,0.0,6.73753436504,-0.00486152657148,6.963197071,0.0,0.0,0.0,0.0,0.0,0.0,0.0,0.0,0.0
25616000000,171,25616000000,imu_link,-0.000392158266788,-0.379011427845,0.0010189570247,0.925391347215,0.0,0.0,0.0,0.0,0.0,0.0,0.0,0.0,0.0,-0.000499940137444,-0.00443944895198,0.001481361916,0.0,0.0,0.0,0.0,0.0,0.0,0.0,0.0,0.0,6.73960122259,-0.0050913968847,6.9662090264,0.0,0.0,0.0,0.0,0.0,0.0,0.0,0.0,0.0
25620000000,172,25620000000,imu_link,-0.000394891522883,-0.379019963854,0.00102132432134,0.925387847314,0.0,0.0,0.0,0.0,0.0,0.0,0.0,0.0,0.0,-0.000821084701301,-0.00461189733831,0.00161341495042,0.0,0.0,0.0,0.0,0.0,0.0,0.0,0.0,0.0,6.73933286838,-0.00537112009965,6.96586722327,0.0,0.0,0.0,0.0,0.0,0.0,0.0,0.0,0.0
25624000000,173,25624000000,imu_link,-0.00039799856909,-0.379029074208,0.00102373438669,0.925384111853,0.0,0.0,0.0,0.0,0.0,0.0,0.0,0.0,0.0,-0.000986269823843,-0.00492210182851,0.00170404762124,0.0,0.0,0.0,0.0,0.0,0.0,0.0,0.0,0.0,6.74101710831,-0.00564862135944,6.97009153654,0.0,0.0,0.0,0.0,0.0,0.0,0.0,0.0,0.0
25628000000,174,25628000000,imu_link,-0.000401055813878,-0.379038947237,0.00102621658324,0.925380063818,0.0,0.0,0.0,0.0,0.0,0.0,0.0,0.0,0.0,-0.000950009781224,-0.00533426257433,0.00172799228937,0.0,0.0,0.0,0.0,0.0,0.0,0.0,0.0,0.0,6.74266355815,-0.00588682977473,6.97365796426,0.0,0.0,0.0,0.0,0.0,0.0,0.0,0.0,0.0
25632000000,175,25632000000,imu_link,-0.000403634739237,-0.379049473239,0.00102880037503,0.92537574827,0.0,0.0,0.0,0.0,0.0,0.0,0.0,0.0,0.0,-0.000709830563503,-0.00568735121128,0.00168435486703,0.0,0.0,0.0,0.0,0.0,0.0,0.0,0.0,0.0,6.74220637503,-0.00605324692695,6.97052648468,0.0,0.0,0.0,0.0,0.0,0.0,0.0,0.0,0.0
25636000000,176,25636000000,imu_link,-0.000405624407063,-0.379060219604,0.00103149574079,0.925371342435,0.0,0.0,0.0,0.0,0.0,0.0,0.0,0.0,0.0,-0.000416173796354,-0.00580674813209,0.0016243018861,0.0,0.0,0.0,0.0,0.0,0.0,0.0,0.0,0.0,6.74211645326,-0.00605844959512,6.96511205219,0.0,0.0,0.0,0.0,0.0,0.0,0.0,0.0,0.0
25640000000,177,25640000000,imu_link,-0.000407366056562,-0.379070833863,0.00103428042424,0.925366990567,0.0,0.0,0.0,0.0,0.0,0.0,0.0,0.0,0.0,-0.000284411801695,-0.0057355420772,0.00161861991515,0.0,0.0,0.0,0.0,0.0,0.0,0.0,0.0,0.0,6.74225755848,-0.00596376371278,6.96101285563,0.0,0.0,0.0,0.0,0.0,0.0,0.0,0.0,0.0
25644000000,178,25644000000,imu_link,-0.000409301188408,-0.379081108634,0.00103711967673,0.925362777473,0.0,0.0,0.0,0.0,0.0,0.0,0.0,0.0,0.0,-0.00036338629367,-0.00555207483218,0.00168053725384,0.0,0.0,0.0,0.0,0.0,0.0,0.0,0.0,0.0,6.74295841988,-0.0059230412835,6.95968623805,0.0,0.0,0.0,0.0,0.0,0.0,0.0,0.0,0.0
25648000000,179,25648000000,imu_link,-0.000411653060656,-0.379090909665,0.00103998392264,0.925358758096,0.0,0.0,0.0,0.0,0.0,0.0,0.0,0.0,0.0,-0.000551181749784,-0.00529595618909,0.00177108694562,0.0,0.0,0.0,0.0,0.0,0.0,0.0,0.0,0.0,6.74229037065,-0.00599074204095,6.9563245944,0.0,0.0,0.0,0.0,0.0,0.0,0.0,0.0,0.0
25652000000,180,25652000000,imu_link,-0.000414241397758,-0.379100228499,0.00104286310777,0.925354936007,0.0,0.0,0.0,0.0,0.0,0.0,0.0,0.0,0.0,-0.000657466155623,-0.00503533889897,0.00182281651006,0.0,0.0,0.0,0.0,0.0,0.0,0.0,0.0,0.0,6.7416258842,-0.00615918757339,6.95429472977,0.0,0.0,0.0,0.0,0.0,0.0,0.0,0.0,0.0
25656000000,181,25656000000,imu_link,-0.000416692860453,-0.379109038701,0.00104578326749,0.925351322191,0.0,0.0,0.0,0.0,0.0,0.0,0.0,0.0,0.0,-0.000586062355592,-0.00476060756631,0.0018158267262,0.0,0.0,0.0,0.0,0.0,0.0,0.0,0.0,0.0,6.74246776405,-0.006313955188,6.95475994072,0.0,0.0,0.0,0.0,0.0,0.0,0.0,0.0,0.0
25660000000,182,25660000000,imu_link,-0.00041856719341,-0.379117482864,0.00104879378345,0.925347858386,0.0,0.0,0.0,0.0,0.0,0.0,0.0,0.0,0.0,-0.00030168838924,-0.00456313600091,0.00174823262575,0.0,0.0,0.0,0.0,0.0,0.0,0.0,0.0,0.0,6.74281145994,-0.0064309830485,6.95569915359,0.0,0.0,0.0,0.0,0.0,0.0,0.0,0.0,0.0
25664000000,183,25664000000,imu_link,-0.000419588296838,-0.379125757842,0.00105190987164,0.925344464063,0.0,0.0,0.0,0.0,0.0,0.0,0.0,0.0,0.0,0.000113194072431,-0.00447215645448,0.00163534000383,0.0,0.0,0.0,0.0,0.0,0.0,0.0,0.0,0.0,6.74289284323,-0.00651244240124,6.95684585202,0.0,0.0,0.0,0.0,0.0,0.0,0.0,0.0,0.0
25668000000,184,25668000000,imu_link,-0.000419683988389,-0.379134152612,0.00105511611519,0.925341020878,0.0,0.0,0.0,0.0,0.0,0.0,0.0,0.0,0.0,0.00055837330273,-0.00453734940062,0.00150162921015,0.0,0.0,0.0,0.0,0.0,0.0,0.0,0.0,0.0,6.74372851216,-0.00654802996155,6.9602152047,0.0,0.0,0.0,0.0,0.0,0.0,0.0,0.0,0.0
25672000000,185,25672000000,imu_link,-0.00041911861,-0.379142962847,0.00105837451734,0.925337407601,0.0,0.0,0.0,0.0,0.0,0.0,0.0,0.0,0.0,0.000873863549805,-0.00476217646091,0.0014004469158,0.0,0.0,0.0,0.0,0.0,0.0,0.0,0.0,0.0,6.74521272174,-0.00651129312436,6.96445192369,0.0,0.0,0.0,0.0,0.0,0.0,0.0,0.0,0.0
25676000000,186,25676000000,imu_link,-0.000418383479287,-0.37915222679,0.00106162621025,0.925333608395,0.0,0.0,0.0,0.0,0.0,0.0,0.0,0.0,0.0,0.000950851695096,-0.00500742831024,0.00136516586934,0.0,0.0,0.0,0.0,0.0,0.0,0.0,0.0,0.0,6.74638898219,-0.00646878186042,6.96576622356,0.0,0.0,0.0,0.0,0.0,0.0,0.0,0.0,0.0
25680000000,187,25680000000,imu_link,-0.000417874382073,-0.379161717904,0.0010648318497,0.925329715934,0.0,0.0,0.0,0.0,0.0,0.0,0.0,0.0,0.0,0.000837402772152,-0.00513008173843,0.00138671099772,0.0,0.0,0.0,0.0,0.0,0.0,0.0,0.0,0.0,6.7466875818,-0.00646473298648,6.96320322926,0.0,0.0,0.0,0.0,0.0,0.0,0.0,0.0,0.0
25684000000,188,25684000000,imu_link,-0.000417739517756,-0.379171274432,0.00106795702253,0.925325796467,0.0,0.0,0.0,0.0,0.0,0.0,0.0,0.0,0.0,0.000648962959931,-0.00516525009241,0.00142043002395,0.0,0.0,0.0,0.0,0.0,0.0,0.0,0.0,0.0,6.746454204,-0.00653262496282,6.96007293004,0.0,0.0,0.0,0.0,0.0,0.0,0.0,0.0,0.0
25688000000,189,25688000000,imu_link,-0.000417775288345,-0.379180633788,0.00107098644719,0.925321957706,0.0,0.0,0.0,0.0,0.0,0.0,0.0,0.0,0.0,0.000551986182815,-0.00505861450288,0.0014084789104,0.0,0.0,0.0,0.0,0.0,0.0,0.0,0.0,0.0,6.74747892971,-0.00668984533349,6.95861003512,0.0,0.0,0.0,0.0,0.0,0.0,0.0,0.0,0.0
25692000000,190,25692000000,imu_link,-0.000417513216808,-0.379189464679,0.0010739251042,0.925318335625,0.0,0.0,0.0,0.0,0.0,0.0,0.0,0.0,0.0,0.000672905698642,-0.00477317438397,0.00131001064094,0.0,0.0,0.0,0.0,0.0,0.0,0.0,0.0,0.0,6.74844811349,-0.00686412688695,6.95643073244,0.0,0.0,0.0,0.0,0.0,0.0,0.0,0.0,0.0
25696000000,191,25696000000,imu_link,-0.000416546755865,-0.379197562136,0.0010767957243,0.925315014398,0.0,0.0,0.0,0.0,0.0,0.0,0.0,0.0,0.0,0.000986355106111,-0.00437716796564,0.00114497578051,0.0,0.0,0.0,0.0,0.0,0.0,0.0,0.0,0.0,6.74934737779,-0.00696613739045,6.95529503557,0.0,0.0,0.0,0.0,0.0,0.0,0.0,0.0,0.0
25700000000,192,25700000000,imu_link,-0.000414726623586,-0.379204829658,0.00107961789186,0.925312033636,0.0,0.0,0.0,0.0,0.0,0.0,0.0,0.0,0.0,0.00137264376031,-0.00392909006704,0.000960693349948,0.0,0.0,0.0,0.0,0.0,0.0,0.0,0.0,0.0,6.74880049311,-0.0069594644665,6.95235404289,0.0,0.0,0.0,0.0,0.0,0.0,0.0,0.0,0.0
25704000000,193,25704000000,imu_link,-0.000412053019217,-0.379211205269,0.00108241215344,0.925309418732,0.0,0.0,0.0,0.0,0.0,0.0,0.0,0.0,0.0,0.00176277404343,-0.00344752973257,0.000785949566539,0.0,0.0,0.0,0.0,0.0,0.0,0.0,0.0,0.0,6.74828626765,-0.00690482241529,6.94973817994,0.0,0.0,0.0,0.0,0.0,0.0,0.0,0.0,0.0
25708000000,194,25708000000,imu_link,-0.000408686446775,-0.379216832598,0.00108520340317,0.925307110739,0.0,0.0,0.0,0.0,0.0,0.0,0.0,0.0,0.0,0.00208327612918,-0.00304351563408,0.000653153556823,0.0,0.0,0.0,0.0,0.0,0.0,0.0,0.0,0.0,6.74846950972,-0.00688952897211,6.95070591216,0.0,0.0,0.0,0.0,0.0,0.0,0.0,0.0,0.0
25712000000,195,25712000000,imu_link,-0.000404751437593,-0.379221835721,0.00108801081114,0.925305058735,0.0,0.0,0.0,0.0,0.0,0.0,0.0,0.0,0.0,0.00234972015175,-0.00270649898781,0.000552837487217,0.0,0.0,0.0,0.0,0.0,0.0,0.0,0.0,0.0,6.74846949503,-0.0069511053331,6.9510737732,0.0,0.0,0.0,0.0,0.0,0.0,0.0,0.0,0.0
25716000000,196,25716000000,imu_link,-0.000400455479202,-0.379226407073,0.00109081706126,0.92530318379,0.0,0.0,0.0,0.0,0.0,0.0,0.0,0.0,0.0,0.00251676539329,-0.0024733621114,0.000483852950638,0.0,0.0,0.0,0.0,0.0,0.0,0.0,0.0,0.0,6.74934107699,-0.00698676119475,6.95358554052,0.0,0.0,0.0,0.0,0.0,0.0,0.0,0.0,0.0
25720000000,197,25720000000,imu_link,-0.00039625768837,-0.379230790803,0.00109351091289,0.925301385777,0.0,0.0,0.0,0.0,0.0,0.0,0.0,0.0,0.0,0.00245015351172,-0.00237189600117,0.000450461084175,0.0,0.0,0.0,0.0,0.0,0.0,0.0,0.0,0.0,6.750566981,-0.0069893508099,6.95705592303,0.0,0.0,0.0,0.0,0.0,0.0,0.0,0.0,0.0
25724000000,198,25724000000,imu_link,-0.000392457333153,-0.37923529365,0.00109597876507,0.925299538992,0.0,0.0,0.0,0.0,0.0,0.0,0.0,0.0,0.0,0.00222335188474,-0.00243599072588,0.000421265261884,0.0,0.0,0.0,0.0,0.0,0.0,0.0,0.0,0.0,6.75160854898,-0.00704099361809,6.96077419724,0.0,0.0,0.0,0.0,0.0,0.0,0.0,0.0,0.0
25728000000,199,25728000000,imu_link,-0.00038912133879,-0.379240379698,0.00109812235119,0.925297453319,0.0,0.0,0.0,0.0,0.0,0.0,0.0,0.0,0.0,0.00194666240896,-0.00275078841684,0.000359311120531,0.0,0.0,0.0,0.0,0.0,0.0,0.0,0.0,0.0,6.75283139696,-0.00715289995491,6.96629608435,0.0,0.0,0.0,0.0,0.0,0.0,0.0,0.0,0.0
25732000000,200,25732000000,imu_link,-0.000386034201044,-0.379246255108,0.00109995790449,0.925295044328,0.0,0.0,0.0,0.0,0.0,0.0,0.0,0.0,0.0,0.00177262365987,-0.00317709603231,0.000264012314216,0.0,0.0,0.0,0.0,0.0,0.0,0.0,0.0,0.0,6.75307486269,-0.00733058240759,6.96744493864,0.0,0.0,0.0,0.0,0.0,0.0,0.0,0.0,0.0
25736000000,201,25736000000,imu_link,-0.000383120712911,-0.379252986115,0.001101520396,0.925292284845,0.0,0.0,0.0,0.0,0.0,0.0,0.0,0.0,0.0,0.00163996805217,-0.00363924943512,0.000170636549674,0.0,0.0,0.0,0.0,0.0,0.0,0.0,0.0,0.0,6.75283768511,-0.00744731347864,6.96636192999,0.0,0.0,0.0,0.0,0.0,0.0,0.0,0.0,0.0
25740000000,202,25740000000,imu_link,-0.000380447655973,-0.379260280818,0.00110282046771,0.925289294459,0.0,0.0,0.0,0.0,0.0,0.0,0.0,0.0,0.0,0.00147861704941,-0.00394364390638,9.48403601266e-05,0.0,0.0,0.0,0.0,0.0,0.0,0.0,0.0,0.0,6.75273873226,-0.00752520467261,6.96209308187,0.0,0.0,0.0,0.0,0.0,0.0,0.0,0.0,0.0
25744000000,203,25744000000,imu_link,-0.000378184089459,-0.379267623035,0.00110386648527,0.925286284656,0.0,0.0,0.0,0.0,0.0,0.0,0.0,0.0,0.0,0.00124096227747,-0.00396903413848,5.49569597105e-05,0.0,0.0,0.0,0.0,0.0,0.0,0.0,0.0,0.0,6.75437113868,-0.0075896649212,6.95913617219,0.0,0.0,0.0,0.0,0.0,0.0,0.0,0.0,0.0
25748000000,204,25748000000,imu_link,-0.000376276527558,-0.379274443305,0.00110466206622,0.92528348888,0.0,0.0,0.0,0.0,0.0,0.0,0.0,0.0,0.0,0.00102909648719,-0.00368672777204,6.58525882677e-06,0.0,0.0,0.0,0.0,0.0,0.0,0.0,0.0,0.0,6.75498859612,-0.00770149655786,6.95380781441,0.0,0.0,0.0,0.0,0.0,0.0,0.0,0.0,0.0
25752000000,205,25752000000,imu_link,-0.000374773108972,-0.379280278056,0.00110523824109,0.925281097111,0.0,0.0,0.0,0.0,0.0,0.0,0.0,0.0,0.0,0.000801135701116,-0.00315390646972,-1.83182701587e-05,0.0,0.0,0.0,0.0,0.0,0.0,0.0,0.0,0.0,6.75543118453,-0.00779263456155,6.94942578639,0.0,0.0,0.0,0.0,0.0,0.0,0.0,0.0,0.0
25756000000,206,25756000000,imu_link,-0.000373673341998,-0.379284903245,0.00110562489345,0.925279201178,0.0,0.0,0.0,0.0,0.0,0.0,0.0,0.0,0.0,0.000579210363142,-0.00250002566559,-2.9497869819e-05,0.0,0.0,0.0,0.0,0.0,0.0,0.0,0.0,0.0,6.75565868371,-0.00792392949234,6.94715345545,0.0,0.0,0.0,0.0,0.0,0.0,0.0,0.0,0.0
25760000000,207,25760000000,imu_link,-0.000372878601277,-0.379288423512,0.00110585567754,0.925277758208,0.0,0.0,0.0,0.0,0.0,0.0,0.0,0.0,0.0,0.000409229343377,-0.00190274555539,-4.38067430192e-05,0.0,0.0,0.0,0.0,0.0,0.0,0.0,0.0,0.0,6.75488035519,-0.00809727334341,6.94591355421,0.0,0.0,0.0,0.0,0.0,0.0,0.0,0.0,0.0
25764000000,208,25764000000,imu_link,-0.00037207401569,-0.379290927204,0.00110600370791,0.925276732042,0.0,0.0,0.0,0.0,0.0,0.0,0.0,0.0,0.0,0.000398729998848,-0.0013533842041,-8.39997843671e-05,0.0,0.0,0.0,0.0,0.0,0.0,0.0,0.0,0.0,6.75571513516,-0.00827853185789,6.94736806737,0.0,0.0,0.0,0.0,0.0,0.0,0.0,0.0,0.0
25768000000,209,25768000000,imu_link,-0.000370945276781,-0.379292341462,0.00110614510389,0.92527615259,0.0,0.0,0.0,0.0,0.0,0.0,0.0,0.0,0.0,0.000548123142783,-0.00076483100121,-0.000148587677137,0.0,0.0,0.0,0.0,0.0,0.0,0.0,0.0,0.0,6.7566917393,-0.00839323148579,6.94755350805,0.0,0.0,0.0,0.0,0.0,0.0,0.0,0.0,0.0
25772000000,210,25772000000,imu_link,-0.000369501567228,-0.37929245228,0.00110631363589,0.925276107539,0.0,0.0,0.0,0.0,0.0,0.0,0.0,0.0,0.0,0.000699806813037,-6.06419333541e-05,-0.000195820304187,0.0,0.0,0.0,0.0,0.0,0.0,0.0,0.0,0.0,6.75710421763,-0.00837550781562,6.94571968722,0.0,0.0,0.0,0.0,0.0,0.0,0.0,0.0,0.0
25776000000,211,25776000000,imu_link,-0.000367864285882,-0.379291237033,0.00110652385755,0.925276606097,0.0,0.0,0.0,0.0,0.0,0.0,0.0,0.0,0.0,0.000798100730886,0.000655824813312,-0.000213298952974,0.0,0.0,0.0,0.0,0.0,0.0,0.0,0.0,0.0,6.75639004959,-0.00834024494141,6.94343168081,0.0,0.0,0.0,0.0,0.0,0.0,0.0,0.0,0.0
25780000000,212,25780000000,imu_link,-0.000366142992616,-0.379289037244,0.00110676213694,0.925277508234,0.0,0.0,0.0,0.0,0.0,0.0,0.0,0.0,0.0,0.000842907829587,0.00118779668366,-0.000216293059079,0.0,0.0,0.0,0.0,0.0,0.0,0.0,0.0,0.0,6.75721288838,-0.0083270484008,6.94739691492,0.0,0.0,0.0,0.0,0.0,0.0,0.0,0.0,0.0
25784000000,213,25784000000,imu_link,-0.00036433169478,-0.379286450645,0.00110701860583,0.925278568935,0.0,0.0,0.0,0.0,0.0,0.0,0.0,0.0,0.0,0.000888240052824,0.00139676766226,-0.000224963696433,0.0,0.0,0.0,0.0,0.0,0.0,0.0,0.0,0.0,6.757398877,-0.00833843391497,6.95231189975,0.0,0.0,0.0,0.0,0.0,0.0,0.0,0.0,0.0
25788000000,214,25788000000,imu_link,-0.000362440569589,-0.379284011216,0.00110731345245,0.925279569282,0.0,0.0,0.0,0.0,0.0,0.0,0.0,0.0,0.0,0.000932356944355,0.00131718428902,-0.000222340772914,0.0,0.0,0.0,0.0,0.0,0.0,0.0,0.0,0.0,6.75896087352,-0.00835560670814,6.95905152699,0.0,0.0,0.0,0.0,0.0,0.0,0.0,0.0,0.0
25792000000,215,25792000000,imu_link,-0.000360811374551,-0.379281862889,0.00110761178308,0.925280450185,0.0,0.0,0.0,0.0,0.0,0.0,0.0,0.0,0.0,0.000811655534839,0.00116000171717,-0.000171042591154,0.0,0.0,0.0,0.0,0.0,0.0,0.0,0.0,0.0,6.75977518285,-0.00831935342045,6.96091166385,0.0,0.0,0.0,0.0,0.0,0.0,0.0,0.0,0.0
25796000000,216,25796000000,imu_link,-0.000359953749061,-0.379279995214,0.00110786863569,0.925281215788,0.0,0.0,0.0,0.0,0.0,0.0,0.0,0.0,0.0,0.000446654265645,0.00100872984266,-4.38976055754e-05,0.0,0.0,0.0,0.0,0.0,0.0,0.0,0.0,0.0,6.76106545988,-0.00831308372868,6.96222665647,0.0,0.0,0.0,0.0,0.0,0.0,0.0,0.0,0.0
25800000000,217,25800000000,imu_link,-0.000360410515681,-0.379278527377,0.00110801749353,0.925281817109,0.0,0.0,0.0,0.0,0.0,0.0,0.0,0.0,0.0,-0.000182168076216,0.000793341638865,0.000155419988713,0.0,0.0,0.0,0.0,0.0,0.0,0.0,0.0,0.0,6.76179917317,-0.00840716268624,6.9636562078,0.0,0.0,0.0,0.0,0.0,0.0,0.0,0.0,0.0
25804000000,218,25804000000,imu_link,-0.000362539238931,-0.379277750011,0.00110802528625,0.925282134914,0.0,0.0,0.0,0.0,0.0,0.0,0.0,0.0,0.0,-0.000982868715877,0.000421087538801,0.000407258757919,0.0,0.0,0.0,0.0,0.0,0.0,0.0,0.0,0.0,6.76083501498,-0.00863168747954,6.96363200935,0.0,0.0,0.0,0.0,0.0,0.0,0.0,0.0,0.0
25808000000,219,25808000000,imu_link,-0.000366189730029,-0.379278049818,0.00110795585683,0.925282010667,0.0,0.0,0.0,0.0,0.0,0.0,0.0,0.0,0.0,-0.00170222223398,-0.000160230123853,0.000660168613074,0.0,0.0,0.0,0.0,0.0,0.0,0.0,0.0,0.0,6.76007509771,-0.00895981214415,6.96455184241,0.0,0.0,0.0,0.0,0.0,0.0,0.0,0.0,0.0
25812000000,220,25812000000,imu_link,-0.000370930716553,-0.379279678291,0.00110784915538,0.925281341386,0.0,0.0,0.0,0.0,0.0,0.0,0.0,0.0,0.0,-0.00221463421004,-0.000877674047363,0.000849784198871,0.0,0.0,0.0,0.0,0.0,0.0,0.0,0.0,0.0,6.76044856085,-0.00929436610716,6.96607206321,0.0,0.0,0.0,0.0,0.0,0.0,0.0,0.0,0.0
25816000000,221,25816000000,imu_link,-0.000376473588663,-0.379282623375,0.00110772117526,0.925280132083,0.0,0.0,0.0,0.0,0.0,0.0,0.0,0.0,0.0,-0.00259048383909,-0.00158875381244,0.000992064216787,0.0,0.0,0.0,0.0,0.0,0.0,0.0,0.0,0.0,6.75973927189,-0.0094998205985,6.96328230763,0.0,0.0,0.0,0.0,0.0,0.0,0.0,0.0,0.0
25820000000,222,25820000000,imu_link,-0.000382842510245,-0.379286612492,0.00110755338874,0.925278494477,0.0,0.0,0.0,0.0,0.0,0.0,0.0,0.0,0.0,-0.00298085522935,-0.00215252369217,0.00113034198317,0.0,0.0,0.0,0.0,0.0,0.0,0.0,0.0,0.0,6.76002972895,-0.00959495066492,6.95972503124,0.0,0.0,0.0,0.0,0.0,0.0,0.0,0.0,0.0
25824000000,223,25824000000,imu_link,-0.000390246664701,-0.379291205001,0.0011073109009,0.925276609117,0.0,0.0,0.0,0.0,0.0,0.0,0.0,0.0,0.0,-0.00347434276291,-0.0024780743087,0.00129212890276,0.0,0.0,0.0,0.0,0.0,0.0,0.0,0.0,0.0,6.76231945597,-0.00967592508273,6.95847275379,0.0,0.0,0.0,0.0,0.0,0.0,0.0,0.0,0.0
25828000000,224,25828000000,imu_link,-0.000398842561625,-0.379295948255,0.00110696601838,0.925274661486,0.0,0.0,0.0,0.0,0.0,0.0,0.0,0.0,0.0,-0.00404520278923,-0.00255894401036,0.00147077098299,0.0,0.0,0.0,0.0,0.0,0.0,0.0,0.0,0.0,6.76282760725,-0.00979305474042,6.95424527094,0.0,0.0,0.0,0.0,0.0,0.0,0.0,0.0,0.0
25832000000,225,25832000000,imu_link,-0.000408505127655,-0.379300484915,0.00110649439995,0.925272798118,0.0,0.0,0.0,0.0,0.0,0.0,0.0,0.0,0.0,-0.00456258779617,-0.00244677008747,0.00161442441678,0.0,0.0,0.0,0.0,0.0,0.0,0.0,0.0,0.0,6.76267434289,-0.00997137077475,6.94978536512,0.0,0.0,0.0,0.0,0.0,0.0,0.0,0.0,0.0
25836000000,226,25836000000,imu_link,-0.000418718255064,-0.379304628009,0.00110588724961,0.925271095874,0.0,0.0,0.0,0.0,0.0,0.0,0.0,0.0,0.0,-0.00484275053982,-0.00223380270338,0.00165612776606,0.0,0.0,0.0,0.0,0.0,0.0,0.0,0.0,0.0,6.76279712741,-0.0101876164816,6.94759032553,0.0,0.0,0.0,0.0,0.0,0.0,0.0,0.0,0.0
25840000000,227,25840000000,imu_link,-0.000428879307598,-0.379308370606,0.00110513977871,0.925269557868,0.0,0.0,0.0,0.0,0.0,0.0,0.0,0.0,0.0,-0.00484501513379,-0.00201737019145,0.00158132740115,0.0,0.0,0.0,0.0,0.0,0.0,0.0,0.0,0.0,6.76350071367,-0.0103401499018,6.94816331676,0.0,0.0,0.0,0.0,0.0,0.0,0.0,0.0,0.0
25844000000,228,25844000000,imu_link,-0.000438635084683,-0.379311893968,0.0011042767258,0.925268109937,0.0,0.0,0.0,0.0,0.0,0.0,0.0,0.0,0.0,-0.00467930076852,-0.00189905978183,0.00145099019817,0.0,0.0,0.0,0.0,0.0,0.0,0.0,0.0,0.0,6.76313905195,-0.0103670211022,6.94844774573,0.0,0.0,0.0,0.0,0.0,0.0,0.0,0.0,0.0
25848000000,229,25848000000,imu_link,-0.000447959625745,-0.37931530219,0.00110331648141,0.925266709414,0.0,0.0,0.0,0.0,0.0,0.0,0.0,0.0,0.0,-0.00449815527177,-0.00183701806718,0.00132423870774,0.0,0.0,0.0,0.0,0.0,0.0,0.0,0.0,0.0,6.7634000422,-0.0103026792756,6.94903680892,0.0,0.0,0.0,0.0,0.0,0.0,0.0,0.0,0.0
25852000000,230,25852000000,imu_link,-0.000457218038497,-0.379318748478,0.00110222331842,0.925265293366,0.0,0.0,0.0,0.0,0.0,0.0,0.0,0.0,0.0,-0.00449279561578,-0.00185758004103,0.00125020442905,0.0,0.0,0.0,0.0,0.0,0.0,0.0,0.0,0.0,6.76325755144,-0.0101694512975,6.94928088201,0.0,0.0,0.0,0.0,0.0,0.0,0.0,0.0,0.0
25856000000,231,25856000000,imu_link,-0.00046665452598,-0.37932228962,0.00110097023635,0.925263838424,0.0,0.0,0.0,0.0,0.0,0.0,0.0,0.0,0.0,-0.0046055701176,-0.00190870406671,0.00120999393696,0.0,0.0,0.0,0.0,0.0,0.0,0.0,0.0,0.0,6.76433148154,-0.0101188545983,6.95070134378,0.0,0.0,0.0,0.0,0.0,0.0,0.0,0.0,0.0
25860000000,232,25860000000,imu_link,-0.000476406330349,-0.379325901765,0.0010995224702,0.925262354329,0.0,0.0,0.0,0.0,0.0,0.0,0.0,0.0,0.0,-0.00478841566857,-0.00194686270275,0.00117972970903,0.0,0.0,0.0,0.0,0.0,0.0,0.0,0.0,0.0,6.76388443895,-0.0100652330014,6.94876252519,0.0,0.0,0.0,0.0,0.0,0.0,0.0,0.0,0.0
25864000000,233,25864000000,imu_link,-0.000486342192654,-0.379329510895,0.00109788532087,0.925260871475,0.0,0.0,0.0,0.0,0.0,0.0,0.0,0.0,0.0,-0.00490948362841,-0.00194508639199,0.0011270241508,0.0,0.0,0.0,0.0,0.0,0.0,0.0,0.0,0.0,6.76393073509,-0.0100316257674,6.94730180386,0.0,0.0,0.0,0.0,0.0,0.0,0.0,0.0,0.0
25868000000,234,25868000000,imu_link,-0.000496031392604,-0.379333007581,0.00109611120048,0.92525943489,0.0,0.0,0.0,0.0,0.0,0.0,0.0,0.0,0.0,-0.00482127572016,-0.0018843924717,0.0010168759613,0.0,0.0,0.0,0.0,0.0,0.0,0.0,0.0,0.0,6.7660775623,-0.0100666956853,6.94936935484,0.0,0.0,0.0,0.0,0.0,0.0,0.0,0.0,0.0
25872000000,235,25872000000,imu_link,-0.000505049387285,-0.379336515759,0.00109432104957,0.925257993858,0.0,0.0,0.0,0.0,0.0,0.0,0.0,0.0,0.0,-0.00451380407124,-0.00189091648021,0.000882154193833,0.0,0.0,0.0,0.0,0.0,0.0,0.0,0.0,0.0,6.76740364373,-0.0100656199862,6.95176686183,0.0,0.0,0.0,0.0,0.0,0.0,0.0,0.0,0.0
25876000000,236,25876000000,imu_link,-0.000513206287729,-0.379340113759,0.00109260475959,0.925256516285,0.0,0.0,0.0,0.0,0.0,0.0,0.0,0.0,0.0,-0.00410148620844,-0.00193989148548,0.000752999471416,0.0,0.0,0.0,0.0,0.0,0.0,0.0,0.0,0.0,6.76829818727,-0.0099821629693,6.95287734925,0.0,0.0,0.0,0.0,0.0,0.0,0.0,0.0,0.0
25880000000,237,25880000000,imu_link,-0.000520682109745,-0.379344061584,0.00109099236776,0.925254895457,0.0,0.0,0.0,0.0,0.0,0.0,0.0,0.0,0.0,-0.00376692158367,-0.00212930003677,0.00067187399996,0.0,0.0,0.0,0.0,0.0,0.0,0.0,0.0,0.0,6.76909882062,-0.00981620934904,6.95555886509,0.0,0.0,0.0,0.0,0.0,0.0,0.0,0.0,0.0
25884000000,238,25884000000,imu_link,-0.00052785827418,-0.379348734662,0.00108942069998,0.92525297732,0.0,0.0,0.0,0.0,0.0,0.0,0.0,0.0,0.0,-0.00362104057238,-0.00252138745865,0.000633850771763,0.0,0.0,0.0,0.0,0.0,0.0,0.0,0.0,0.0,6.76941378738,-0.00964712407129,6.95858497943,0.0,0.0,0.0,0.0,0.0,0.0,0.0,0.0,0.0
25888000000,239,25888000000,imu_link,-0.000535109174671,-0.379354576909,0.00108781549918,0.925250579731,0.0,0.0,0.0,0.0,0.0,0.0,0.0,0.0,0.0,-0.00366273920681,-0.0031531662018,0.000632465604087,0.0,0.0,0.0,0.0,0.0,0.0,0.0,0.0,0.0,6.76977797157,-0.00952681582695,6.96231423763,0.0,0.0,0.0,0.0,0.0,0.0,0.0,0.0,0.0
25892000000,240,25892000000,imu_link,-0.000542648781273,-0.379361745484,0.00108615114182,0.925247638133,0.0,0.0,0.0,0.0,0.0,0.0,0.0,0.0,0.0,-0.00380838956275,-0.00386977214844,0.000659800303332,0.0,0.0,0.0,0.0,0.0,0.0,0.0,0.0,0.0,6.76998138487,-0.00951772720189,6.9630255279,0.0,0.0,0.0,0.0,0.0,0.0,0.0,0.0,0.0
25896000000,241,25896000000,imu_link,-0.000550480821616,-0.379370075249,0.00108443594292,0.925244220179,0.0,0.0,0.0,0.0,0.0,0.0,0.0,0.0,0.0,-0.00395407990365,-0.00449714926773,0.000691692524588,0.0,0.0,0.0,0.0,0.0,0.0,0.0,0.0,0.0,6.76998198828,-0.00956185019888,6.96046405951,0.0,0.0,0.0,0.0,0.0,0.0,0.0,0.0,0.0
25900000000,242,25900000000,imu_link,-0.000558433961718,-0.379379265218,0.00108269270106,0.925240449316,0.0,0.0,0.0,0.0,0.0,0.0,0.0,0.0,0.0,-0.00401598621428,-0.00496196723892,0.000701644630854,0.0,0.0,0.0,0.0,0.0,0.0,0.0,0.0,0.0,6.77078893463,-0.0096473601707,6.95762716008,0.0,0.0,0.0,0.0,0.0,0.0,0.0,0.0,0.0
25904000000,243,25904000000,imu_link,-0.000566154119967,-0.379388996844,0.00108095735304,0.925236456304,0.0,0.0,0.0,0.0,0.0,0.0,0.0,0.0,0.0,-0.00390706197059,-0.0052548160436,0.000661071254503,0.0,0.0,0.0,0.0,0.0,0.0,0.0,0.0,0.0,6.77121393421,-0.00969721015368,6.95439168404,0.0,0.0,0.0,0.0,0.0,0.0,0.0,0.0,0.0
25908000000,244,25908000000,imu_link,-0.000573267926476,-0.379399121174,0.00107923714824,0.925232302432,0.0,0.0,0.0,0.0,0.0,0.0,0.0,0.0,0.0,-0.00362393779933,-0.00546733462549,0.000553030977389,0.0,0.0,0.0,0.0,0.0,0.0,0.0,0.0,0.0,6.77123118794,-0.00966274049623,6.95246891731,0.0,0.0,0.0,0.0,0.0,0.0,0.0,0.0,0.0
25912000000,245,25912000000,imu_link,-0.000579605464631,-0.379409487324,0.00107750590924,0.925228049708,0.0,0.0,0.0,0.0,0.0,0.0,0.0,0.0,0.0,-0.00326707552892,-0.00559837188695,0.000400652638201,0.0,0.0,0.0,0.0,0.0,0.0,0.0,0.0,0.0,6.77144907351,-0.00954944237967,6.95085120365,0.0,0.0,0.0,0.0,0.0,0.0,0.0,0.0,0.0
25916000000,246,25916000000,imu_link,-0.000585425460104,-0.379419745118,0.0010757289605,0.925223841618,0.0,0.0,0.0,0.0,0.0,0.0,0.0,0.0,0.0,-0.00303625306863,-0.00554004353734,0.000281333724661,0.0,0.0,0.0,0.0,0.0,0.0,0.0,0.0,0.0,6.77317436722,-0.00936046765544,6.94979682111,0.0,0.0,0.0,0.0,0.0,0.0,0.0,0.0,0.0
25920000000,247,25920000000,imu_link,-0.000591358395604,-0.3794293736,0.00107386378663,0.925219891464,0.0,0.0,0.0,0.0,0.0,0.0,0.0,0.0,0.0,-0.00310482366494,-0.00519989697657,0.000261991037805,0.0,0.0,0.0,0.0,0.0,0.0,0.0,0.0,0.0,6.77461134061,-0.00917387713619,6.94703646686,0.0,0.0,0.0,0.0,0.0,0.0,0.0,0.0,0.0
25924000000,248,25924000000,imu_link,-0.000597866021754,-0.379438010195,0.00107188627803,0.925216347691,0.0,0.0,0.0,0.0,0.0,0.0,0.0,0.0,0.0,-0.00339134008687,-0.00466360132904,0.000319126216824,0.0,0.0,0.0,0.0,0.0,0.0,0.0,0.0,0.0,6.77570234249,-0.00910948198675,6.94521363776,0.0,0.0,0.0,0.0,0.0,0.0,0.0,0.0,0.0
25928000000,249,25928000000,imu_link,-0.000605094532709,-0.379445634861,0.00106981243319,0.925213218424,0.0,0.0,0.0,0.0,0.0,0.0,0.0,0.0,0.0,-0.00374243786176,-0.00411642023476,0.000411406176205,0.0,0.0,0.0,0.0,0.0,0.0,0.0,0.0,0.0,6.77546768837,-0.00916426202526,6.9443635429,0.0,0.0,0.0,0.0,0.0,0.0,0.0,0.0,0.0
25932000000,250,25932000000,imu_link,-0.000612790856234,-0.37945264611,0.00106774489083,0.925210340284,0.0,0.0,0.0,0.0,0.0,0.0,0.0,0.0,0.0,-0.00395725122507,-0.00378475656134,0.00050312772316,0.0,0.0,0.0,0.0,0.0,0.0,0.0,0.0,0.0,6.77596734235,-0.00930629017461,6.94818904668,0.0,0.0,0.0,0.0,0.0,0.0,0.0,0.0,0.0
25936000000,251,25936000000,imu_link,-0.000620609849575,-0.379459376289,0.00106576073383,0.925207577111,0.0,0.0,0.0,0.0,0.0,0.0,0.0,0.0,0.0,-0.00399799323826,-0.003632879956,0.000565000654237,0.0,0.0,0.0,0.0,0.0,0.0,0.0,0.0,0.0,6.77572372598,-0.00945651178503,6.95010811276,0.0,0.0,0.0,0.0,0.0,0.0,0.0,0.0,0.0
25940000000,252,25940000000,imu_link,-0.000628171880546,-0.379465866227,0.00106388040436,0.925204912399,0.0,0.0,0.0,0.0,0.0,0.0,0.0,0.0,0.0,-0.00385926373476,-0.00350323207845,0.00056430035519,0.0,0.0,0.0,0.0,0.0,0.0,0.0,0.0,0.0,6.77640207223,-0.00957315439341,6.9507874989,0.0,0.0,0.0,0.0,0.0,0.0,0.0,0.0,0.0
25944000000,253,25944000000,imu_link,-0.000635335748241,-0.379472025165,0.0010620789462,0.925202383511,0.0,0.0,0.0,0.0,0.0,0.0,0.0,0.0,0.0,-0.00365988920626,-0.00332457644491,0.000525273443898,0.0,0.0,0.0,0.0,0.0,0.0,0.0,0.0,0.0,6.77578985975,-0.00959428164983,6.94790985148,0.0,0.0,0.0,0.0,0.0,0.0,0.0,0.0,0.0
25948000000,254,25948000000,imu_link,-0.000642278328673,-0.379477517109,0.00106030901093,0.925200128206,0.0,0.0,0.0,0.0,0.0,0.0,0.0,0.0,0.0,-0.00355109932075,-0.00296424326471,0.000497936401399,0.0,0.0,0.0,0.0,0.0,0.0,0.0,0.0,0.0,6.77593432685,-0.0095122337466,6.94406134506,0.0,0.0,0.0,0.0,0.0,0.0,0.0,0.0,0.0
25952000000,255,25952000000,imu_link,-0.000649271340994,-0.379482086968,0.00105854603231,0.92519825097,0.0,0.0,0.0,0.0,0.0,0.0,0.0,0.0,0.0,-0.00357249890773,-0.00246592837355,0.00051081912008,0.0,0.0,0.0,0.0,0.0,0.0,0.0,0.0,0.0,6.77660309616,-0.00941406865249,6.94241535744,0.0,0.0,0.0,0.0,0.0,0.0,0.0,0.0,0.0
25956000000,256,25956000000,imu_link,-0.000656538323871,-0.379485804625,0.00105676046991,0.925196723029,0.0,0.0,0.0,0.0,0.0,0.0,0.0,0.0,0.0,-0.00370295807664,-0.00200527177696,0.000552447121935,0.0,0.0,0.0,0.0,0.0,0.0,0.0,0.0,0.0,6.77667780759,-0.00932278250079,6.94278339379,0.0,0.0,0.0,0.0,0.0,0.0,0.0,0.0,0.0
25960000000,257,25960000000,imu_link,-0.000664230901877,-0.379488763182,0.00105493087074,0.925195506116,0.0,0.0,0.0,0.0,0.0,0.0,0.0,0.0,0.0,-0.00390769015676,-0.00159485945719,0.000612914289041,0.0,0.0,0.0,0.0,0.0,0.0,0.0,0.0,0.0,6.77613541187,-0.00931061100324,6.94218613434,0.0,0.0,0.0,0.0,0.0,0.0,0.0,0.0,0.0
25964000000,258,25964000000,imu_link,-0.000672319190581,-0.379491042745,0.0010530883498,0.925194567358,0.0,0.0,0.0,0.0,0.0,0.0,0.0,0.0,0.0,-0.0040927463426,-0.00122776613681,0.000682099377407,0.0,0.0,0.0,0.0,0.0,0.0,0.0,0.0,0.0,6.77579889643,-0.00936618105573,6.94171080427,0.0,0.0,0.0,0.0,0.0,0.0,0.0,0.0,0.0
25968000000,259,25968000000,imu_link,-0.000680568411334,-0.379492580343,0.00105126972133,0.92519393271,0.0,0.0,0.0,0.0,0.0,0.0,0.0,0.0,0.0,-0.00416216667755,-0.000826755527448,0.000723777391851,0.0,0.0,0.0,0.0,0.0,0.0,0.0,0.0,0.0,6.77604431938,-0.00946178997408,6.94074007009,0.0,0.0,0.0,0.0,0.0,0.0,0.0,0.0,0.0
25972000000,260,25972000000,imu_link,-0.000688527926446,-0.379493220116,0.00104952184517,0.925193666385,0.0,0.0,0.0,0.0,0.0,0.0,0.0,0.0,0.0,-0.00401412747437,-0.000341712781166,0.000701648541664,0.0,0.0,0.0,0.0,0.0,0.0,0.0,0.0,0.0,6.77654813525,-0.00954341397626,6.93945423942,0.0,0.0,0.0,0.0,0.0,0.0,0.0,0.0,0.0
25976000000,261,25976000000,imu_link,-0.000695642613318,-0.379493093078,0.0010478943622,0.925193715016,0.0,0.0,0.0,0.0,0.0,0.0,0.0,0.0,0.0,-0.00359995758588,7.22888847369e-05,0.000597137463205,0.0,0.0,0.0,0.0,0.0,0.0,0.0,0.0,0.0,6.77692989898,-0.00959049874858,6.94100323885,0.0,0.0,0.0,0.0,0.0,0.0,0.0,0.0,0.0
25980000000,262,25980000000,imu_link,-0.000701475415855,-0.37949252225,0.00104643640487,0.925193946402,0.0,0.0,0.0,0.0,0.0,0.0,0.0,0.0,0.0,-0.00297449892865,0.000311531023393,0.000432384968193,0.0,0.0,0.0,0.0,0.0,0.0,0.0,0.0,0.0,6.77780921886,-0.00952956007155,6.94495774513,0.0,0.0,0.0,0.0,0.0,0.0,0.0,0.0,0.0
25984000000,263,25984000000,imu_link,-0.000706047770846,-0.379491767375,0.00104512479171,0.925194254038,0.0,0.0,0.0,0.0,0.0,0.0,0.0,0.0,0.0,-0.00236352840802,0.000410428231594,0.000260942790141,0.0,0.0,0.0,0.0,0.0,0.0,0.0,0.0,0.0,6.77783782634,-0.00937702781749,6.94659489726,0.0,0.0,0.0,0.0,0.0,0.0,0.0,0.0,0.0
25988000000,264,25988000000,imu_link,-0.000709581205627,-0.379490934106,0.00104392350004,0.925194594477,0.0,0.0,0.0,0.0,0.0,0.0,0.0,0.0,0.0,-0.00186194131036,0.000452335091791,0.000114856891654,0.0,0.0,0.0,0.0,0.0,0.0,0.0,0.0,0.0,6.7778696971,-0.00921701340226,6.94665276461,0.0,0.0,0.0,0.0,0.0,0.0,0.0,0.0,0.0
25992000000,265,25992000000,imu_link,-0.000712493823074,-0.379489958525,0.0010427930719,0.925194993671,0.0,0.0,0.0,0.0,0.0,0.0,0.0,0.0,0.0,-0.00156121172645,0.000528967951481,2.9860721293e-05,0.0,0.0,0.0,0.0,0.0,0.0,0.0,0.0,0.0,6.77881246718,-0.00905062259183,6.94677999037,0.0,0.0,0.0,0.0,0.0,0.0,0.0,0.0,0.0
25996000000,266,25996000000,imu_link,-0.000715180330628,-0.379488766604,0.00104170274681,0.925195481719,0.0,0.0,0.0,0.0,0.0,0.0,0.0,0.0,0.0,-0.00144886005347,0.000645773304905,5.53981194049e-06,0.0,0.0,0.0,0.0,0.0,0.0,0.0,0.0,0.0,6.77886747566,-0.00890441045572,6.94536289828,0.0,0.0,0.0,0.0,0.0,0.0,0.0,0.0,0.0
26000000000,267,26000000000,imu_link,-0.000718047286755,-0.379487459724,0.00104059637172,0.925196016788,0.0,0.0,0.0,0.0,0.0,0.0,0.0,0.0,0.0,-0.00153530386102,0.000707974978969,3.23708410206e-05,0.0,0.0,0.0,0.0,0.0,0.0,0.0,0.0,0.0,6.77907233158,-0.00877304349114,6.94577590562,0.0,0.0,0.0,0.0,0.0,0.0,0.0,0.0,0.0
26004000000,268,26004000000,imu_link,-0.000721433556068,-0.379486237209,0.00103940114929,0.925196516934,0.0,0.0,0.0,0.0,0.0,0.0,0.0,0.0,0.0,-0.0017924517646,0.000662623595283,8.97945426658e-05,0.0,0.0,0.0,0.0,0.0,0.0,0.0,0.0,0.0,6.77997658502,-0.00875483417985,6.94846278632,0.0,0.0,0.0,0.0,0.0,0.0,0.0,0.0,0.0
26008000000,269,26008000000,imu_link,-0.000725462576074,-0.379485373147,0.00103807565129,0.925196869683,0.0,0.0,0.0,0.0,0.0,0.0,0.0,0.0,0.0,-0.00211474546733,0.000469217331672,0.000151434110049,0.0,0.0,0.0,0.0,0.0,0.0,0.0,0.0,0.0,6.77978325006,-0.00883538247224,6.949606221,0.0,0.0,0.0,0.0,0.0,0.0,0.0,0.0,0.0
26012000000,270,26012000000,imu_link,-0.000729963687778,-0.379485053113,0.00103665015074,0.925196999008,0.0,0.0,0.0,0.0,0.0,0.0,0.0,0.0,0.0,-0.00235247251318,0.000175438770749,0.000194667667011,0.0,0.0,0.0,0.0,0.0,0.0,0.0,0.0,0.0,6.7802957127,-0.0089838177971,6.95123814008,0.0,0.0,0.0,0.0,0.0,0.0,0.0,0.0,0.0
26016000000,271,26016000000,imu_link,-0.000734567873633,-0.379485410787,0.00103520645741,0.925196850274,0.0,0.0,0.0,0.0,0.0,0.0,0.0,0.0,0.0,-0.00240405916338,-0.000190766806661,0.000205706038525,0.0,0.0,0.0,0.0,0.0,0.0,0.0,0.0,0.0,6.78022055775,-0.00914386389543,6.95107093697,0.0,0.0,0.0,0.0,0.0,0.0,0.0,0.0,0.0
26020000000,272,26020000000,imu_link,-0.000738806235537,-0.379486476118,0.00103381349771,0.925196411492,0.0,0.0,0.0,0.0,0.0,0.0,0.0,0.0,0.0,-0.00222567606022,-0.00057337093732,0.000159653127324,0.0,0.0,0.0,0.0,0.0,0.0,0.0,0.0,0.0,6.78135071344,-0.00927723204203,6.9524612339,0.0,0.0,0.0,0.0,0.0,0.0,0.0,0.0,0.0
26024000000,273,26024000000,imu_link,-0.000742297860457,-0.37948831955,0.00103252247398,0.925195654019,0.0,0.0,0.0,0.0,0.0,0.0,0.0,0.0,0.0,-0.0018614151429,-0.000994212151366,6.49975275704e-05,0.0,0.0,0.0,0.0,0.0,0.0,0.0,0.0,0.0,6.78098989,-0.00932436907008,6.95155211298,0.0,0.0,0.0,0.0,0.0,0.0,0.0,0.0,0.0
26028000000,274,26028000000,imu_link,-0.000744937604739,-0.379491052838,0.00103135958673,0.925194532075,0.0,0.0,0.0,0.0,0.0,0.0,0.0,0.0,0.0,-0.00144361853086,-0.00147550103226,-3.75082924426e-05,0.0,0.0,0.0,0.0,0.0,0.0,0.0,0.0,0.0,6.78081086181,-0.00928664710864,6.95113898414,0.0,0.0,0.0,0.0,0.0,0.0,0.0,0.0,0.0
26032000000,275,26032000000,imu_link,-0.000746725903674,-0.379494752494,0.00103034491365,0.925193014251,0.0,0.0,0.0,0.0,0.0,0.0,0.0,0.0,0.0,-0.00102226505616,-0.00199815096272,-0.000130658565555,0.0,0.0,0.0,0.0,0.0,0.0,0.0,0.0,0.0,6.78134791707,-0.00922733086689,6.9517761297,0.0,0.0,0.0,0.0,0.0,0.0,0.0,0.0,0.0
26036000000,276,26036000000,imu_link,-0.000747731101835,-0.379499452831,0.0010294724837,0.925191086417,0.0,0.0,0.0,0.0,0.0,0.0,0.0,0.0,0.0,-0.000633683718179,-0.00253931719424,-0.00021361109885,0.0,0.0,0.0,0.0,0.0,0.0,0.0,0.0,0.0,6.7806276096,-0.00915317876104,6.94978044135,0.0,0.0,0.0,0.0,0.0,0.0,0.0,0.0,0.0
26040000000,277,26040000000,imu_link,-0.000748050702675,-0.379505019834,0.00102872189826,0.925188803473,0.0,0.0,0.0,0.0,0.0,0.0,0.0,0.0,0.0,-0.00029398835872,-0.00300801365448,-0.00028747950486,0.0,0.0,0.0,0.0,0.0,0.0,0.0,0.0,0.0,6.78076384616,-0.00905035455095,6.94781037357,0.0,0.0,0.0,0.0,0.0,0.0,0.0,0.0,0.0
26044000000,278,26044000000,imu_link,-0.000748053494091,-0.379511031422,0.00102805563432,0.925186338283,0.0,0.0,0.0,0.0,0.0,0.0,0.0,0.0,0.0,-0.00013173071722,-0.00324845226524,-0.000308660779197,0.0,0.0,0.0,0.0,0.0,0.0,0.0,0.0,0.0,6.78170397691,-0.00889631390602,6.94477064583,0.0,0.0,0.0,0.0,0.0,0.0,0.0,0.0,0.0
26048000000,279,26048000000,imu_link,-0.000748332938691,-0.379517026115,0.0010274279559,0.925183879712,0.0,0.0,0.0,0.0,0.0,0.0,0.0,0.0,0.0,-0.000252375616099,-0.00323925298852,-0.000238311996399,0.0,0.0,0.0,0.0,0.0,0.0,0.0,0.0,0.0,6.78251138221,-0.00878947661316,6.9411889493,0.0,0.0,0.0,0.0,0.0,0.0,0.0,0.0,0.0
26052000000,280,26052000000,imu_link,-0.00074934269399,-0.379522871251,0.00102679831575,0.925181481855,0.0,0.0,0.0,0.0,0.0,0.0,0.0,0.0,0.0,-0.000590484166963,-0.00315817227477,-0.00010061203616,0.0,0.0,0.0,0.0,0.0,0.0,0.0,0.0,0.0,6.78226733393,-0.00880869876488,6.93887491748,0.0,0.0,0.0,0.0,0.0,0.0,0.0,0.0,0.0
26056000000,281,26056000000,imu_link,-0.000751251178016,-0.379528935113,0.0010261688866,0.925178993498,0.0,0.0,0.0,0.0,0.0,0.0,0.0,0.0,0.0,-0.0010063339167,-0.00327606509725,6.99941357135e-05,0.0,0.0,0.0,0.0,0.0,0.0,0.0,0.0,0.0,6.78287811546,-0.0089439972483,6.9428267095,0.0,0.0,0.0,0.0,0.0,0.0,0.0,0.0,0.0
26060000000,282,26060000000,imu_link,-0.000753792244445,-0.379535790364,0.00102559639026,0.925176179861,0.0,0.0,0.0,0.0,0.0,0.0,0.0,0.0,0.0,-0.0012886843003,-0.00370357664786,0.000216241951596,0.0,0.0,0.0,0.0,0.0,0.0,0.0,0.0,0.0,6.78319565686,-0.00917174239372,6.9476854424,0.0,0.0,0.0,0.0,0.0,0.0,0.0,0.0,0.0
26064000000,283,26064000000,imu_link,-0.000756335767997,-0.379543768102,0.00102514503107,0.925172905531,0.0,0.0,0.0,0.0,0.0,0.0,0.0,0.0,0.0,-0.00126758223756,-0.00431029485028,0.000272558016081,0.0,0.0,0.0,0.0,0.0,0.0,0.0,0.0,0.0,6.78330198539,-0.0094186336762,6.95019831728,0.0,0.0,0.0,0.0,0.0,0.0,0.0,0.0,0.0
26068000000,284,26068000000,imu_link,-0.000758465779707,-0.379552729115,0.0010248290725,0.925169227912,0.0,0.0,0.0,0.0,0.0,0.0,0.0,0.0,0.0,-0.00105125853981,-0.00484194062529,0.000256554461843,0.0,0.0,0.0,0.0,0.0,0.0,0.0,0.0,0.0,6.78331110256,-0.00954298866592,6.94797867942,0.0,0.0,0.0,0.0,0.0,0.0,0.0,0.0,0.0
26072000000,285,26072000000,imu_link,-0.000759856419335,-0.379562081143,0.00102465462439,0.925165390219,0.0,0.0,0.0,0.0,0.0,0.0,0.0,0.0,0.0,-0.00068264211848,-0.00505362868483,0.000181633413256,0.0,0.0,0.0,0.0,0.0,0.0,0.0,0.0,0.0,6.78468504189,-0.00960611304515,6.94372381215,0.0,0.0,0.0,0.0,0.0,0.0,0.0,0.0,0.0
26076000000,286,26076000000,imu_link,-0.000760180829157,-0.379571237027,0.00102464454396,0.925161633581,0.0,0.0,0.0,0.0,0.0,0.0,0.0,0.0,0.0,-0.00015809750732,-0.00494812198747,5.53498486289e-05,0.0,0.0,0.0,0.0,0.0,0.0,0.0,0.0,0.0,6.78571472975,-0.0096446477031,6.93904099629,0.0,0.0,0.0,0.0,0.0,0.0,0.0,0.0,0.0
26080000000,287,26080000000,imu_link,-0.000759218878879,-0.379580061462,0.0010248171477,0.925158013681,0.0,0.0,0.0,0.0,0.0,0.0,0.0,0.0,0.0,0.000471840610096,-0.00476957787389,-0.000104220673762,0.0,0.0,0.0,0.0,0.0,0.0,0.0,0.0,0.0,6.78423625021,-0.00962585068481,6.93445927049,0.0,0.0,0.0,0.0,0.0,0.0,0.0,0.0,0.0
26084000000,288,26084000000,imu_link,-0.000757102175631,-0.379588470807,0.00102514210256,0.925154564767,0.0,0.0,0.0,0.0,0.0,0.0,0.0,0.0,0.0,0.00103519741781,-0.0045457641853,-0.000252836894072,0.0,0.0,0.0,0.0,0.0,0.0,0.0,0.0,0.0,6.78364107872,-0.00948757205933,6.93197187308,0.0,0.0,0.0,0.0,0.0,0.0,0.0,0.0,0.0
26088000000,289,26088000000,imu_link,-0.000754234326682,-0.379596289988,0.00102552913359,0.925151358453,0.0,0.0,0.0,0.0,0.0,0.0,0.0,0.0,0.0,0.00139483639266,-0.00422713163465,-0.000366585930942,0.0,0.0,0.0,0.0,0.0,0.0,0.0,0.0,0.0,6.78388121033,-0.00930369415008,6.93006044496,0.0,0.0,0.0,0.0,0.0,0.0,0.0,0.0,0.0
26092000000,290,26092000000,imu_link,-0.000751034363131,-0.379603365732,0.00102590825406,0.925148457376,0.0,0.0,0.0,0.0,0.0,0.0,0.0,0.0,0.0,0.00154745943769,-0.00382547013038,-0.00043315605302,0.0,0.0,0.0,0.0,0.0,0.0,0.0,0.0,0.0,6.78448808737,-0.00917007004037,6.9293109199,0.0,0.0,0.0,0.0,0.0,0.0,0.0,0.0,0.0
26096000000,291,26096000000,imu_link,-0.000747873841853,-0.3796096052,0.00102626768613,0.925145899358,0.0,0.0,0.0,0.0,0.0,0.0,0.0,0.0,0.0,0.00152603536449,-0.00337348938941,-0.000434639124544,0.0,0.0,0.0,0.0,0.0,0.0,0.0,0.0,0.0,6.78392333584,-0.0091341452808,6.92713403261,0.0,0.0,0.0,0.0,0.0,0.0,0.0,0.0,0.0
26100000000,292,26100000000,imu_link,-0.000744848072016,-0.379615275304,0.00102661552141,0.925143574813,0.0,0.0,0.0,0.0,0.0,0.0,0.0,0.0,0.0,0.00146188132913,-0.00306572938864,-0.000414333914725,0.0,0.0,0.0,0.0,0.0,0.0,0.0,0.0,0.0,6.78323071448,-0.00920223542596,6.9276999847,0.0,0.0,0.0,0.0,0.0,0.0,0.0,0.0,0.0
26104000000,293,26104000000,imu_link,-0.000741980028011,-0.379620840617,0.0010269553424,0.925141293099,0.0,0.0,0.0,0.0,0.0,0.0,0.0,0.0,0.0,0.00138747037852,-0.00300904190564,-0.000388086488381,0.0,0.0,0.0,0.0,0.0,0.0,0.0,0.0,0.0,6.78394822067,-0.00929632189345,6.93262233357,0.0,0.0,0.0,0.0,0.0,0.0,0.0,0.0,0.0
26108000000,294,26108000000,imu_link,-0.000739309457175,-0.37962680844,0.0010272604831,0.92513884605,0.0,0.0,0.0,0.0,0.0,0.0,0.0,0.0,0.0,0.00128927438761,-0.00322649954286,-0.000366710540717,0.0,0.0,0.0,0.0,0.0,0.0,0.0,0.0,0.0,6.78421261141,-0.0093788951096,6.93686035511,0.0,0.0,0.0,0.0,0.0,0.0,0.0,0.0,0.0
26112000000,295,26112000000,imu_link,-0.000736762679064,-0.37963336889,0.00102751099494,0.925136155723,0.0,0.0,0.0,0.0,0.0,0.0,0.0,0.0,0.0,0.0012212480495,-0.00354672470858,-0.000368576771899,0.0,0.0,0.0,0.0,0.0,0.0,0.0,0.0,0.0,6.783141071,-0.00948710435267,6.93609691517,0.0,0.0,0.0,0.0,0.0,0.0,0.0,0.0,0.0
26116000000,296,26116000000,imu_link,-0.000734364741334,-0.379640493555,0.00102769462117,0.925133233759,0.0,0.0,0.0,0.0,0.0,0.0,0.0,0.0,0.0,0.00113932803493,-0.00385157964818,-0.000371352378337,0.0,0.0,0.0,0.0,0.0,0.0,0.0,0.0,0.0,6.78140170418,-0.00956530982713,6.93173424883,0.0,0.0,0.0,0.0,0.0,0.0,0.0,0.0,0.0
26120000000,297,26120000000,imu_link,-0.000732134131492,-0.37964792331,0.00102780210224,0.925130186476,0.0,0.0,0.0,0.0,0.0,0.0,0.0,0.0,0.0,0.00104727106361,-0.0040163784615,-0.000374859991077,0.0,0.0,0.0,0.0,0.0,0.0,0.0,0.0,0.0,6.78037429702,-0.00968266196894,6.92669424856,0.0,0.0,0.0,0.0,0.0,0.0,0.0,0.0,0.0
26124000000,298,26124000000,imu_link,-0.000730117481979,-0.379655139357,0.00102782344855,0.925127226746,0.0,0.0,0.0,0.0,0.0,0.0,0.0,0.0,0.0,0.00093209191776,-0.00390076302987,-0.000374054891299,0.0,0.0,0.0,0.0,0.0,0.0,0.0,0.0,0.0,6.78130032289,-0.00983259017048,6.92255656862,0.0,0.0,0.0,0.0,0.0,0.0,0.0,0.0,0.0
26128000000,299,26128000000,imu_link,-0.000728140590976,-0.379661664054,0.00102777397933,0.925124550717,0.0,0.0,0.0,0.0,0.0,0.0,0.0,0.0,0.0,0.000900717196647,-0.00352706962828,-0.000399157733101,0.0,0.0,0.0,0.0,0.0,0.0,0.0,0.0,0.0,6.78195713418,-0.0100062009405,6.91871698027,0.0,0.0,0.0,0.0,0.0,0.0,0.0,0.0,0.0
26132000000,300,26132000000,imu_link,-0.000725887592318,-0.379667317949,0.00102770257629,0.925122232246,0.0,0.0,0.0,0.0,0.0,0.0,0.0,0.0,0.0,0.00102484813746,-0.00305652763065,-0.000461583945666,0.0,0.0,0.0,0.0,0.0,0.0,0.0,0.0,0.0,6.78133203862,-0.010129228986,6.91554386071,0.0,0.0,0.0,0.0,0.0,0.0,0.0,0.0,0.0
26136000000,301,26136000000,imu_link,-0.000722981866266,-0.379672296261,0.00102768679711,0.925120191439,0.0,0.0,0.0,0.0,0.0,0.0,0.0,0.0,0.0,0.00133778165654,-0.00269167462349,-0.000559661618594,0.0,0.0,0.0,0.0,0.0,0.0,0.0,0.0,0.0,6.78197534022,-0.0101895185083,6.9178626147,0.0,0.0,0.0,0.0,0.0,0.0,0.0,0.0,0.0
26140000000,302,26140000000,imu_link,-0.000719290093717,-0.379676762684,0.00102774063755,0.925118361211,0.0,0.0,0.0,0.0,0.0,0.0,0.0,0.0,0.0,0.00171493087206,-0.00241534895711,-0.000676601563224,0.0,0.0,0.0,0.0,0.0,0.0,0.0,0.0,0.0,6.78102831338,-0.0101721404972,6.9170549684,0.0,0.0,0.0,0.0,0.0,0.0,0.0,0.0,0.0
26144000000,303,26144000000,imu_link,-0.000715120863143,-0.379680854833,0.00102782662737,0.925116684882,0.0,0.0,0.0,0.0,0.0,0.0,0.0,0.0,0.0,0.00194213432961,-0.00221326606261,-0.000752314907509,0.0,0.0,0.0,0.0,0.0,0.0,0.0,0.0,0.0,6.7814692379,-0.0100699991161,6.9186638324,0.0,0.0,0.0,0.0,0.0,0.0,0.0,0.0,0.0
26148000000,304,26148000000,imu_link,-0.000711023338848,-0.379684782051,0.00102789016614,0.925115076175,0.0,0.0,0.0,0.0,0.0,0.0,0.0,0.0,0.0,0.00190481281456,-0.00212409346545,-0.000749062855733,0.0,0.0,0.0,0.0,0.0,0.0,0.0,0.0,0.0,6.78252103687,-0.00997066007973,6.92185221973,0.0,0.0,0.0,0.0,0.0,0.0,0.0,0.0,0.0
26152000000,305,26152000000,imu_link,-0.000707275167768,-0.379688721431,0.00102794405942,0.925113462182,0.0,0.0,0.0,0.0,0.0,0.0,0.0,0.0,0.0,0.00174137759858,-0.00213053963104,-0.000687204007224,0.0,0.0,0.0,0.0,0.0,0.0,0.0,0.0,0.0,6.78236230906,-0.00999002065329,6.92251738786,0.0,0.0,0.0,0.0,0.0,0.0,0.0,0.0,0.0
26156000000,306,26156000000,imu_link,-0.000704033737624,-0.379692731784,0.00102799459454,0.925111818643,0.0,0.0,0.0,0.0,0.0,0.0,0.0,0.0,0.0,0.00150629671079,-0.00216871646293,-0.000592565355695,0.0,0.0,0.0,0.0,0.0,0.0,0.0,0.0,0.0,6.78359701297,-0.0100760833357,6.92454617189,0.0,0.0,0.0,0.0,0.0,0.0,0.0,0.0,0.0
26160000000,307,26160000000,imu_link,-0.0007012524267,-0.379696854202,0.00102802204389,0.925110128755,0.0,0.0,0.0,0.0,0.0,0.0,0.0,0.0,0.0,0.00128900918136,-0.00222910739333,-0.0005159074755,0.0,0.0,0.0,0.0,0.0,0.0,0.0,0.0,0.0,6.78266533038,-0.0102034986598,6.92233984587,0.0,0.0,0.0,0.0,0.0,0.0,0.0,0.0,0.0
26164000000,308,26164000000,imu_link,-0.000698807061835,-0.379700995808,0.00102800524884,0.925108430756,0.0,0.0,0.0,0.0,0.0,0.0,0.0,0.0,0.0,0.0011252031958,-0.00223933409394,-0.000472596673059,0.0,0.0,0.0,0.0,0.0,0.0,0.0,0.0,0.0,6.78385073248,-0.010387492139,6.92303853026,0.0,0.0,0.0,0.0,0.0,0.0,0.0,0.0,0.0
26168000000,309,26168000000,imu_link,-0.000696681782625,-0.379705192946,0.00102793015262,0.92510670976,0.0,0.0,0.0,0.0,0.0,0.0,0.0,0.0,0.0,0.000966041140818,-0.00226920199895,-0.000438803287182,0.0,0.0,0.0,0.0,0.0,0.0,0.0,0.0,0.0,6.78289536969,-0.0105817813383,6.92086363825,0.0,0.0,0.0,0.0,0.0,0.0,0.0,0.0,0.0
26172000000,310,26172000000,imu_link,-0.000694572921576,-0.379709447134,0.0010278251157,0.925104965342,0.0,0.0,0.0,0.0,0.0,0.0,0.0,0.0,0.0,0.000952725064995,-0.00230001828869,-0.000449543263357,0.0,0.0,0.0,0.0,0.0,0.0,0.0,0.0,0.0,6.78338027208,-0.0107918528486,6.92084707308,0.0,0.0,0.0,0.0,0.0,0.0,0.0,0.0,0.0
26176000000,311,26176000000,imu_link,-0.000692224303934,-0.379713779646,0.00102771568097,0.925103188932,0.0,0.0,0.0,0.0,0.0,0.0,0.0,0.0,0.0,0.00106273876451,-0.00234244324978,-0.000497107164059,0.0,0.0,0.0,0.0,0.0,0.0,0.0,0.0,0.0,6.78316553944,-0.010889295987,6.91992320022,0.0,0.0,0.0,0.0,0.0,0.0,0.0,0.0,0.0
26180000000,312,26180000000,imu_link,-0.000689498546521,-0.379718196665,0.00102762202523,0.92510137807,0.0,0.0,0.0,0.0,0.0,0.0,0.0,0.0,0.0,0.00124012576931,-0.00238827177824,-0.000561422693604,0.0,0.0,0.0,0.0,0.0,0.0,0.0,0.0,0.0,6.78341385287,-0.0109083350815,6.91981136221,0.0,0.0,0.0,0.0,0.0,0.0,0.0,0.0,0.0
26184000000,313,26184000000,imu_link,-0.000686599270655,-0.379722821471,0.00102754209737,0.925099481998,0.0,0.0,0.0,0.0,0.0,0.0,0.0,0.0,0.0,0.0013228570732,-0.0025006561419,-0.000588044761752,0.0,0.0,0.0,0.0,0.0,0.0,0.0,0.0,0.0,6.78340432238,-0.0108635589561,6.92019038911,0.0,0.0,0.0,0.0,0.0,0.0,0.0,0.0,0.0
26188000000,314,26188000000,imu_link,-0.000683793638512,-0.379727841646,0.0010274430033,0.925097423554,0.0,0.0,0.0,0.0,0.0,0.0,0.0,0.0,0.0,0.00127564439614,-0.00271430722179,-0.0005791830726,0.0,0.0,0.0,0.0,0.0,0.0,0.0,0.0,0.0,6.78440962529,-0.0108495509683,6.92277952929,0.0,0.0,0.0,0.0,0.0,0.0,0.0,0.0,0.0
26192000000,315,26192000000,imu_link,-0.000681051894497,-0.379733269943,0.00102733194598,0.92509519751,0.0,0.0,0.0,0.0,0.0,0.0,0.0,0.0,0.0,0.00124355467448,-0.00293486755169,-0.000572640037946,0.0,0.0,0.0,0.0,0.0,0.0,0.0,0.0,0.0,6.78450322741,-0.0109167963496,6.92212833858,0.0,0.0,0.0,0.0,0.0,0.0,0.0,0.0,0.0
26196000000,316,26196000000,imu_link,-0.000678032054505,-0.379738910022,0.00102724818785,0.92509288466,0.0,0.0,0.0,0.0,0.0,0.0,0.0,0.0,0.0,0.0013772321609,-0.0030494604481,-0.000612841540645,0.0,0.0,0.0,0.0,0.0,0.0,0.0,0.0,0.0,6.78518533568,-0.0110275215164,6.9205720016,0.0,0.0,0.0,0.0,0.0,0.0,0.0,0.0,0.0
26200000000,317,26200000000,imu_link,-0.000674105945347,-0.379744586326,0.00102722032256,0.925090557489,0.0,0.0,0.0,0.0,0.0,0.0,0.0,0.0,0.0,0.00180701262078,-0.003069420135,-0.000759066263496,0.0,0.0,0.0,0.0,0.0,0.0,0.0,0.0,0.0,6.78639203125,-0.0111347689869,6.92049068242,0.0,0.0,0.0,0.0,0.0,0.0,0.0,0.0,0.0
26204000000,318,26204000000,imu_link,-0.000668831653263,-0.379750234714,0.00102725348031,0.925088242628,0.0,0.0,0.0,0.0,0.0,0.0,0.0,0.0,0.0,0.00244221334133,-0.00305488312682,-0.000986819840463,0.0,0.0,0.0,0.0,0.0,0.0,0.0,0.0,0.0,6.78750282213,-0.0111176720377,6.92108308857,0.0,0.0,0.0,0.0,0.0,0.0,0.0,0.0,0.0
26208000000,319,26208000000,imu_link,-0.000662134028354,-0.37975576182,0.00102733494854,0.925085978451,0.0,0.0,0.0,0.0,0.0,0.0,0.0,0.0,0.0,0.00310981977139,-0.00298990896351,-0.00123471507431,0.0,0.0,0.0,0.0,0.0,0.0,0.0,0.0,0.0,6.78719708622,-0.0109963274801,6.91881173052,0.0,0.0,0.0,0.0,0.0,0.0,0.0,0.0,0.0
26212000000,320,26212000000,imu_link,-0.000654254436268,-0.379761069246,0.0010274606232,0.925083805156,0.0,0.0,0.0,0.0,0.0,0.0,0.0,0.0,0.0,0.00366506715739,-0.00287166233793,-0.00143867107802,0.0,0.0,0.0,0.0,0.0,0.0,0.0,0.0,0.0,6.78713395475,-0.0108476688663,6.91717590961,0.0,0.0,0.0,0.0,0.0,0.0,0.0,0.0,0.0
26216000000,321,26216000000,imu_link,-0.000645455549566,-0.379765974689,0.00102760955341,0.925081797396,0.0,0.0,0.0,0.0,0.0,0.0,0.0,0.0,0.0,0.00409495587479,-0.00265477658286,-0.00160242410814,0.0,0.0,0.0,0.0,0.0,0.0,0.0,0.0,0.0,6.78740389799,-0.0107552859655,6.91523148919,0.0,0.0,0.0,0.0,0.0,0.0,0.0,0.0,0.0
26220000000,322,26220000000,imu_link,-0.000635906970655,-0.379770384005,0.0010277818876,0.925079993687,0.0,0.0,0.0,0.0,0.0,0.0,0.0,0.0,0.0,0.00444648396737,-0.00238694420105,-0.00173389733112,0.0,0.0,0.0,0.0,0.0,0.0,0.0,0.0,0.0,6.78796891218,-0.0106775589469,6.91466400657,0.0,0.0,0.0,0.0,0.0,0.0,0.0,0.0,0.0
26224000000,323,26224000000,imu_link,-0.00062564413812,-0.379774405972,0.00102800333853,0.925078349302,0.0,0.0,0.0,0.0,0.0,0.0,0.0,0.0,0.0,0.00478643109134,-0.00217790959952,-0.00184676377576,0.0,0.0,0.0,0.0,0.0,0.0,0.0,0.0,0.0,6.78776124418,-0.0106383417999,6.91469725293,0.0,0.0,0.0,0.0,0.0,0.0,0.0,0.0,0.0
26228000000,324,26228000000,imu_link,-0.000614700136908,-0.379778375669,0.00102835535101,0.92507672655,0.0,0.0,0.0,0.0,0.0,0.0,0.0,0.0,0.0,0.00512632389086,-0.0021500152426,-0.00191571392869,0.0,0.0,0.0,0.0,0.0,0.0,0.0,0.0,0.0,6.7888597123,-0.0106171611038,6.91919686366,0.0,0.0,0.0,0.0,0.0,0.0,0.0,0.0,0.0
26232000000,325,26232000000,imu_link,-0.000603434736104,-0.379782771207,0.00102884325244,0.92507492888,0.0,0.0,0.0,0.0,0.0,0.0,0.0,0.0,0.0,0.00530051465395,-0.00238040563361,-0.00191393132898,0.0,0.0,0.0,0.0,0.0,0.0,0.0,0.0,0.0,6.79128096452,-0.0105739302068,6.92710625724,0.0,0.0,0.0,0.0,0.0,0.0,0.0,0.0,0.0
26236000000,326,26236000000,imu_link,-0.000592451911914,-0.379787709963,0.00102942499762,0.925072907746,0.0,0.0,0.0,0.0,0.0,0.0,0.0,0.0,0.0,0.00518728563692,-0.0026739810339,-0.00181691515847,0.0,0.0,0.0,0.0,0.0,0.0,0.0,0.0,0.0,6.79266360331,-0.0105304450582,6.92997142981,0.0,0.0,0.0,0.0,0.0,0.0,0.0,0.0,0.0
26240000000,327,26240000000,imu_link,-0.000581976095018,-0.379792979859,0.0010300952198,0.925070750082,0.0,0.0,0.0,0.0,0.0,0.0,0.0,0.0,0.0,0.00496936663665,-0.00285283667279,-0.00167974156378,0.0,0.0,0.0,0.0,0.0,0.0,0.0,0.0,0.0,6.79253321556,-0.010625570171,6.92692371675,0.0,0.0,0.0,0.0,0.0,0.0,0.0,0.0,0.0
26244000000,328,26244000000,imu_link,-0.000571958744101,-0.379798289688,0.00103086466394,0.925068575475,0.0,0.0,0.0,0.0,0.0,0.0,0.0,0.0,0.0,0.00477612630372,-0.00287431732025,-0.00154678971847,0.0,0.0,0.0,0.0,0.0,0.0,0.0,0.0,0.0,6.79247148208,-0.0107953202805,6.92325308772,0.0,0.0,0.0,0.0,0.0,0.0,0.0,0.0,0.0
26248000000,329,26248000000,imu_link,-0.000562152697443,-0.379803517128,0.00103175314366,0.925066434288,0.0,0.0,0.0,0.0,0.0,0.0,0.0,0.0,0.0,0.0047010476209,-0.00282978818625,-0.0014515988395,0.0,0.0,0.0,0.0,0.0,0.0,0.0,0.0,0.0,6.79228114287,-0.0109744550244,6.92105525273,0.0,0.0,0.0,0.0,0.0,0.0,0.0,0.0,0.0
26252000000,330,26252000000,imu_link,-0.000552170971548,-0.379808798864,0.00103278270133,0.925064270617,0.0,0.0,0.0,0.0,0.0,0.0,0.0,0.0,0.0,0.00480906172171,-0.00285930159707,-0.00141971106571,0.0,0.0,0.0,0.0,0.0,0.0,0.0,0.0,0.0,6.79257167403,-0.0111355425073,6.92215506021,0.0,0.0,0.0,0.0,0.0,0.0,0.0,0.0,0.0
26256000000,331,26256000000,imu_link,-0.000541767765258,-0.379814284209,0.00103394630173,0.925062023301,0.0,0.0,0.0,0.0,0.0,0.0,0.0,0.0,0.0,0.00502933701972,-0.00296961721621,-0.00143776599228,0.0,0.0,0.0,0.0,0.0,0.0,0.0,0.0,0.0,6.79349130938,-0.0112668339884,6.92466158722,0.0,0.0,0.0,0.0,0.0,0.0,0.0,0.0,0.0
26260000000,332,26260000000,imu_link,-0.000530760394586,-0.379819922908,0.00103524089631,0.925059713063,0.0,0.0,0.0,0.0,0.0,0.0,0.0,0.0,0.0,0.00533356218739,-0.00305284526665,-0.00149192126771,0.0,0.0,0.0,0.0,0.0,0.0,0.0,0.0,0.0,6.79307379008,-0.0114082396974,6.92289779383,0.0,0.0,0.0,0.0,0.0,0.0,0.0,0.0,0.0
26264000000,333,26264000000,imu_link,-0.000519453940822,-0.379825430126,0.00103663626277,0.925057456693,0.0,0.0,0.0,0.0,0.0,0.0,0.0,0.0,0.0,0.005491116984,-0.0029819825392,-0.00150210311305,0.0,0.0,0.0,0.0,0.0,0.0,0.0,0.0,0.0,6.79360071386,-0.0114244128345,6.9205397733,0.0,0.0,0.0,0.0,0.0,0.0,0.0,0.0,0.0
26268000000,334,26268000000,imu_link,-0.000508561655776,-0.379830611095,0.00103808058023,0.92505533382,0.0,0.0,0.0,0.0,0.0,0.0,0.0,0.0,0.0,0.00530905224422,-0.00280552800807,-0.0014007904231,0.0,0.0,0.0,0.0,0.0,0.0,0.0,0.0,0.0,6.79592737268,-0.0113729857844,6.92233785256,0.0,0.0,0.0,0.0,0.0,0.0,0.0,0.0,0.0
26272000000,335,26272000000,imu_link,-0.000498869710162,-0.379835513649,0.00103950389709,0.92505332448,0.0,0.0,0.0,0.0,0.0,0.0,0.0,0.0,0.0,0.00475004708969,-0.00265456381872,-0.00118252908215,0.0,0.0,0.0,0.0,0.0,0.0,0.0,0.0,0.0,6.79719812179,-0.0114047358506,6.92467371532,0.0,0.0,0.0,0.0,0.0,0.0,0.0,0.0,0.0
26276000000,336,26276000000,imu_link,-0.000490817172339,-0.37984043448,0.00104083984612,0.925051306731,0.0,0.0,0.0,0.0,0.0,0.0,0.0,0.0,0.0,0.00397517297656,-0.00266374039207,-0.000911586573059,0.0,0.0,0.0,0.0,0.0,0.0,0.0,0.0,0.0,6.79752774752,-0.0115908245249,6.92727482251,0.0,0.0,0.0,0.0,0.0,0.0,0.0,0.0,0.0
26280000000,337,26280000000,imu_link,-0.00048442016834,-0.379845511234,0.00104208750646,0.925049224088,0.0,0.0,0.0,0.0,0.0,0.0,0.0,0.0,0.0,0.00319258123299,-0.00274730068578,-0.000638007508263,0.0,0.0,0.0,0.0,0.0,0.0,0.0,0.0,0.0,6.7980624937,-0.0119000472678,6.92847823876,0.0,0.0,0.0,0.0,0.0,0.0,0.0,0.0,0.0
26284000000,338,26284000000,imu_link,-0.000479170070327,-0.379850785232,0.00104331111558,0.925047059806,0.0,0.0,0.0,0.0,0.0,0.0,0.0,0.0,0.0,0.0026574185689,-0.00285343215948,-0.000431313476979,0.0,0.0,0.0,0.0,0.0,0.0,0.0,0.0,0.0,6.79905651371,-0.0122772184468,6.92981854372,0.0,0.0,0.0,0.0,0.0,0.0,0.0,0.0,0.0
26288000000,339,26288000000,imu_link,-0.000474496632437,-0.379856326764,0.00104460837803,0.925044785221,0.0,0.0,0.0,0.0,0.0,0.0,0.0,0.0,0.0,0.00240452234269,-0.00299783896285,-0.000287731234856,0.0,0.0,0.0,0.0,0.0,0.0,0.0,0.0,0.0,6.79994450001,-0.0125885745599,6.93119166944,0.0,0.0,0.0,0.0,0.0,0.0,0.0,0.0,0.0
26292000000,340,26292000000,imu_link,-0.000469753726186,-0.379862294057,0.00104608116206,0.925042335571,0.0,0.0,0.0,0.0,0.0,0.0,0.0,0.0,0.0,0.00246972559542,-0.00322809062418,-0.000219752149409,0.0,0.0,0.0,0.0,0.0,0.0,0.0,0.0,0.0,6.80157457088,-0.0128357946065,6.93508827195,0.0,0.0,0.0,0.0,0.0,0.0,0.0,0.0,0.0
26296000000,341,26296000000,imu_link,-0.000464385762951,-0.379868833389,0.00104780642737,0.92503965097,0.0,0.0,0.0,0.0,0.0,0.0,0.0,0.0,0.0,0.00280642735674,-0.00353768183257,-0.000221703471604,0.0,0.0,0.0,0.0,0.0,0.0,0.0,0.0,0.0,6.80190749256,-0.0129731222349,6.93619658192,0.0,0.0,0.0,0.0,0.0,0.0,0.0,0.0,0.0
26300000000,342,26300000000,imu_link,-0.000458131591895,-0.379875967485,0.00104979255089,0.925036722178,0.0,0.0,0.0,0.0,0.0,0.0,0.0,0.0,0.0,0.00326549369735,-0.00385967711036,-0.000269382909451,0.0,0.0,0.0,0.0,0.0,0.0,0.0,0.0,0.0,6.80168452647,-0.013025874574,6.93534340306,0.0,0.0,0.0,0.0,0.0,0.0,0.0,0.0,0.0
26304000000,343,26304000000,imu_link,-0.000450950157548,-0.379883541869,0.0010520128704,0.925033612649,0.0,0.0,0.0,0.0,0.0,0.0,0.0,0.0,0.0,0.00373858020261,-0.00409818738992,-0.000337191471876,0.0,0.0,0.0,0.0,0.0,0.0,0.0,0.0,0.0,6.80149881521,-0.0130527332944,6.93304381888,0.0,0.0,0.0,0.0,0.0,0.0,0.0,0.0,0.0
26308000000,344,26308000000,imu_link,-0.000442947460963,-0.379891272969,0.00105442955428,0.925030438795,0.0,0.0,0.0,0.0,0.0,0.0,0.0,0.0,0.0,0.00415562864989,-0.00418336558876,-0.000402363153638,0.0,0.0,0.0,0.0,0.0,0.0,0.0,0.0,0.0,6.8018028917,-0.0130435389502,6.93004337739,0.0,0.0,0.0,0.0,0.0,0.0,0.0,0.0,0.0
26312000000,345,26312000000,imu_link,-0.00043420531398,-0.37989880516,0.00105702600137,0.925027346623,0.0,0.0,0.0,0.0,0.0,0.0,0.0,0.0,0.0,0.00453190390705,-0.00407628144069,-0.000459674323383,0.0,0.0,0.0,0.0,0.0,0.0,0.0,0.0,0.0,6.80230192787,-0.0130066632649,6.92688151334,0.0,0.0,0.0,0.0,0.0,0.0,0.0,0.0,0.0
26316000000,346,26316000000,imu_link,-0.000425014344612,-0.379905816562,0.00105975415855,0.925024468231,0.0,0.0,0.0,0.0,0.0,0.0,0.0,0.0,0.0,0.00476483030815,-0.00379506822389,-0.000484010064915,0.0,0.0,0.0,0.0,0.0,0.0,0.0,0.0,0.0,6.80346999894,-0.0129371564879,6.92561395841,0.0,0.0,0.0,0.0,0.0,0.0,0.0,0.0,0.0
26320000000,347,26320000000,imu_link,-0.000415890070401,-0.379912122002,0.00106253744092,0.925021879528,0.0,0.0,0.0,0.0,0.0,0.0,0.0,0.0,0.0,0.00474488980441,-0.00341350096933,-0.00044584853357,0.0,0.0,0.0,0.0,0.0,0.0,0.0,0.0,0.0,6.80445235464,-0.0128667376342,6.92548477532,0.0,0.0,0.0,0.0,0.0,0.0,0.0,0.0,0.0
26324000000,348,26324000000,imu_link,-0.000407615295978,-0.379917814364,0.00106526426419,0.925019542167,0.0,0.0,0.0,0.0,0.0,0.0,0.0,0.0,0.0,0.00434164008489,-0.00308173881275,-0.000310599895877,0.0,0.0,0.0,0.0,0.0,0.0,0.0,0.0,0.0,6.80618439948,-0.0128385459238,6.92895855491,0.0,0.0,0.0,0.0,0.0,0.0,0.0,0.0,0.0
26328000000,349,26328000000,imu_link,-0.000400896564843,-0.379923076617,0.00106787284086,0.925017380801,0.0,0.0,0.0,0.0,0.0,0.0,0.0,0.0,0.0,0.0035997578256,-0.0028485243662,-6.97118985082e-05,0.0,0.0,0.0,0.0,0.0,0.0,0.0,0.0,0.0,6.80688929342,-0.0129251455695,6.93174175422,0.0,0.0,0.0,0.0,0.0,0.0,0.0,0.0,0.0
26332000000,350,26332000000,imu_link,-0.000395976687107,-0.379928004115,0.00107035048487,0.925015356219,0.0,0.0,0.0,0.0,0.0,0.0,0.0,0.0,0.0,0.00274310648094,-0.00266672690474,0.000211437631603,0.0,0.0,0.0,0.0,0.0,0.0,0.0,0.0,0.0,6.80621729349,-0.0131641182788,6.93093433297,0.0,0.0,0.0,0.0,0.0,0.0,0.0,0.0,0.0
26336000000,351,26336000000,imu_link,-0.000392455209242,-0.379932612452,0.00107274109507,0.925013462173,0.0,0.0,0.0,0.0,0.0,0.0,0.0,0.0,0.0,0.00207999916547,-0.00249354964644,0.000436822795052,0.0,0.0,0.0,0.0,0.0,0.0,0.0,0.0,0.0,6.80622216561,-0.0135409011168,6.9307066831,0.0,0.0,0.0,0.0,0.0,0.0,0.0,0.0,0.0
26340000000,352,26340000000,imu_link,-0.000389744992058,-0.379936853842,0.00107507795844,0.92501171852,0.0,0.0,0.0,0.0,0.0,0.0,0.0,0.0,0.0,0.00169480188368,-0.00229481876576,0.000566068057169,0.0,0.0,0.0,0.0,0.0,0.0,0.0,0.0,0.0,6.80693738118,-0.0138693083911,6.93075550542,0.0,0.0,0.0,0.0,0.0,0.0,0.0,0.0,0.0
26344000000,353,26344000000,imu_link,-0.000387493149485,-0.379940645731,0.00107736001349,0.925010159331,0.0,0.0,0.0,0.0,0.0,0.0,0.0,0.0,0.0,0.00147266666085,-0.00205162301411,0.000627784031106,0.0,0.0,0.0,0.0,0.0,0.0,0.0,0.0,0.0,6.80606956699,-0.0140913525835,6.92784134146,0.0,0.0,0.0,0.0,0.0,0.0,0.0,0.0,0.0
26348000000,354,26348000000,imu_link,-0.000385637116061,-0.379943893636,0.00107952434817,0.925008823526,0.0,0.0,0.0,0.0,0.0,0.0,0.0,0.0,0.0,0.00126757585524,-0.00175735469199,0.000648514813868,0.0,0.0,0.0,0.0,0.0,0.0,0.0,0.0,0.0,6.80743933556,-0.0142438428321,6.92885500258,0.0,0.0,0.0,0.0,0.0,0.0,0.0,0.0,0.0
26352000000,355,26352000000,imu_link,-0.000384415449481,-0.379946431342,0.00108150842544,0.925007779359,0.0,0.0,0.0,0.0,0.0,0.0,0.0,0.0,0.0,0.000940374112574,-0.00137310493726,0.000685636399706,0.0,0.0,0.0,0.0,0.0,0.0,0.0,0.0,0.0,6.80878378454,-0.014388316718,6.92906236229,0.0,0.0,0.0,0.0,0.0,0.0,0.0,0.0,0.0
26356000000,356,26356000000,imu_link,-0.000384108839333,-0.379948109359,0.00108330892801,0.925007088133,0.0,0.0,0.0,0.0,0.0,0.0,0.0,0.0,0.0,0.000482815395153,-0.00090791526828,0.000774542980018,0.0,0.0,0.0,0.0,0.0,0.0,0.0,0.0,0.0,6.80899571143,-0.0144939651884,6.92766103327,0.0,0.0,0.0,0.0,0.0,0.0,0.0,0.0,0.0
26360000000,357,26360000000,imu_link,-0.000384741122298,-0.379949011205,0.00108498868836,0.925006715466,0.0,0.0,0.0,0.0,0.0,0.0,0.0,0.0,0.0,2.61177123325e-05,-0.000487884493676,0.00089704112974,0.0,0.0,0.0,0.0,0.0,0.0,0.0,0.0,0.0,6.80873621987,-0.014651190305,6.92761234503,0.0,0.0,0.0,0.0,0.0,0.0,0.0,0.0,0.0
26364000000,358,26364000000,imu_link,-0.00038621934113,-0.379949460847,0.00108660919148,0.925006528257,0.0,0.0,0.0,0.0,0.0,0.0,0.0,0.0,0.0,-0.000376106837596,-0.000243035576663,0.00103032708507,0.0,0.0,0.0,0.0,0.0,0.0,0.0,0.0,0.0,6.80866761088,-0.0148374125602,6.93019692062,0.0,0.0,0.0,0.0,0.0,0.0,0.0,0.0,0.0
26368000000,359,26368000000,imu_link,-0.000388247850493,-0.379949948351,0.00108821425029,0.925006325277,0.0,0.0,0.0,0.0,0.0,0.0,0.0,0.0,0.0,-0.000633575646518,-0.000263240982957,0.0011277265981,0.0,0.0,0.0,0.0,0.0,0.0,0.0,0.0,0.0,6.80926744245,-0.0150393540355,6.93509458278,0.0,0.0,0.0,0.0,0.0,0.0,0.0,0.0,0.0
26372000000,360,26372000000,imu_link,-0.000390494704318,-0.379950941132,0.00108980318129,0.925005914671,0.0,0.0,0.0,0.0,0.0,0.0,0.0,0.0,0.0,-0.000737939761072,-0.0005362551449,0.00116176230264,0.0,0.0,0.0,0.0,0.0,0.0,0.0,0.0,0.0,6.81085210957,-0.0151899330199,6.94148538636,0.0,0.0,0.0,0.0,0.0,0.0,0.0,0.0,0.0
26376000000,361,26376000000,imu_link,-0.000392973028137,-0.379952666654,0.00109134609501,0.925005203033,0.0,0.0,0.0,0.0,0.0,0.0,0.0,0.0,0.0,-0.000854195521157,-0.000932203747892,0.00118447376032,0.0,0.0,0.0,0.0,0.0,0.0,0.0,0.0,0.0,6.8109581196,-0.0152227067135,6.94281033451,0.0,0.0,0.0,0.0,0.0,0.0,0.0,0.0,0.0
26380000000,362,26380000000,imu_link,-0.000395927280822,-0.379955178592,0.00109279017254,0.925004168267,0.0,0.0,0.0,0.0,0.0,0.0,0.0,0.0,0.0,-0.00109358301377,-0.00135703057003,0.00122919878681,0.0,0.0,0.0,0.0,0.0,0.0,0.0,0.0,0.0,6.80994647793,-0.0152185148063,6.94075877225,0.0,0.0,0.0,0.0,0.0,0.0,0.0,0.0,0.0
26384000000,363,26384000000,imu_link,-0.000399513159537,-0.379958317757,0.00109411513227,0.925002875708,0.0,0.0,0.0,0.0,0.0,0.0,0.0,0.0,0.0,-0.00140873482761,-0.00169573071957,0.00129411803813,0.0,0.0,0.0,0.0,0.0,0.0,0.0,0.0,0.0,6.80974300373,-0.0152676410161,6.93812391074,0.0,0.0,0.0,0.0,0.0,0.0,0.0,0.0,0.0
26388000000,364,26388000000,imu_link,-0.000403556914911,-0.379961803273,0.00109533756929,0.925001440772,0.0,0.0,0.0,0.0,0.0,0.0,0.0,0.0,0.0,-0.00164019853405,-0.00188269583323,0.00133369686051,0.0,0.0,0.0,0.0,0.0,0.0,0.0,0.0,0.0,6.80931785458,-0.0153792957647,6.9338791093,0.0,0.0,0.0,0.0,0.0,0.0,0.0,0.0,0.0
26392000000,365,26392000000,imu_link,-0.000407727939231,-0.37996524266,0.00109648918252,0.925000024778,0.0,0.0,0.0,0.0,0.0,0.0,0.0,0.0,0.0,-0.00171248659384,-0.00185767899708,0.00132511841496,0.0,0.0,0.0,0.0,0.0,0.0,0.0,0.0,0.0,6.81023059067,-0.0155262381405,6.93139330125,0.0,0.0,0.0,0.0,0.0,0.0,0.0,0.0,0.0
26396000000,366,26396000000,imu_link,-0.00041181359189,-0.379968422414,0.00109757385674,0.924998715518,0.0,0.0,0.0,0.0,0.0,0.0,0.0,0.0,0.0,-0.00168555534922,-0.00171735414964,0.00127793439663,0.0,0.0,0.0,0.0,0.0,0.0,0.0,0.0,0.0,6.81052299431,-0.0156393923944,6.92919370828,0.0,0.0,0.0,0.0,0.0,0.0,0.0,0.0,0.0
26400000000,367,26400000000,imu_link,-0.000415763509469,-0.379971382693,0.00109850462065,0.924997496625,0.0,0.0,0.0,0.0,0.0,0.0,0.0,0.0,0.0,-0.00165187943634,-0.0015987212279,0.00118095905692,0.0,0.0,0.0,0.0,0.0,0.0,0.0,0.0,0.0,6.81204804781,-0.015631185089,6.93179405098,0.0,0.0,0.0,0.0,0.0,0.0,0.0,0.0,0.0
26404000000,368,26404000000,imu_link,-0.000419680566501,-0.379974503364,0.00109915728602,0.924996212162,0.0,0.0,0.0,0.0,0.0,0.0,0.0,0.0,0.0,-0.00168961794496,-0.00168532061892,0.00104609846983,0.0,0.0,0.0,0.0,0.0,0.0,0.0,0.0,0.0,6.81266565191,-0.0155544508672,6.93598795463,0.0,0.0,0.0,0.0,0.0,0.0,0.0,0.0,0.0
26408000000,369,26408000000,imu_link,-0.000423565529428,-0.379978274542,0.00109948252599,0.924994660853,0.0,0.0,0.0,0.0,0.0,0.0,0.0,0.0,0.0,-0.00173739463388,-0.00203682458846,0.000888577520675,0.0,0.0,0.0,0.0,0.0,0.0,0.0,0.0,0.0,6.81346220587,-0.0155122231451,6.94155495351,0.0,0.0,0.0,0.0,0.0,0.0,0.0,0.0,0.0
26412000000,370,26412000000,imu_link,-0.000427407298221,-0.379982916592,0.00109947730891,0.924992752172,0.0,0.0,0.0,0.0,0.0,0.0,0.0,0.0,0.0,-0.00178075515103,-0.00250745149468,0.000727547629316,0.0,0.0,0.0,0.0,0.0,0.0,0.0,0.0,0.0,6.81311307456,-0.0154777221496,6.94216415268,0.0,0.0,0.0,0.0,0.0,0.0,0.0,0.0,0.0
26416000000,371,26416000000,imu_link,-0.000431077340978,-0.37998819214,0.00109917660839,0.924990583637,0.0,0.0,0.0,0.0,0.0,0.0,0.0,0.0,0.0,-0.00175787560158,-0.00284984314838,0.000558268599054,0.0,0.0,0.0,0.0,0.0,0.0,0.0,0.0,0.0,6.81242601209,-0.0154649220874,6.93782826763,0.0,0.0,0.0,0.0,0.0,0.0,0.0,0.0,0.0
26420000000,372,26420000000,imu_link,-0.000434472864673,-0.379993416363,0.00109860918762,0.924988436583,0.0,0.0,0.0,0.0,0.0,0.0,0.0,0.0,0.0,-0.00168155426493,-0.00282211772979,0.00038275399216,0.0,0.0,0.0,0.0,0.0,0.0,0.0,0.0,0.0,6.81349530927,-0.0154208954419,6.93230102676,0.0,0.0,0.0,0.0,0.0,0.0,0.0,0.0,0.0
26424000000,373,26424000000,imu_link,-0.000437598189172,-0.379997920136,0.00109781931829,0.924986585845,0.0,0.0,0.0,0.0,0.0,0.0,0.0,0.0,0.0,-0.00159839307347,-0.00243271454393,0.000228529605118,0.0,0.0,0.0,0.0,0.0,0.0,0.0,0.0,0.0,6.81454176448,-0.0153598652913,6.92716556299,0.0,0.0,0.0,0.0,0.0,0.0,0.0,0.0,0.0
26428000000,374,26428000000,imu_link,-0.000440457496526,-0.380001427648,0.00109684292486,0.924985144701,0.0,0.0,0.0,0.0,0.0,0.0,0.0,0.0,0.0,-0.00151016483914,-0.0018942337215,9.17136273869e-05,0.0,0.0,0.0,0.0,0.0,0.0,0.0,0.0,0.0,6.81383743134,-0.0152919906119,6.92305854504,0.0,0.0,0.0,0.0,0.0,0.0,0.0,0.0,0.0
26432000000,375,26432000000,imu_link,-0.000442769771209,-0.38000427381,0.00109575602609,0.924983975623,0.0,0.0,0.0,0.0,0.0,0.0,0.0,0.0,0.0,-0.00127773976844,-0.00153694661052,-6.333442634e-05,0.0,0.0,0.0,0.0,0.0,0.0,0.0,0.0,0.0,6.81400774683,-0.0152661808592,6.92608963291,0.0,0.0,0.0,0.0,0.0,0.0,0.0,0.0,0.0
26436000000,376,26436000000,imu_link,-0.000444193645598,-0.380007219359,0.00109461681116,0.924982766186,0.0,0.0,0.0,0.0,0.0,0.0,0.0,0.0,0.0,-0.00087686532088,-0.00159105623415,-0.000256328077806,0.0,0.0,0.0,0.0,0.0,0.0,0.0,0.0,0.0,6.81646013861,-0.0152249954309,6.93722074472,0.0,0.0,0.0,0.0,0.0,0.0,0.0,0.0,0.0
26440000000,377,26440000000,imu_link,-0.000444505991155,-0.380011052505,0.00109349868572,0.924981192592,0.0,0.0,0.0,0.0,0.0,0.0,0.0,0.0,0.0,-0.000359352401353,-0.00207136603216,-0.000457766687286,0.0,0.0,0.0,0.0,0.0,0.0,0.0,0.0,0.0,6.81694488151,-0.0151476003719,6.94467795971,0.0,0.0,0.0,0.0,0.0,0.0,0.0,0.0,0.0
26444000000,378,26444000000,imu_link,-0.000443637082782,-0.380016085037,0.00109245711129,0.924979126703,0.0,0.0,0.0,0.0,0.0,0.0,0.0,0.0,0.0,0.000200746370359,-0.00272027280077,-0.000646804743025,0.0,0.0,0.0,0.0,0.0,0.0,0.0,0.0,0.0,6.81697323448,-0.0149943303819,6.94702387161,0.0,0.0,0.0,0.0,0.0,0.0,0.0,0.0,0.0
26448000000,379,26448000000,imu_link,-0.000441634852868,-0.380022112349,0.00109151589745,0.924976652504,0.0,0.0,0.0,0.0,0.0,0.0,0.0,0.0,0.0,0.000743331126111,-0.00325857145955,-0.000815726856213,0.0,0.0,0.0,0.0,0.0,0.0,0.0,0.0,0.0,6.81622082521,-0.0147902724231,6.94302149104,0.0,0.0,0.0,0.0,0.0,0.0,0.0,0.0,0.0
26452000000,380,26452000000,imu_link,-0.000438668925971,-0.380028745591,0.00109066177337,0.92497392966,0.0,0.0,0.0,0.0,0.0,0.0,0.0,0.0,0.0,0.00120519215164,-0.00358659766829,-0.000958560039627,0.0,0.0,0.0,0.0,0.0,0.0,0.0,0.0,0.0,6.81607416314,-0.0145662928263,6.93840369151,0.0,0.0,0.0,0.0,0.0,0.0,0.0,0.0,0.0
26456000000,381,26456000000,imu_link,-0.000435054436137,-0.380035520804,0.00108987194472,0.924971148649,0.0,0.0,0.0,0.0,0.0,0.0,0.0,0.0,0.0,0.00151727093295,-0.00366367774812,-0.00105205994,0.0,0.0,0.0,0.0,0.0,0.0,0.0,0.0,0.0,6.81709864803,-0.0143625082581,6.9355491432,0.0,0.0,0.0,0.0,0.0,0.0,0.0,0.0,0.0
26460000000,382,26460000000,imu_link,-0.000431032904122,-0.380042207462,0.001089114346,0.924968404102,0.0,0.0,0.0,0.0,0.0,0.0,0.0,0.0,0.0,0.00171170251862,-0.00361602206796,-0.00111449991188,0.0,0.0,0.0,0.0,0.0,0.0,0.0,0.0,0.0,6.81595985428,-0.0142313326624,6.9306994897,0.0,0.0,0.0,0.0,0.0,0.0,0.0,0.0,0.0
