%time,field.header.seq,field.header.stamp,field.header.frame_id,field.orientation.x,field.orientation.y,field.orientation.z,field.orientation.w,field.orientation_covariance0,field.orientation_covariance1,field.orientation_covariance2,field.orientation_covariance3,field.orientation_covariance4,field.orientation_covariance5,field.orientation_covariance6,field.orientation_covariance7,field.orientation_covariance8,field.angular_velocity.x,field.angular_velocity.y,field.angular_velocity.z,field.angular_velocity_covariance0,field.angular_velocity_covariance1,field.angular_velocity_covariance2,field.angular_velocity_covariance3,field.angular_velocity_covariance4,field.angular_velocity_covariance5,field.angular_velocity_covariance6,field.angular_velocity_covariance7,field.angular_velocity_covariance8,field.linear_acceleration.x,field.linear_acceleration.y,field.linear_acceleration.z,field.linear_acceleration_covariance0,field.linear_acceleration_covariance1,field.linear_acceleration_covariance2,field.linear_acceleration_covariance3,field.linear_acceleration_covariance4,field.linear_acceleration_covariance5,field.linear_acceleration_covariance6,field.linear_acceleration_covariance7,field.linear_acceleration_covariance8
21868000000,0,21868000000,imu_link,0.000368502322644,-0.366335196276,0.000198893921324,0.930482857777,0.0,0.0,0.0,0.0,0.0,0.0,0.0,0.0,0.0,0.000174472505713,-0.0100440676181,-5.75797652771e-05,0.0,0.0,0.0,0.0,0.0,0.0,0.0,0.0,0.0,5.89159525543,-0.0118012256501,7.64880887391,0.0,0.0,0.0,0.0,0.0,0.0,0.0,0.0,0.0
21872000000,1,21872000000,imu_link,0.000368558230929,-0.366353807063,0.000198769443765,0.930475530417,0.0,0.0,0.0,0.0,0.0,0.0,0.0,0.0,0.0,2.70988336174e-06,-0.0100006726071,-6.39949605932e-05,0.0,0.0,0.0,0.0,0.0,0.0,0.0,0.0,0.0,5.89463533424,-0.011763594572,7.64368069522,0.0,0.0,0.0,0.0,0.0,0.0,0.0,0.0,0.0
21876000000,2,21876000000,imu_link,0.000368226590004,-0.366372088054,0.00019849733025,0.930468332671,0.0,0.0,0.0,0.0,0.0,0.0,0.0,0.0,0.0,-0.000204627250516,-0.00982348530581,-6.17643753034e-05,0.0,0.0,0.0,0.0,0.0,0.0,0.0,0.0,0.0,5.89699292473,-0.011690103306,7.63685651357,0.0,0.0,0.0,0.0,0.0,0.0,0.0,0.0,0.0
21880000000,3,21880000000,imu_link,0.000367476700139,-0.366389971788,0.000198082962874,0.930461291133,0.0,0.0,0.0,0.0,0.0,0.0,0.0,0.0,0.0,-0.000425259202874,-0.00961003753483,-5.14170063647e-05,0.0,0.0,0.0,0.0,0.0,0.0,0.0,0.0,0.0,5.89912667856,-0.0116215332965,7.63096380362,0.0,0.0,0.0,0.0,0.0,0.0,0.0,0.0,0.0
21884000000,4,21884000000,imu_link,0.000366124474212,-0.366407702687,0.000197498066323,0.930454309657,0.0,0.0,0.0,0.0,0.0,0.0,0.0,0.0,0.0,-0.000736720386084,-0.00952790214804,-2.04414884806e-05,0.0,0.0,0.0,0.0,0.0,0.0,0.0,0.0,0.0,5.90323595815,-0.0115847920807,7.63218877478,0.0,0.0,0.0,0.0,0.0,0.0,0.0,0.0,0.0
21888000000,5,21888000000,imu_link,0.000364289057593,-0.366425806647,0.000196796735887,0.930447181084,0.0,0.0,0.0,0.0,0.0,0.0,0.0,0.0,0.0,-0.000982854864826,-0.00972838330765,1.39955211637e-05,0.0,0.0,0.0,0.0,0.0,0.0,0.0,0.0,0.0,5.90680229683,-0.0116297320664,7.63400916289,0.0,0.0,0.0,0.0,0.0,0.0,0.0,0.0,0.0
21892000000,6,21892000000,imu_link,0.000362205229013,-0.366444645555,0.000196028040858,0.93043976276,0.0,0.0,0.0,0.0,0.0,0.0,0.0,0.0,0.0,-0.00111078357265,-0.0101233722004,2.83305775526e-05,0.0,0.0,0.0,0.0,0.0,0.0,0.0,0.0,0.0,5.9103089504,-0.011631724646,7.63462926894,0.0,0.0,0.0,0.0,0.0,0.0,0.0,0.0,0.0
21896000000,7,21896000000,imu_link,0.000360048858317,-0.366464248132,0.000195221062197,0.930432043244,0.0,0.0,0.0,0.0,0.0,0.0,0.0,0.0,0.0,-0.0011515663273,-0.0105338308151,2.39794294087e-05,0.0,0.0,0.0,0.0,0.0,0.0,0.0,0.0,0.0,5.91289007207,-0.0115542374108,7.630440904,0.0,0.0,0.0,0.0,0.0,0.0,0.0,0.0,0.0
21900000000,8,21900000000,imu_link,0.000357951080391,-0.366484398929,0.000194394022301,0.930424107289,0.0,0.0,0.0,0.0,0.0,0.0,0.0,0.0,0.0,-0.00112799844254,-0.0108285396457,4.03036355353e-06,0.0,0.0,0.0,0.0,0.0,0.0,0.0,0.0,0.0,5.91569258231,-0.011445224734,7.62517671204,0.0,0.0,0.0,0.0,0.0,0.0,0.0,0.0,0.0
21904000000,9,21904000000,imu_link,0.000356021298502,-0.366504854003,0.000193564468943,0.930416050901,0.0,0.0,0.0,0.0,0.0,0.0,0.0,0.0,0.0,-0.00105031325317,-0.0109921779713,-2.78567286249e-05,0.0,0.0,0.0,0.0,0.0,0.0,0.0,0.0,0.0,5.91912948438,-0.0113131185147,7.62119990086,0.0,0.0,0.0,0.0,0.0,0.0,0.0,0.0,0.0
21908000000,10,21908000000,imu_link,0.000354426822684,-0.366525399937,0.000192752925751,0.930407958064,0.0,0.0,0.0,0.0,0.0,0.0,0.0,0.0,0.0,-0.000891028077002,-0.0110411558445,-8.09042046208e-05,0.0,0.0,0.0,0.0,0.0,0.0,0.0,0.0,0.0,5.92226361169,-0.0111935622567,7.61663773315,0.0,0.0,0.0,0.0,0.0,0.0,0.0,0.0,0.0
21912000000,11,21912000000,imu_link,0.000353411759954,-0.366545909678,0.000191978293146,0.930399878731,0.0,0.0,0.0,0.0,0.0,0.0,0.0,0.0,0.0,-0.000614717374123,-0.0110218928383,-0.000169925774923,0.0,0.0,0.0,0.0,0.0,0.0,0.0,0.0,0.0,5.92551398887,-0.0110548020293,7.61308200246,0.0,0.0,0.0,0.0,0.0,0.0,0.0,0.0,0.0
21916000000,12,21916000000,imu_link,0.000353351863412,-0.366566461663,0.00019124030193,0.93039178186,0.0,0.0,0.0,0.0,0.0,0.0,0.0,0.0,0.0,-0.000163659701401,-0.0110448443082,-0.000327927184127,0.0,0.0,0.0,0.0,0.0,0.0,0.0,0.0,0.0,5.92784964636,-0.0109088638355,7.60920310141,0.0,0.0,0.0,0.0,0.0,0.0,0.0,0.0,0.0
21920000000,13,21920000000,imu_link,0.000354339052956,-0.36658730492,0.000190526522395,0.930383569296,0.0,0.0,0.0,0.0,0.0,0.0,0.0,0.0,0.0,0.000327870627686,-0.0112016431786,-0.000508514807861,0.0,0.0,0.0,0.0,0.0,0.0,0.0,0.0,0.0,5.93132059358,-0.0106642991955,7.60906103339,0.0,0.0,0.0,0.0,0.0,0.0,0.0,0.0,0.0
21924000000,14,21924000000,imu_link,0.000356295818729,-0.366608394883,0.00018987217144,0.930375258594,0.0,0.0,0.0,0.0,0.0,0.0,0.0,0.0,0.0,0.000789796290206,-0.0113344789496,-0.000658533230775,0.0,0.0,0.0,0.0,0.0,0.0,0.0,0.0,0.0,5.93452985982,-0.0103786006998,7.60602281155,0.0,0.0,0.0,0.0,0.0,0.0,0.0,0.0,0.0
21928000000,15,21928000000,imu_link,0.000358950292956,-0.366629529506,0.000189288417559,0.930366929453,0.0,0.0,0.0,0.0,0.0,0.0,0.0,0.0,0.0,0.00112730141671,-0.0113586875226,-0.000753575526922,0.0,0.0,0.0,0.0,0.0,0.0,0.0,0.0,0.0,5.93722441869,-0.0101073956158,7.60083623598,0.0,0.0,0.0,0.0,0.0,0.0,0.0,0.0,0.0
21932000000,16,21932000000,imu_link,0.000362296868785,-0.366650783426,0.000188778521367,0.93035855245,0.0,0.0,0.0,0.0,0.0,0.0,0.0,0.0,0.0,0.00146279214241,-0.0114230085526,-0.000846064653323,0.0,0.0,0.0,0.0,0.0,0.0,0.0,0.0,0.0,5.94026473318,-0.00995106006312,7.59845161027,0.0,0.0,0.0,0.0,0.0,0.0,0.0,0.0,0.0
21936000000,17,21936000000,imu_link,0.000366460501478,-0.366672561887,0.000188351977329,0.930349967802,0.0,0.0,0.0,0.0,0.0,0.0,0.0,0.0,0.0,0.00185813873317,-0.0117051428789,-0.000956963608741,0.0,0.0,0.0,0.0,0.0,0.0,0.0,0.0,0.0,5.9431822399,-0.00979439091916,7.59845663225,0.0,0.0,0.0,0.0,0.0,0.0,0.0,0.0,0.0
21940000000,18,21940000000,imu_link,0.000371449541022,-0.366695020368,0.00018798087105,0.930341114176,0.0,0.0,0.0,0.0,0.0,0.0,0.0,0.0,0.0,0.00225224634772,-0.0120708523714,-0.00108235244118,0.0,0.0,0.0,0.0,0.0,0.0,0.0,0.0,0.0,5.94567040803,-0.00956416292806,7.59578875758,0.0,0.0,0.0,0.0,0.0,0.0,0.0,0.0,0.0
21944000000,19,21944000000,imu_link,0.000377218668403,-0.366717902231,0.00018762724553,0.930332092688,0.0,0.0,0.0,0.0,0.0,0.0,0.0,0.0,0.0,0.00261831667719,-0.0122986444443,-0.00121715365935,0.0,0.0,0.0,0.0,0.0,0.0,0.0,0.0,0.0,5.9483706518,-0.00933612431955,7.59079446149,0.0,0.0,0.0,0.0,0.0,0.0,0.0,0.0,0.0
21948000000,20,21948000000,imu_link,0.000383583053426,-0.366740736704,0.00018725064321,0.930323088955,0.0,0.0,0.0,0.0,0.0,0.0,0.0,0.0,0.0,0.00289099841667,-0.0122734047515,-0.00133699810729,0.0,0.0,0.0,0.0,0.0,0.0,0.0,0.0,0.0,5.95151923864,-0.00909532147016,7.5856000407,0.0,0.0,0.0,0.0,0.0,0.0,0.0,0.0,0.0
21952000000,21,21952000000,imu_link,0.000390262714935,-0.366763106269,0.000186826720492,0.930314267692,0.0,0.0,0.0,0.0,0.0,0.0,0.0,0.0,0.0,0.00302898428572,-0.0120237263003,-0.00141692835168,0.0,0.0,0.0,0.0,0.0,0.0,0.0,0.0,0.0,5.95499956984,-0.00889483587089,7.58155389081,0.0,0.0,0.0,0.0,0.0,0.0,0.0,0.0,0.0
21956000000,22,21956000000,imu_link,0.000397024667082,-0.366784986645,0.000186351928917,0.930305638603,0.0,0.0,0.0,0.0,0.0,0.0,0.0,0.0,0.0,0.00305794215093,-0.0117609529341,-0.00145579435598,0.0,0.0,0.0,0.0,0.0,0.0,0.0,0.0,0.0,5.95765773979,-0.00874048970545,7.57820135042,0.0,0.0,0.0,0.0,0.0,0.0,0.0,0.0,0.0
21960000000,23,21960000000,imu_link,0.000403758411081,-0.366806786756,0.000185854256648,0.930297040534,0.0,0.0,0.0,0.0,0.0,0.0,0.0,0.0,0.0,0.00304062622437,-0.011717930694,-0.00146128303601,0.0,0.0,0.0,0.0,0.0,0.0,0.0,0.0,0.0,5.96156403508,-0.00863669218879,7.58055952763,0.0,0.0,0.0,0.0,0.0,0.0,0.0,0.0,0.0
21964000000,24,21964000000,imu_link,0.00041059226588,-0.366828999763,0.000185389911745,0.930288278964,0.0,0.0,0.0,0.0,0.0,0.0,0.0,0.0,0.0,0.00309329960531,-0.0119399776418,-0.00146404297365,0.0,0.0,0.0,0.0,0.0,0.0,0.0,0.0,0.0,5.96496569151,-0.0085838914928,7.58227601338,0.0,0.0,0.0,0.0,0.0,0.0,0.0,0.0,0.0
21968000000,25,21968000000,imu_link,0.000417571937681,-0.366851843739,0.00018497624749,0.930279267835,0.0,0.0,0.0,0.0,0.0,0.0,0.0,0.0,0.0,0.00317041384157,-0.0122792453377,-0.00146706145072,0.0,0.0,0.0,0.0,0.0,0.0,0.0,0.0,0.0,5.96787339137,-0.00848799580886,7.58077122514,0.0,0.0,0.0,0.0,0.0,0.0,0.0,0.0,0.0
21972000000,26,21972000000,imu_link,0.000424588385437,-0.36687519786,0.000184663564968,0.930270054779,0.0,0.0,0.0,0.0,0.0,0.0,0.0,0.0,0.0,0.00320603743931,-0.0125535548568,-0.00142671132129,0.0,0.0,0.0,0.0,0.0,0.0,0.0,0.0,0.0,5.97209238544,-0.00835923748794,7.57999064041,0.0,0.0,0.0,0.0,0.0,0.0,0.0,0.0,0.0
21976000000,27,21976000000,imu_link,0.000431582315988,-0.366898673122,0.000184480317311,0.9302607932,0.0,0.0,0.0,0.0,0.0,0.0,0.0,0.0,0.0,0.00321930623624,-0.0126187732759,-0.001362345932,0.0,0.0,0.0,0.0,0.0,0.0,0.0,0.0,0.0,5.97335918927,-0.00831680646638,7.57041064518,0.0,0.0,0.0,0.0,0.0,0.0,0.0,0.0,0.0
21980000000,28,21980000000,imu_link,0.000438557520142,-0.366922012084,0.000184431102748,0.930251584627,0.0,0.0,0.0,0.0,0.0,0.0,0.0,0.0,0.0,0.00323518543567,-0.0125456211196,-0.0012966020222,0.0,0.0,0.0,0.0,0.0,0.0,0.0,0.0,0.0,5.97501744355,-0.00832211397165,7.56307744966,0.0,0.0,0.0,0.0,0.0,0.0,0.0,0.0,0.0
21984000000,29,21984000000,imu_link,0.000445682775646,-0.366945184872,0.000184491474041,0.93024244078,0.0,0.0,0.0,0.0,0.0,0.0,0.0,0.0,0.0,0.00332508405098,-0.0124564445983,-0.00127320179259,0.0,0.0,0.0,0.0,0.0,0.0,0.0,0.0,0.0,5.97788026662,-0.0083154263516,7.56059969937,0.0,0.0,0.0,0.0,0.0,0.0,0.0,0.0,0.0
21988000000,30,21988000000,imu_link,0.000453186765679,-0.36696830977,0.000184660420086,0.930233314898,0.0,0.0,0.0,0.0,0.0,0.0,0.0,0.0,0.0,0.00352116242287,-0.0124308843772,-0.0012922011071,0.0,0.0,0.0,0.0,0.0,0.0,0.0,0.0,0.0,5.97979264955,-0.0082796540387,7.55705832441,0.0,0.0,0.0,0.0,0.0,0.0,0.0,0.0,0.0
21992000000,31,21992000000,imu_link,0.000461178477521,-0.366991450478,0.000184932619028,0.930224181792,0.0,0.0,0.0,0.0,0.0,0.0,0.0,0.0,0.0,0.00376695540831,-0.0124395852249,-0.00133366143889,0.0,0.0,0.0,0.0,0.0,0.0,0.0,0.0,0.0,5.98228430335,-0.00817996382709,7.5546929853,0.0,0.0,0.0,0.0,0.0,0.0,0.0,0.0,0.0
21996000000,32,21996000000,imu_link,0.00046928183315,-0.367014584631,0.000185270839228,0.930215050468,0.0,0.0,0.0,0.0,0.0,0.0,0.0,0.0,0.0,0.00383099709749,-0.0124362045901,-0.0013234419872,0.0,0.0,0.0,0.0,0.0,0.0,0.0,0.0,0.0,5.98430324374,-0.00799751591638,7.55051027505,0.0,0.0,0.0,0.0,0.0,0.0,0.0,0.0,0.0
22000000000,33,22000000000,imu_link,0.000476792979958,-0.367037599191,0.000185614362892,0.9302059659,0.0,0.0,0.0,0.0,0.0,0.0,0.0,0.0,0.0,0.00355652964985,-0.0123719446778,-0.00121233306203,0.0,0.0,0.0,0.0,0.0,0.0,0.0,0.0,0.0,5.98687145693,-0.00783201761543,7.54694180549,0.0,0.0,0.0,0.0,0.0,0.0,0.0,0.0,0.0
22004000000,34,22004000000,imu_link,0.000483042346438,-0.367060557956,0.000185892449971,0.930196903299,0.0,0.0,0.0,0.0,0.0,0.0,0.0,0.0,0.0,0.00295766295337,-0.0123418612548,-0.00101122274172,0.0,0.0,0.0,0.0,0.0,0.0,0.0,0.0,0.0,5.99012022567,-0.00775131328753,7.54601100289,0.0,0.0,0.0,0.0,0.0,0.0,0.0,0.0,0.0
22008000000,35,22008000000,imu_link,0.000487861328178,-0.367083554315,0.000186064905822,0.930187825937,0.0,0.0,0.0,0.0,0.0,0.0,0.0,0.0,0.0,0.00227300676701,-0.0123619483353,-0.000797822299762,0.0,0.0,0.0,0.0,0.0,0.0,0.0,0.0,0.0,5.9921074344,-0.00784045036277,7.54241252596,0.0,0.0,0.0,0.0,0.0,0.0,0.0,0.0,0.0
22012000000,36,22012000000,imu_link,0.000491669017491,-0.367106761668,0.000186151602235,0.930178665175,0.0,0.0,0.0,0.0,0.0,0.0,0.0,0.0,0.0,0.00178692109046,-0.012475314158,-0.000652034856526,0.0,0.0,0.0,0.0,0.0,0.0,0.0,0.0,0.0,5.99499523279,-0.00803196631797,7.5415425929,0.0,0.0,0.0,0.0,0.0,0.0,0.0,0.0,0.0
22016000000,37,22016000000,imu_link,0.000495059511901,-0.367130494164,0.000186207872756,0.930169296686,0.0,0.0,0.0,0.0,0.0,0.0,0.0,0.0,0.0,0.00158730560417,-0.0127576501546,-0.000589459646626,0.0,0.0,0.0,0.0,0.0,0.0,0.0,0.0,0.0,5.998069302,-0.00818106709007,7.54205246006,0.0,0.0,0.0,0.0,0.0,0.0,0.0,0.0,0.0
22020000000,38,22020000000,imu_link,0.000498198252039,-0.367154982849,0.000186253585049,0.930159629137,0.0,0.0,0.0,0.0,0.0,0.0,0.0,0.0,0.0,0.00146828405489,-0.0131642185863,-0.000547941758503,0.0,0.0,0.0,0.0,0.0,0.0,0.0,0.0,0.0,6.00012305973,-0.00821656420508,7.5390212663,0.0,0.0,0.0,0.0,0.0,0.0,0.0,0.0,0.0
22024000000,39,22024000000,imu_link,0.000501105001205,-0.367180282968,0.000186276765969,0.930149640646,0.0,0.0,0.0,0.0,0.0,0.0,0.0,0.0,0.0,0.00135625786426,-0.0136005013019,-0.000515600308332,0.0,0.0,0.0,0.0,0.0,0.0,0.0,0.0,0.0,6.00210361768,-0.00823656993484,7.53470828256,0.0,0.0,0.0,0.0,0.0,0.0,0.0,0.0,0.0
22028000000,40,22028000000,imu_link,0.000503511600749,-0.367206469125,0.000186209832483,0.930139301844,0.0,0.0,0.0,0.0,0.0,0.0,0.0,0.0,0.0,0.0011071119993,-0.0140768657105,-0.000465433083333,0.0,0.0,0.0,0.0,0.0,0.0,0.0,0.0,0.0,6.00469993195,-0.00818022349268,7.53218740016,0.0,0.0,0.0,0.0,0.0,0.0,0.0,0.0,0.0
22032000000,41,22032000000,imu_link,0.000505174914912,-0.367233433123,0.000186020584385,0.930128655505,0.0,0.0,0.0,0.0,0.0,0.0,0.0,0.0,0.0,0.000738980171529,-0.0144950418717,-0.000385623838209,0.0,0.0,0.0,0.0,0.0,0.0,0.0,0.0,0.0,6.00672243015,-0.0081207846548,7.5271167233,0.0,0.0,0.0,0.0,0.0,0.0,0.0,0.0,0.0
22036000000,42,22036000000,imu_link,0.000506105796501,-0.367261029776,0.000185711756661,0.930117758876,0.0,0.0,0.0,0.0,0.0,0.0,0.0,0.0,0.0,0.000376399467146,-0.0148351868021,-0.000306566111837,0.0,0.0,0.0,0.0,0.0,0.0,0.0,0.0,0.0,6.00830240732,-0.00812244743191,7.5210544779,0.0,0.0,0.0,0.0,0.0,0.0,0.0,0.0,0.0
22040000000,43,22040000000,imu_link,0.000506642682846,-0.367289103811,0.000185296511908,0.930106673022,0.0,0.0,0.0,0.0,0.0,0.0,0.0,0.0,0.0,0.000173630621987,-0.0150919352215,-0.000283568373102,0.0,0.0,0.0,0.0,0.0,0.0,0.0,0.0,0.0,6.01058275051,-0.0081634387825,7.51691407964,0.0,0.0,0.0,0.0,0.0,0.0,0.0,0.0,0.0
22044000000,44,22044000000,imu_link,0.000507098609141,-0.367317499713,0.00018479923974,0.930095459136,0.0,0.0,0.0,0.0,0.0,0.0,0.0,0.0,0.0,0.000120918606269,-0.0152651463464,-0.000306754225968,0.0,0.0,0.0,0.0,0.0,0.0,0.0,0.0,0.0,6.01306319226,-0.00817293167793,7.51297382871,0.0,0.0,0.0,0.0,0.0,0.0,0.0,0.0,0.0
22048000000,45,22048000000,imu_link,0.000507530592905,-0.367346081676,0.00018422820712,0.930084170788,0.0,0.0,0.0,0.0,0.0,0.0,0.0,0.0,0.0,9.62391222158e-05,-0.0153653652097,-0.000336605046243,0.0,0.0,0.0,0.0,0.0,0.0,0.0,0.0,0.0,6.01547800454,-0.00809187356491,7.50871922755,0.0,0.0,0.0,0.0,0.0,0.0,0.0,0.0,0.0
22052000000,46,22052000000,imu_link,0.000507909429238,-0.367374590914,0.000183605812576,0.930072910189,0.0,0.0,0.0,0.0,0.0,0.0,0.0,0.0,0.0,6.20891857352e-05,-0.0153264570127,-0.000350749762848,0.0,0.0,0.0,0.0,0.0,0.0,0.0,0.0,0.0,6.01837918033,-0.00798705402382,7.50475550632,0.0,0.0,0.0,0.0,0.0,0.0,0.0,0.0,0.0
22056000000,47,22056000000,imu_link,0.000508135553999,-0.367402917935,0.000182946577921,0.930061720652,0.0,0.0,0.0,0.0,0.0,0.0,0.0,0.0,0.0,-1.56956406036e-05,-0.0152286616319,-0.000339883380084,0.0,0.0,0.0,0.0,0.0,0.0,0.0,0.0,0.0,6.01975573699,-0.00786825188976,7.49861881357,0.0,0.0,0.0,0.0,0.0,0.0,0.0,0.0,0.0
22060000000,48,22060000000,imu_link,0.000508205083306,-0.367431063373,0.000182248204696,0.930050601947,0.0,0.0,0.0,0.0,0.0,0.0,0.0,0.0,0.0,-9.57085578326e-05,-0.0151312029051,-0.000329369823685,0.0,0.0,0.0,0.0,0.0,0.0,0.0,0.0,0.0,6.02136804376,-0.00777235637656,7.49396796849,0.0,0.0,0.0,0.0,0.0,0.0,0.0,0.0,0.0
22064000000,49,22064000000,imu_link,0.000508169135414,-0.367459170013,0.000181477652463,0.930039497658,0.0,0.0,0.0,0.0,0.0,0.0,0.0,0.0,0.0,-0.000158018656639,-0.0151105219932,-0.000343568260961,0.0,0.0,0.0,0.0,0.0,0.0,0.0,0.0,0.0,6.02364928436,-0.00767790682213,7.49194112732,0.0,0.0,0.0,0.0,0.0,0.0,0.0,0.0,0.0
22068000000,50,22068000000,imu_link,0.000508336619117,-0.367487185193,0.000180643330201,0.930028428426,0.0,0.0,0.0,0.0,0.0,0.0,0.0,0.0,0.0,-7.51359974087e-05,-0.0150615841248,-0.000410625406453,0.0,0.0,0.0,0.0,0.0,0.0,0.0,0.0,0.0,6.02620154804,-0.00768779520415,7.4892042708,0.0,0.0,0.0,0.0,0.0,0.0,0.0,0.0,0.0
22072000000,51,22072000000,imu_link,0.000508849537102,-0.367514806064,0.000179774597022,0.930017513855,0.0,0.0,0.0,0.0,0.0,0.0,0.0,0.0,0.0,7.91693733398e-05,-0.014849847555,-0.000490212497452,0.0,0.0,0.0,0.0,0.0,0.0,0.0,0.0,0.0,6.02985940981,-0.0076268601993,7.48720233136,0.0,0.0,0.0,0.0,0.0,0.0,0.0,0.0,0.0
22076000000,52,22076000000,imu_link,0.000509691242193,-0.367541661337,0.000178893223441,0.930006900724,0.0,0.0,0.0,0.0,0.0,0.0,0.0,0.0,0.0,0.000229727613423,-0.0144384784365,-0.000556729343201,0.0,0.0,0.0,0.0,0.0,0.0,0.0,0.0,0.0,6.03235889784,-0.00746865908413,7.48253725102,0.0,0.0,0.0,0.0,0.0,0.0,0.0,0.0,0.0
22080000000,53,22080000000,imu_link,0.00051050716518,-0.367567402638,0.000177959692044,0.929996727,0.0,0.0,0.0,0.0,0.0,0.0,0.0,0.0,0.0,0.000208141420679,-0.0138397384748,-0.000576568102793,0.0,0.0,0.0,0.0,0.0,0.0,0.0,0.0,0.0,6.03544717249,-0.00724289260944,7.47937824325,0.0,0.0,0.0,0.0,0.0,0.0,0.0,0.0,0.0
22084000000,54,22084000000,imu_link,0.00051097410718,-0.367591935104,0.000176920752613,0.929987030475,0.0,0.0,0.0,0.0,0.0,0.0,0.0,0.0,0.0,2.64793096129e-05,-0.0131899265479,-0.000561796669114,0.0,0.0,0.0,0.0,0.0,0.0,0.0,0.0,0.0,6.03758084128,-0.00707256426736,7.47617051994,0.0,0.0,0.0,0.0,0.0,0.0,0.0,0.0,0.0
22088000000,55,22088000000,imu_link,0.000510955763071,-0.367615633786,0.000175721982964,0.929977663088,0.0,0.0,0.0,0.0,0.0,0.0,0.0,0.0,0.0,-0.000228562067431,-0.01274172603,-0.000547165191093,0.0,0.0,0.0,0.0,0.0,0.0,0.0,0.0,0.0,6.04094690255,-0.00698019760522,7.47902639815,0.0,0.0,0.0,0.0,0.0,0.0,0.0,0.0,0.0
22092000000,56,22092000000,imu_link,0.000510520812959,-0.367639042514,0.000174327895582,0.929968409892,0.0,0.0,0.0,0.0,0.0,0.0,0.0,0.0,0.0,-0.000458183829966,-0.012585924508,-0.000561494425244,0.0,0.0,0.0,0.0,0.0,0.0,0.0,0.0,0.0,6.04519006772,-0.00695837450732,7.4847321706,0.0,0.0,0.0,0.0,0.0,0.0,0.0,0.0,0.0
22096000000,57,22096000000,imu_link,0.000509710871141,-0.367662516233,0.000172742470781,0.92995913056,0.0,0.0,0.0,0.0,0.0,0.0,0.0,0.0,0.0,-0.000667719596218,-0.012620965211,-0.000581513639423,0.0,0.0,0.0,0.0,0.0,0.0,0.0,0.0,0.0,6.04714722622,-0.00690370458223,7.48346383517,0.0,0.0,0.0,0.0,0.0,0.0,0.0,0.0,0.0
22100000000,58,22100000000,imu_link,0.000508536659724,-0.367686282119,0.000170962208469,0.929949735257,0.0,0.0,0.0,0.0,0.0,0.0,0.0,0.0,0.0,-0.000872910420091,-0.0127781541971,-0.000605060484747,0.0,0.0,0.0,0.0,0.0,0.0,0.0,0.0,0.0,6.04958222725,-0.00683482993145,7.48237873858,0.0,0.0,0.0,0.0,0.0,0.0,0.0,0.0,0.0
22104000000,59,22104000000,imu_link,0.00050682150761,-0.367710421487,0.000168909437848,0.929940191911,0.0,0.0,0.0,0.0,0.0,0.0,0.0,0.0,0.0,-0.00117452731571,-0.012979053146,-0.000632214143414,0.0,0.0,0.0,0.0,0.0,0.0,0.0,0.0,0.0,6.05226708668,-0.00672049368582,7.48080272381,0.0,0.0,0.0,0.0,0.0,0.0,0.0,0.0,0.0
22108000000,60,22108000000,imu_link,0.000504500745888,-0.367734894428,0.000166555660195,0.929930516307,0.0,0.0,0.0,0.0,0.0,0.0,0.0,0.0,0.0,-0.00151145404079,-0.0131584967416,-0.000660733229055,0.0,0.0,0.0,0.0,0.0,0.0,0.0,0.0,0.0,6.05412564036,-0.00664815920569,7.47639391358,0.0,0.0,0.0,0.0,0.0,0.0,0.0,0.0,0.0
22112000000,61,22112000000,imu_link,0.000501609607077,-0.367759525484,0.000163933920313,0.92992077777,0.0,0.0,0.0,0.0,0.0,0.0,0.0,0.0,0.0,-0.00182592639508,-0.0132436055506,-0.000680407451168,0.0,0.0,0.0,0.0,0.0,0.0,0.0,0.0,0.0,6.05696692919,-0.00663733096545,7.47323646493,0.0,0.0,0.0,0.0,0.0,0.0,0.0,0.0,0.0
22116000000,62,22116000000,imu_link,0.000498299705559,-0.367784293823,0.000161111923434,0.929910984427,0.0,0.0,0.0,0.0,0.0,0.0,0.0,0.0,0.0,-0.00205745518203,-0.0133175305364,-0.000696478112084,0.0,0.0,0.0,0.0,0.0,0.0,0.0,0.0,0.0,6.05917496086,-0.00664440490453,7.46987300127,0.0,0.0,0.0,0.0,0.0,0.0,0.0,0.0,0.0
22120000000,63,22120000000,imu_link,0.000494571035969,-0.367809459138,0.000158198332782,0.92990103352,0.0,0.0,0.0,0.0,0.0,0.0,0.0,0.0,0.0,-0.00226899979488,-0.0135310708467,-0.00066194538035,0.0,0.0,0.0,0.0,0.0,0.0,0.0,0.0,0.0,6.06251582821,-0.00658881545265,7.47174132717,0.0,0.0,0.0,0.0,0.0,0.0,0.0,0.0,0.0
22124000000,64,22124000000,imu_link,0.000490405444441,-0.367835428865,0.00015529132223,0.929890763831,0.0,0.0,0.0,0.0,0.0,0.0,0.0,0.0,0.0,-0.00247092156233,-0.0139636716156,-0.000578309813826,0.0,0.0,0.0,0.0,0.0,0.0,0.0,0.0,0.0,6.06570449764,-0.00647187540976,7.47433392921,0.0,0.0,0.0,0.0,0.0,0.0,0.0,0.0,0.0
22128000000,65,22128000000,imu_link,0.0004859176251,-0.367862350776,0.000152434760836,0.929880116751,0.0,0.0,0.0,0.0,0.0,0.0,0.0,0.0,0.0,-0.00261144279799,-0.0144757570665,-0.0004953275269,0.0,0.0,0.0,0.0,0.0,0.0,0.0,0.0,0.0,6.06831893411,-0.00638720551298,7.47384887767,0.0,0.0,0.0,0.0,0.0,0.0,0.0,0.0,0.0
22132000000,66,22132000000,imu_link,0.0004814649099,-0.367889950013,0.00014963982362,0.929869200737,0.0,0.0,0.0,0.0,0.0,0.0,0.0,0.0,0.0,-0.00258377315276,-0.0148401254879,-0.000472947664579,0.0,0.0,0.0,0.0,0.0,0.0,0.0,0.0,0.0,6.07144199708,-0.00632666336576,7.47167746878,0.0,0.0,0.0,0.0,0.0,0.0,0.0,0.0,0.0
22136000000,67,22136000000,imu_link,0.000477384850978,-0.367917795038,0.000146919323016,0.929858186291,0.0,0.0,0.0,0.0,0.0,0.0,0.0,0.0,0.0,-0.00239681480938,-0.0149725173922,-0.000506821223951,0.0,0.0,0.0,0.0,0.0,0.0,0.0,0.0,0.0,6.07393801739,-0.00623580311805,7.46670480082,0.0,0.0,0.0,0.0,0.0,0.0,0.0,0.0,0.0
22140000000,68,22140000000,imu_link,0.00047384903952,-0.367945552859,0.000144303410694,0.929847205069,0.0,0.0,0.0,0.0,0.0,0.0,0.0,0.0,0.0,-0.00212453990776,-0.0149258764863,-0.000558337507586,0.0,0.0,0.0,0.0,0.0,0.0,0.0,0.0,0.0,6.07667952172,-0.00606249004219,7.46261982169,0.0,0.0,0.0,0.0,0.0,0.0,0.0,0.0,0.0
22144000000,69,22144000000,imu_link,0.000470918188951,-0.367973181275,0.000141831408742,0.929836273751,0.0,0.0,0.0,0.0,0.0,0.0,0.0,0.0,0.0,-0.0018168062084,-0.0148565418804,-0.000602760774528,0.0,0.0,0.0,0.0,0.0,0.0,0.0,0.0,0.0,6.07831205626,-0.00585940396755,7.45821331952,0.0,0.0,0.0,0.0,0.0,0.0,0.0,0.0,0.0
22148000000,70,22148000000,imu_link,0.000468671868971,-0.368000672704,0.000139521235179,0.929825395313,0.0,0.0,0.0,0.0,0.0,0.0,0.0,0.0,0.0,-0.00146878400532,-0.0147831355143,-0.000653504275105,0.0,0.0,0.0,0.0,0.0,0.0,0.0,0.0,0.0,6.0810972674,-0.00565392084405,7.45666366159,0.0,0.0,0.0,0.0,0.0,0.0,0.0,0.0,0.0
22152000000,71,22152000000,imu_link,0.000467051221268,-0.368028039358,0.000137328565442,0.929814564981,0.0,0.0,0.0,0.0,0.0,0.0,0.0,0.0,0.0,-0.00115628284351,-0.0147162903698,-0.000714031759457,0.0,0.0,0.0,0.0,0.0,0.0,0.0,0.0,0.0,6.08379625528,-0.00541774964398,7.4550723899,0.0,0.0,0.0,0.0,0.0,0.0,0.0,0.0,0.0
22156000000,72,22156000000,imu_link,0.000465753197023,-0.368055390685,0.000135165186684,0.929803739609,0.0,0.0,0.0,0.0,0.0,0.0,0.0,0.0,0.0,-0.00100090300398,-0.0147082674915,-0.00075978532877,0.0,0.0,0.0,0.0,0.0,0.0,0.0,0.0,0.0,6.08634324482,-0.00514542993577,7.45382149033,0.0,0.0,0.0,0.0,0.0,0.0,0.0,0.0,0.0
22160000000,73,22160000000,imu_link,0.00046434670385,-0.36808276846,0.00013295282199,0.929792902892,0.0,0.0,0.0,0.0,0.0,0.0,0.0,0.0,0.0,-0.00106034432539,-0.014722655142,-0.000762590769989,0.0,0.0,0.0,0.0,0.0,0.0,0.0,0.0,0.0,6.08923274848,-0.00496135678335,7.45298255837,0.0,0.0,0.0,0.0,0.0,0.0,0.0,0.0,0.0
22164000000,74,22164000000,imu_link,0.000462642112677,-0.368110118207,0.000130686767103,0.929782076487,0.0,0.0,0.0,0.0,0.0,0.0,0.0,0.0,0.0,-0.00120881077654,-0.0147077192671,-0.000732695974189,0.0,0.0,0.0,0.0,0.0,0.0,0.0,0.0,0.0,6.09159001945,-0.00485896209155,7.45051131129,0.0,0.0,0.0,0.0,0.0,0.0,0.0,0.0,0.0
22168000000,75,22168000000,imu_link,0.000460615901142,-0.3681373578,0.000128381732535,0.929771292923,0.0,0.0,0.0,0.0,0.0,0.0,0.0,0.0,0.0,-0.00136550632012,-0.0146486132303,-0.000691649703975,0.0,0.0,0.0,0.0,0.0,0.0,0.0,0.0,0.0,6.09282392819,-0.00474889895852,7.44539721023,0.0,0.0,0.0,0.0,0.0,0.0,0.0,0.0,0.0
22172000000,76,22172000000,imu_link,0.000458421370344,-0.368164407954,0.000126062364376,0.929760583524,0.0,0.0,0.0,0.0,0.0,0.0,0.0,0.0,0.0,-0.00144639881517,-0.0145468866584,-0.000667379270103,0.0,0.0,0.0,0.0,0.0,0.0,0.0,0.0,0.0,6.09437062933,-0.00468212498485,7.44114172181,0.0,0.0,0.0,0.0,0.0,0.0,0.0,0.0,0.0
22176000000,77,22176000000,imu_link,0.000456336550035,-0.368191022046,0.000123747242397,0.929750045834,0.0,0.0,0.0,0.0,0.0,0.0,0.0,0.0,0.0,-0.00139462679736,-0.0143125671942,-0.000685711826801,0.0,0.0,0.0,0.0,0.0,0.0,0.0,0.0,0.0,6.09597846795,-0.0046199168539,7.4361421906,0.0,0.0,0.0,0.0,0.0,0.0,0.0,0.0,0.0
22180000000,78,22180000000,imu_link,0.000454864222159,-0.36821682662,0.000121489437624,0.92973982755,0.0,0.0,0.0,0.0,0.0,0.0,0.0,0.0,0.0,-0.00109936531321,-0.0138774662979,-0.000772028065516,0.0,0.0,0.0,0.0,0.0,0.0,0.0,0.0,0.0,6.09845148991,-0.00455043197641,7.43228541047,0.0,0.0,0.0,0.0,0.0,0.0,0.0,0.0,0.0
22184000000,79,22184000000,imu_link,0.000454385620297,-0.36824172787,0.000119328951862,0.929729965716,0.0,0.0,0.0,0.0,0.0,0.0,0.0,0.0,0.0,-0.00061952093373,-0.0133919505599,-0.00090996780286,0.0,0.0,0.0,0.0,0.0,0.0,0.0,0.0,0.0,6.10060309321,-0.0044167786579,7.42951507776,0.0,0.0,0.0,0.0,0.0,0.0,0.0,0.0,0.0
22188000000,80,22188000000,imu_link,0.000455053227975,-0.368266185431,0.000117307850672,0.929720278274,0.0,0.0,0.0,0.0,0.0,0.0,0.0,0.0,0.0,-6.10377956873e-05,-0.013153623093,-0.00105632509459,0.0,0.0,0.0,0.0,0.0,0.0,0.0,0.0,0.0,6.10349183337,-0.00418285822518,7.43229237839,0.0,0.0,0.0,0.0,0.0,0.0,0.0,0.0,0.0
22192000000,81,22192000000,imu_link,0.000456500473223,-0.368290784666,0.000115380058747,0.929710533567,0.0,0.0,0.0,0.0,0.0,0.0,0.0,0.0,0.0,0.000318570676677,-0.0132300502323,-0.00115647082017,0.0,0.0,0.0,0.0,0.0,0.0,0.0,0.0,0.0,6.10763460674,-0.00385826175825,7.43891834799,0.0,0.0,0.0,0.0,0.0,0.0,0.0,0.0,0.0
22196000000,82,22196000000,imu_link,0.000458051390369,-0.368315695101,0.000113496656066,0.929700664757,0.0,0.0,0.0,0.0,0.0,0.0,0.0,0.0,0.0,0.000374947552562,-0.0133975624335,-0.00115484875806,0.0,0.0,0.0,0.0,0.0,0.0,0.0,0.0,0.0,6.11074505874,-0.003537075454,7.44021237695,0.0,0.0,0.0,0.0,0.0,0.0,0.0,0.0,0.0
22200000000,83,22200000000,imu_link,0.000459175346763,-0.368340631955,0.000111625758267,0.929690784911,0.0,0.0,0.0,0.0,0.0,0.0,0.0,0.0,0.0,0.000178778605313,-0.0134118481594,-0.00107040100917,0.0,0.0,0.0,0.0,0.0,0.0,0.0,0.0,0.0,6.11314793834,-0.00333184482828,7.43636708274,0.0,0.0,0.0,0.0,0.0,0.0,0.0,0.0,0.0
22204000000,84,22204000000,imu_link,0.000459503750127,-0.368365253491,0.000109753624572,0.929681029618,0.0,0.0,0.0,0.0,0.0,0.0,0.0,0.0,0.0,-0.000191269166877,-0.0132422911122,-0.000924537601703,0.0,0.0,0.0,0.0,0.0,0.0,0.0,0.0,0.0,6.11556976779,-0.0032662985414,7.43169384988,0.0,0.0,0.0,0.0,0.0,0.0,0.0,0.0,0.0
22208000000,85,22208000000,imu_link,0.000459023730538,-0.368389471397,0.000107883956418,0.929671433907,0.0,0.0,0.0,0.0,0.0,0.0,0.0,0.0,0.0,-0.000566617313781,-0.0130252305587,-0.000774595547336,0.0,0.0,0.0,0.0,0.0,0.0,0.0,0.0,0.0,6.11676484571,-0.0033139915807,7.42639196328,0.0,0.0,0.0,0.0,0.0,0.0,0.0,0.0,0.0
22212000000,86,22212000000,imu_link,0.000458080140799,-0.368413427286,0.000106040727735,0.929661941521,0.0,0.0,0.0,0.0,0.0,0.0,0.0,0.0,0.0,-0.000777240846505,-0.0128843724333,-0.000676984065172,0.0,0.0,0.0,0.0,0.0,0.0,0.0,0.0,0.0,6.11884871985,-0.00341766867895,7.42510820484,0.0,0.0,0.0,0.0,0.0,0.0,0.0,0.0,0.0
22216000000,87,22216000000,imu_link,0.000457251062169,-0.368437259577,0.000104299330157,0.929652497334,0.0,0.0,0.0,0.0,0.0,0.0,0.0,0.0,0.0,-0.000705259048802,-0.0128180244052,-0.000650774393292,0.0,0.0,0.0,0.0,0.0,0.0,0.0,0.0,0.0,6.12147183172,-0.00346429104272,7.42518443252,0.0,0.0,0.0,0.0,0.0,0.0,0.0,0.0,0.0
22220000000,88,22220000000,imu_link,0.000456843012801,-0.368461055967,0.000102719712959,0.929643066439,0.0,0.0,0.0,0.0,0.0,0.0,0.0,0.0,0.0,-0.000479751803396,-0.0127988731041,-0.000653144960893,0.0,0.0,0.0,0.0,0.0,0.0,0.0,0.0,0.0,6.12357498393,-0.0033918507141,7.42374042964,0.0,0.0,0.0,0.0,0.0,0.0,0.0,0.0,0.0
22224000000,89,22224000000,imu_link,0.000456698683976,-0.368484783997,0.000101302067798,0.929633661787,0.0,0.0,0.0,0.0,0.0,0.0,0.0,0.0,0.0,-0.000327331105788,-0.0127622398103,-0.000626459207928,0.0,0.0,0.0,0.0,0.0,0.0,0.0,0.0,0.0,6.12485744835,-0.00320211864578,7.41984242097,0.0,0.0,0.0,0.0,0.0,0.0,0.0,0.0,0.0
22228000000,90,22228000000,imu_link,0.000456587525826,-0.368508411272,0.000100006366925,0.929624296342,0.0,0.0,0.0,0.0,0.0,0.0,0.0,0.0,0.0,-0.000289449359852,-0.0127081571746,-0.000575913888121,0.0,0.0,0.0,0.0,0.0,0.0,0.0,0.0,0.0,6.12674395401,-0.00304871119739,7.41694799962,0.0,0.0,0.0,0.0,0.0,0.0,0.0,0.0,0.0
22232000000,91,22232000000,imu_link,0.00045635636937,-0.368532043683,9.87668268394e-05,0.929614928216,0.0,0.0,0.0,0.0,0.0,0.0,0.0,0.0,0.0,-0.000334877813958,-0.0127110197696,-0.000527698172833,0.0,0.0,0.0,0.0,0.0,0.0,0.0,0.0,0.0,6.12910375016,-0.00292858599087,7.41586035858,0.0,0.0,0.0,0.0,0.0,0.0,0.0,0.0,0.0
22236000000,92,22236000000,imu_link,0.000456099754857,-0.368555883953,9.75546403215e-05,0.929605476995,0.0,0.0,0.0,0.0,0.0,0.0,0.0,0.0,0.0,-0.000341661880039,-0.012822938013,-0.00051024144315,0.0,0.0,0.0,0.0,0.0,0.0,0.0,0.0,0.0,6.13124030323,-0.00288507896571,7.41526520404,0.0,0.0,0.0,0.0,0.0,0.0,0.0,0.0,0.0
22240000000,93,22240000000,imu_link,0.000455887570911,-0.368580187484,9.63204293604e-05,0.929595841365,0.0,0.0,0.0,0.0,0.0,0.0,0.0,0.0,0.0,-0.000325049592149,-0.013072253393,-0.000528551396147,0.0,0.0,0.0,0.0,0.0,0.0,0.0,0.0,0.0,6.13374462679,-0.00281201224104,7.41567891512,0.0,0.0,0.0,0.0,0.0,0.0,0.0,0.0,0.0
22244000000,94,22244000000,imu_link,0.000455792189842,-0.368605187647,9.50875747706e-05,0.929585928708,0.0,0.0,0.0,0.0,0.0,0.0,0.0,0.0,0.0,-0.0002704802948,-0.01344710456,-0.00054927443662,0.0,0.0,0.0,0.0,0.0,0.0,0.0,0.0,0.0,6.1355273046,-0.00272891632568,7.41428943247,0.0,0.0,0.0,0.0,0.0,0.0,0.0,0.0,0.0
22248000000,95,22248000000,imu_link,0.000456013978098,-0.368630998887,9.39492107855e-05,0.929575693467,0.0,0.0,0.0,0.0,0.0,0.0,0.0,0.0,0.0,-0.000105612406973,-0.0138835340548,-0.000563610819381,0.0,0.0,0.0,0.0,0.0,0.0,0.0,0.0,0.0,6.13823456039,-0.00265981160876,7.41395413163,0.0,0.0,0.0,0.0,0.0,0.0,0.0,0.0,0.0
22252000000,96,22252000000,imu_link,0.000456751928905,-0.368657351322,9.29778521124e-05,0.929565242492,0.0,0.0,0.0,0.0,0.0,0.0,0.0,0.0,0.0,0.000165099107533,-0.0141748247001,-0.000580992007801,0.0,0.0,0.0,0.0,0.0,0.0,0.0,0.0,0.0,6.14128015198,-0.00261891606513,7.41145905516,0.0,0.0,0.0,0.0,0.0,0.0,0.0,0.0,0.0
22256000000,97,22256000000,imu_link,0.000458140377893,-0.368683744292,9.22069357476e-05,0.929554774233,0.0,0.0,0.0,0.0,0.0,0.0,0.0,0.0,0.0,0.000504388685866,-0.014196834619,-0.000607725314263,0.0,0.0,0.0,0.0,0.0,0.0,0.0,0.0,0.0,6.14307956845,-0.0025323104649,7.40491860559,0.0,0.0,0.0,0.0,0.0,0.0,0.0,0.0,0.0
22260000000,98,22260000000,imu_link,0.000459993818902,-0.368709769406,9.16132149595e-05,0.92954445077,0.0,0.0,0.0,0.0,0.0,0.0,0.0,0.0,0.0,0.000753154817306,-0.0139991525104,-0.000611177256946,0.0,0.0,0.0,0.0,0.0,0.0,0.0,0.0,0.0,6.14475452596,-0.00232004128992,7.39928323823,0.0,0.0,0.0,0.0,0.0,0.0,0.0,0.0,0.0
22264000000,99,22264000000,imu_link,0.000462025763016,-0.368735302428,9.11290700548e-05,0.929534321567,0.0,0.0,0.0,0.0,0.0,0.0,0.0,0.0,0.0,0.00085629681452,-0.0137346117263,-0.000593279427486,0.0,0.0,0.0,0.0,0.0,0.0,0.0,0.0,0.0,6.14651396333,-0.00213083803254,7.39626876838,0.0,0.0,0.0,0.0,0.0,0.0,0.0,0.0,0.0
22268000000,100,22268000000,imu_link,0.000463940380595,-0.36876044265,9.07346411762e-05,0.929524347429,0.0,0.0,0.0,0.0,0.0,0.0,0.0,0.0,0.0,0.000818290102282,-0.013523436589,-0.000530048953994,0.0,0.0,0.0,0.0,0.0,0.0,0.0,0.0,0.0,6.14853798089,-0.00198320776401,7.3954321665,0.0,0.0,0.0,0.0,0.0,0.0,0.0,0.0,0.0
22272000000,101,22272000000,imu_link,0.000465708957955,-0.368785548996,9.04272111409e-05,0.929514386005,0.0,0.0,0.0,0.0,0.0,0.0,0.0,0.0,0.0,0.00076645558623,-0.0135053210433,-0.000462696689693,0.0,0.0,0.0,0.0,0.0,0.0,0.0,0.0,0.0,6.15100929106,-0.00193254821368,7.39725909424,0.0,0.0,0.0,0.0,0.0,0.0,0.0,0.0,0.0
22276000000,102,22276000000,imu_link,0.000467763679566,-0.368811062898,9.03036531952e-05,0.92950426192,0.0,0.0,0.0,0.0,0.0,0.0,0.0,0.0,0.0,0.000933367319501,-0.0137246989268,-0.000429901490336,0.0,0.0,0.0,0.0,0.0,0.0,0.0,0.0,0.0,6.15324405924,-0.0019801569497,7.39855824731,0.0,0.0,0.0,0.0,0.0,0.0,0.0,0.0,0.0
22280000000,103,22280000000,imu_link,0.00047043906056,-0.368837311759,9.04375110696e-05,0.929493845037,0.0,0.0,0.0,0.0,0.0,0.0,0.0,0.0,0.0,0.00126932428651,-0.0141202344902,-0.000424534848504,0.0,0.0,0.0,0.0,0.0,0.0,0.0,0.0,0.0,6.15532187458,-0.00194260791949,7.39861210055,0.0,0.0,0.0,0.0,0.0,0.0,0.0,0.0,0.0
22284000000,104,22284000000,imu_link,0.000473705964821,-0.368864120566,9.08211301173e-05,0.92948320475,0.0,0.0,0.0,0.0,0.0,0.0,0.0,0.0,0.0,0.00159032075395,-0.0144216354771,-0.000417405225659,0.0,0.0,0.0,0.0,0.0,0.0,0.0,0.0,0.0,6.15627206172,-0.00180300141816,7.39246555587,0.0,0.0,0.0,0.0,0.0,0.0,0.0,0.0,0.0
22288000000,105,22288000000,imu_link,0.000477328278921,-0.368890961508,9.13812886581e-05,0.929472550603,0.0,0.0,0.0,0.0,0.0,0.0,0.0,0.0,0.0,0.00178805585768,-0.0144391004346,-0.000400900706756,0.0,0.0,0.0,0.0,0.0,0.0,0.0,0.0,0.0,6.15843768109,-0.00162201901415,7.38628760975,0.0,0.0,0.0,0.0,0.0,0.0,0.0,0.0,0.0
22292000000,106,22292000000,imu_link,0.000481078377273,-0.368917354085,9.20506642726e-05,0.92946207343,0.0,0.0,0.0,0.0,0.0,0.0,0.0,0.0,0.0,0.00186756467974,-0.0141980669935,-0.000373827893143,0.0,0.0,0.0,0.0,0.0,0.0,0.0,0.0,0.0,6.16120910775,-0.00147111858096,7.38184789237,0.0,0.0,0.0,0.0,0.0,0.0,0.0,0.0,0.0
22296000000,107,22296000000,imu_link,0.000484963036253,-0.368943241444,9.27771055005e-05,0.929451795843,0.0,0.0,0.0,0.0,0.0,0.0,0.0,0.0,0.0,0.00194060067163,-0.0139264532666,-0.000372259317701,0.0,0.0,0.0,0.0,0.0,0.0,0.0,0.0,0.0,6.16274967991,-0.00144363355119,7.37822183202,0.0,0.0,0.0,0.0,0.0,0.0,0.0,0.0,0.0
22300000000,108,22300000000,imu_link,0.00048894850028,-0.368968660279,9.35376646295e-05,0.929441703342,0.0,0.0,0.0,0.0,0.0,0.0,0.0,0.0,0.0,0.00199371802632,-0.0136745713446,-0.00037512171014,0.0,0.0,0.0,0.0,0.0,0.0,0.0,0.0,0.0,6.16336645066,-0.00140434900001,7.37361540415,0.0,0.0,0.0,0.0,0.0,0.0,0.0,0.0,0.0
22304000000,109,22304000000,imu_link,0.000492830607497,-0.368993669655,9.42654664832e-05,0.929431772637,0.0,0.0,0.0,0.0,0.0,0.0,0.0,0.0,0.0,0.00193962235301,-0.0134544418275,-0.00037138465635,0.0,0.0,0.0,0.0,0.0,0.0,0.0,0.0,0.0,6.16502527224,-0.00135286702215,7.37176399324,0.0,0.0,0.0,0.0,0.0,0.0,0.0,0.0,0.0
22308000000,110,22308000000,imu_link,0.00049642011351,-0.369018366417,9.49228455398e-05,0.929421965419,0.0,0.0,0.0,0.0,0.0,0.0,0.0,0.0,0.0,0.00179063744659,-0.0132863850267,-0.000350210106284,0.0,0.0,0.0,0.0,0.0,0.0,0.0,0.0,0.0,6.16664179875,-0.00131266420514,7.37014100083,0.0,0.0,0.0,0.0,0.0,0.0,0.0,0.0,0.0
22312000000,111,22312000000,imu_link,0.000499517082395,-0.369042990357,9.54442867287e-05,0.929412186622,0.0,0.0,0.0,0.0,0.0,0.0,0.0,0.0,0.0,0.00153666465093,-0.0132473111621,-0.00032252372682,0.0,0.0,0.0,0.0,0.0,0.0,0.0,0.0,0.0,6.16863406542,-0.00128784190064,7.37071853916,0.0,0.0,0.0,0.0,0.0,0.0,0.0,0.0,0.0
22316000000,112,22316000000,imu_link,0.000502156967086,-0.369067861582,9.57610919856e-05,0.92940230913,0.0,0.0,0.0,0.0,0.0,0.0,0.0,0.0,0.0,0.00128650796198,-0.0133804662345,-0.000333210961339,0.0,0.0,0.0,0.0,0.0,0.0,0.0,0.0,0.0,6.17075665211,-0.00131835778551,7.37222138263,0.0,0.0,0.0,0.0,0.0,0.0,0.0,0.0,0.0
22320000000,113,22320000000,imu_link,0.000504782192828,-0.369092973398,9.5849101411e-05,0.929392335344,0.0,0.0,0.0,0.0,0.0,0.0,0.0,0.0,0.0,0.00123748799439,-0.0135100955288,-0.000436762556815,0.0,0.0,0.0,0.0,0.0,0.0,0.0,0.0,0.0,6.17286688479,-0.0014235205322,7.37098764362,0.0,0.0,0.0,0.0,0.0,0.0,0.0,0.0,0.0
22324000000,114,22324000000,imu_link,0.000507817424339,-0.369118017195,9.57284953135e-05,0.929382387578,0.0,0.0,0.0,0.0,0.0,0.0,0.0,0.0,0.0,0.0013895135348,-0.0134737576832,-0.000609388929522,0.0,0.0,0.0,0.0,0.0,0.0,0.0,0.0,0.0,6.17545031581,-0.00144114928835,7.36814935159,0.0,0.0,0.0,0.0,0.0,0.0,0.0,0.0,0.0
22328000000,115,22328000000,imu_link,0.000511499363303,-0.369142666631,9.54324088572e-05,0.929372595321,0.0,0.0,0.0,0.0,0.0,0.0,0.0,0.0,0.0,0.00165762570295,-0.0132618763958,-0.000810396368525,0.0,0.0,0.0,0.0,0.0,0.0,0.0,0.0,0.0,6.17717638117,-0.00136953910323,7.36310881138,0.0,0.0,0.0,0.0,0.0,0.0,0.0,0.0,0.0
22332000000,116,22332000000,imu_link,0.000515760813349,-0.369166711412,9.50019784399e-05,0.92936304217,0.0,0.0,0.0,0.0,0.0,0.0,0.0,0.0,0.0,0.00190208821921,-0.0129368313434,-0.000979951349256,0.0,0.0,0.0,0.0,0.0,0.0,0.0,0.0,0.0,6.17955867226,-0.00120808641815,7.36036570617,0.0,0.0,0.0,0.0,0.0,0.0,0.0,0.0,0.0
22336000000,117,22336000000,imu_link,0.000520283059239,-0.369190183152,9.44545819775e-05,0.929353715787,0.0,0.0,0.0,0.0,0.0,0.0,0.0,0.0,0.0,0.00200165398401,-0.0126287350083,-0.00108260042844,0.0,0.0,0.0,0.0,0.0,0.0,0.0,0.0,0.0,6.18064236326,-0.00100450307465,7.35671066181,0.0,0.0,0.0,0.0,0.0,0.0,0.0,0.0,0.0
22340000000,118,22340000000,imu_link,0.00052482318056,-0.369213386078,9.38082027294e-05,0.929344495492,0.0,0.0,0.0,0.0,0.0,0.0,0.0,0.0,0.0,0.00199167364426,-0.0124842664473,-0.00113197009518,0.0,0.0,0.0,0.0,0.0,0.0,0.0,0.0,0.0,6.1823252595,-0.000857870523341,7.35623462454,0.0,0.0,0.0,0.0,0.0,0.0,0.0,0.0,0.0
22344000000,119,22344000000,imu_link,0.000529239048235,-0.369236544621,9.30750382934e-05,0.929335292217,0.0,0.0,0.0,0.0,0.0,0.0,0.0,0.0,0.0,0.00191791291249,-0.0124605181358,-0.00114937115365,0.0,0.0,0.0,0.0,0.0,0.0,0.0,0.0,0.0,6.18400361879,-0.000824520097438,7.35542050903,0.0,0.0,0.0,0.0,0.0,0.0,0.0,0.0,0.0
22348000000,120,22348000000,imu_link,0.000533439969897,-0.369259705129,9.22413006152e-05,0.929326087604,0.0,0.0,0.0,0.0,0.0,0.0,0.0,0.0,0.0,0.00179946705851,-0.0124616945127,-0.00115642074166,0.0,0.0,0.0,0.0,0.0,0.0,0.0,0.0,0.0,6.18476692321,-0.000828710671386,7.35134380627,0.0,0.0,0.0,0.0,0.0,0.0,0.0,0.0,0.0
22352000000,121,22352000000,imu_link,0.000537409063036,-0.369282892327,9.12964391224e-05,0.929316871843,0.0,0.0,0.0,0.0,0.0,0.0,0.0,0.0,0.0,0.00167122988089,-0.0124761734225,-0.00116524577293,0.0,0.0,0.0,0.0,0.0,0.0,0.0,0.0,0.0,6.1861849685,-0.000794719235898,7.34877828862,0.0,0.0,0.0,0.0,0.0,0.0,0.0,0.0,0.0
22356000000,122,22356000000,imu_link,0.000541204900716,-0.369306166697,9.0279862598e-05,0.929307620859,0.0,0.0,0.0,0.0,0.0,0.0,0.0,0.0,0.0,0.00157748918781,-0.0125231940722,-0.00116655359697,0.0,0.0,0.0,0.0,0.0,0.0,0.0,0.0,0.0,6.18750716712,-0.00077744335979,7.34616466739,0.0,0.0,0.0,0.0,0.0,0.0,0.0,0.0,0.0
22360000000,123,22360000000,imu_link,0.000544889138686,-0.369329718001,8.92518345676e-05,0.929298259189,0.0,0.0,0.0,0.0,0.0,0.0,0.0,0.0,0.0,0.00152353685262,-0.0126723087014,-0.0011511874172,0.0,0.0,0.0,0.0,0.0,0.0,0.0,0.0,0.0,6.18884409902,-0.00075591546463,7.34455591065,0.0,0.0,0.0,0.0,0.0,0.0,0.0,0.0,0.0
22364000000,124,22364000000,imu_link,0.000548569834171,-0.369353377181,8.82563443746e-05,0.929288853935,0.0,0.0,0.0,0.0,0.0,0.0,0.0,0.0,0.0,0.00152790649574,-0.012730472937,-0.00113538323159,0.0,0.0,0.0,0.0,0.0,0.0,0.0,0.0,0.0,6.19072657301,-0.000732835097925,7.34141082987,0.0,0.0,0.0,0.0,0.0,0.0,0.0,0.0,0.0
22368000000,125,22368000000,imu_link,0.000552490199949,-0.36937674129,8.73312349442e-05,0.929279565105,0.0,0.0,0.0,0.0,0.0,0.0,0.0,0.0,0.0,0.00165224673543,-0.012571859886,-0.00114702878996,0.0,0.0,0.0,0.0,0.0,0.0,0.0,0.0,0.0,6.19346377605,-0.000725983782874,7.33785469083,0.0,0.0,0.0,0.0,0.0,0.0,0.0,0.0,0.0
22372000000,126,22372000000,imu_link,0.000556618142523,-0.369399352741,8.64795538313e-05,0.92927057464,0.0,0.0,0.0,0.0,0.0,0.0,0.0,0.0,0.0,0.00176220697217,-0.0121670297297,-0.00115146903859,0.0,0.0,0.0,0.0,0.0,0.0,0.0,0.0,0.0,6.19611024554,-0.000636748898873,7.33404020119,0.0,0.0,0.0,0.0,0.0,0.0,0.0,0.0,0.0
22376000000,127,22376000000,imu_link,0.000560617202843,-0.369421081254,8.56775309518e-05,0.929261934598,0.0,0.0,0.0,0.0,0.0,0.0,0.0,0.0,0.0,0.00171143624086,-0.0116920428309,-0.00110485244255,0.0,0.0,0.0,0.0,0.0,0.0,0.0,0.0,0.0,6.19682595392,-0.000495215706503,7.32898739775,0.0,0.0,0.0,0.0,0.0,0.0,0.0,0.0,0.0
22380000000,128,22380000000,imu_link,0.000563830106689,-0.369442096778,8.48627065771e-05,0.92925357789,0.0,0.0,0.0,0.0,0.0,0.0,0.0,0.0,0.0,0.00134375014954,-0.0113084013906,-0.000965801020846,0.0,0.0,0.0,0.0,0.0,0.0,0.0,0.0,0.0,6.19984246294,-0.000342269878312,7.33150338872,0.0,0.0,0.0,0.0,0.0,0.0,0.0,0.0,0.0
22384000000,129,22384000000,imu_link,0.000565800116491,-0.369462676166,8.40123821289e-05,0.929245394787,0.0,0.0,0.0,0.0,0.0,0.0,0.0,0.0,0.0,0.000759680234128,-0.0110736495863,-0.000752836934811,0.0,0.0,0.0,0.0,0.0,0.0,0.0,0.0,0.0,6.20262868438,-0.000312279783738,7.33413643383,0.0,0.0,0.0,0.0,0.0,0.0,0.0,0.0,0.0
22388000000,130,22388000000,imu_link,0.000566544635155,-0.369482878371,8.31454421935e-05,0.929237361875,0.0,0.0,0.0,0.0,0.0,0.0,0.0,0.0,0.0,0.000187193189056,-0.0108706104432,-0.000534283263151,0.0,0.0,0.0,0.0,0.0,0.0,0.0,0.0,0.0,6.20429617696,-0.000477466529126,7.33215557775,0.0,0.0,0.0,0.0,0.0,0.0,0.0,0.0,0.0
22392000000,131,22392000000,imu_link,0.000566627756215,-0.369502514556,8.23270876421e-05,0.929229553927,0.0,0.0,0.0,0.0,0.0,0.0,0.0,0.0,0.0,-0.000111168954404,-0.0105660251315,-0.000389691731335,0.0,0.0,0.0,0.0,0.0,0.0,0.0,0.0,0.0,6.20685289002,-0.000699770234151,7.33039908648,0.0,0.0,0.0,0.0,0.0,0.0,0.0,0.0,0.0
22396000000,132,22396000000,imu_link,0.000566849758956,-0.369521632007,8.16526157034e-05,0.929221951685,0.0,0.0,0.0,0.0,0.0,0.0,0.0,0.0,0.0,-2.00969061079e-05,-0.0102869741023,-0.000348655740574,0.0,0.0,0.0,0.0,0.0,0.0,0.0,0.0,0.0,6.20882680714,-0.00085946766238,7.32932860282,0.0,0.0,0.0,0.0,0.0,0.0,0.0,0.0,0.0
22400000000,133,22400000000,imu_link,0.000567892321524,-0.369540524672,8.12060163221e-05,0.929214437861,0.0,0.0,0.0,0.0,0.0,0.0,0.0,0.0,0.0,0.000403230232938,-0.0101661690667,-0.000394458272182,0.0,0.0,0.0,0.0,0.0,0.0,0.0,0.0,0.0,6.21014658581,-0.000875753997405,7.32881018516,0.0,0.0,0.0,0.0,0.0,0.0,0.0,0.0,0.0
22404000000,134,22404000000,imu_link,0.000569803075972,-0.369559574353,8.0955204967e-05,0.929206860594,0.0,0.0,0.0,0.0,0.0,0.0,0.0,0.0,0.0,0.000842785891898,-0.0102508216671,-0.000463862623266,0.0,0.0,0.0,0.0,0.0,0.0,0.0,0.0,0.0,6.21104331904,-0.000690470832098,7.3281499403,0.0,0.0,0.0,0.0,0.0,0.0,0.0,0.0,0.0
22408000000,135,22408000000,imu_link,0.000572180833193,-0.369579012289,8.08140703696e-05,0.929199128149,0.0,0.0,0.0,0.0,0.0,0.0,0.0,0.0,0.0,0.00108005152507,-0.0104598675947,-0.000499082202862,0.0,0.0,0.0,0.0,0.0,0.0,0.0,0.0,0.0,6.21331689151,-0.000426594564015,7.32917052053,0.0,0.0,0.0,0.0,0.0,0.0,0.0,0.0,0.0
22412000000,136,22412000000,imu_link,0.000574501944104,-0.369598913369,8.06996851089e-05,0.929191211039,0.0,0.0,0.0,0.0,0.0,0.0,0.0,0.0,0.0,0.00105871078779,-0.010709158432,-0.000476046866205,0.0,0.0,0.0,0.0,0.0,0.0,0.0,0.0,0.0,6.21559136728,-0.000221186433987,7.32866222934,0.0,0.0,0.0,0.0,0.0,0.0,0.0,0.0,0.0
22416000000,137,22416000000,imu_link,0.00057655542606,-0.369619192818,8.05826756033e-05,0.929183143084,0.0,0.0,0.0,0.0,0.0,0.0,0.0,0.0,0.0,0.000933914655203,-0.0109128131928,-0.000427693619748,0.0,0.0,0.0,0.0,0.0,0.0,0.0,0.0,0.0,6.21646596504,-0.000134389606302,7.32371827591,0.0,0.0,0.0,0.0,0.0,0.0,0.0,0.0,0.0
22420000000,138,22420000000,imu_link,0.000578267290317,-0.369639823263,8.04348970764e-05,0.929174935195,0.0,0.0,0.0,0.0,0.0,0.0,0.0,0.0,0.0,0.000769541738561,-0.0111017391375,-0.000378747596074,0.0,0.0,0.0,0.0,0.0,0.0,0.0,0.0,0.0,6.21708580847,-0.000110520594014,7.31884296173,0.0,0.0,0.0,0.0,0.0,0.0,0.0,0.0,0.0
22424000000,139,22424000000,imu_link,0.000579561399464,-0.369660967805,8.02222839828e-05,0.929166522511,0.0,0.0,0.0,0.0,0.0,0.0,0.0,0.0,0.0,0.000563513768925,-0.0113784340754,-0.000331502581957,0.0,0.0,0.0,0.0,0.0,0.0,0.0,0.0,0.0,6.21883616671,-8.95736509599e-05,7.3178702504,0.0,0.0,0.0,0.0,0.0,0.0,0.0,0.0,0.0
22428000000,140,22428000000,imu_link,0.000580376594156,-0.369682828108,7.99486324095e-05,0.929157824793,0.0,0.0,0.0,0.0,0.0,0.0,0.0,0.0,0.0,0.000329790245373,-0.0117636462059,-0.000271123200712,0.0,0.0,0.0,0.0,0.0,0.0,0.0,0.0,0.0,6.22201015028,-7.0687835126e-05,7.32033794501,0.0,0.0,0.0,0.0,0.0,0.0,0.0,0.0,0.0
22432000000,141,22432000000,imu_link,0.000580533593338,-0.369705490485,7.9587151895e-05,0.929148807755,0.0,0.0,0.0,0.0,0.0,0.0,0.0,0.0,0.0,7.83266562589e-06,-0.0121952960395,-0.000190019368428,0.0,0.0,0.0,0.0,0.0,0.0,0.0,0.0,0.0,6.22373256486,-4.4070321624e-05,7.31859646722,0.0,0.0,0.0,0.0,0.0,0.0,0.0,0.0,0.0
22436000000,142,22436000000,imu_link,0.000579966733728,-0.369728860687,7.91442259087e-05,0.929139508874,0.0,0.0,0.0,0.0,0.0,0.0,0.0,0.0,0.0,-0.000343455377472,-0.0125762272159,-9.38328916666e-05,0.0,0.0,0.0,0.0,0.0,0.0,0.0,0.0,0.0,6.22547057432,-9.74154177881e-05,7.31561458826,0.0,0.0,0.0,0.0,0.0,0.0,0.0,0.0,0.0
22440000000,143,22440000000,imu_link,0.000578791564865,-0.369752787051,7.86437585801e-05,0.929129988367,0.0,0.0,0.0,0.0,0.0,0.0,0.0,0.0,0.0,-0.000636652546255,-0.0128755664869,-7.94006750823e-06,0.0,0.0,0.0,0.0,0.0,0.0,0.0,0.0,0.0,6.22676589374,-0.000203155150342,7.31157967666,0.0,0.0,0.0,0.0,0.0,0.0,0.0,0.0,0.0
22444000000,144,22444000000,imu_link,0.000577543148912,-0.369776987493,7.81380078219e-05,0.929120358113,0.0,0.0,0.0,0.0,0.0,0.0,0.0,0.0,0.0,-0.000671636378376,-0.0130231823481,3.23072671383e-06,0.0,0.0,0.0,0.0,0.0,0.0,0.0,0.0,0.0,6.22929433286,-0.000309042939414,7.3095052562,0.0,0.0,0.0,0.0,0.0,0.0,0.0,0.0,0.0
22448000000,145,22448000000,imu_link,0.000576900497931,-0.369801087285,7.76980015228e-05,0.929110766804,0.0,0.0,0.0,0.0,0.0,0.0,0.0,0.0,0.0,-0.000378074014278,-0.0129692282764,-7.82565755409e-05,0.0,0.0,0.0,0.0,0.0,0.0,0.0,0.0,0.0,6.23219399442,-0.000353728489611,7.30778301937,0.0,0.0,0.0,0.0,0.0,0.0,0.0,0.0,0.0
22452000000,146,22452000000,imu_link,0.000577155171929,-0.369824842909,7.73549498917e-05,0.929101311201,0.0,0.0,0.0,0.0,0.0,0.0,0.0,0.0,0.0,5.66843326559e-05,-0.0127842581491,-0.000199236186345,0.0,0.0,0.0,0.0,0.0,0.0,0.0,0.0,0.0,6.23457647685,-0.000235456939234,7.30601830164,0.0,0.0,0.0,0.0,0.0,0.0,0.0,0.0,0.0
22456000000,147,22456000000,imu_link,0.000578325923325,-0.369848365269,7.7141232879e-05,0.92909194717,0.0,0.0,0.0,0.0,0.0,0.0,0.0,0.0,0.0,0.000506146862407,-0.0126589604733,-0.000308618651001,0.0,0.0,0.0,0.0,0.0,0.0,0.0,0.0,0.0,6.23572067942,-3.76312962697e-05,7.30404349602,0.0,0.0,0.0,0.0,0.0,0.0,0.0,0.0,0.0
22460000000,148,22460000000,imu_link,0.000580338880243,-0.369872060311,7.70825954565e-05,0.929082513164,0.0,0.0,0.0,0.0,0.0,0.0,0.0,0.0,0.0,0.000926081586745,-0.012752106587,-0.000392268587549,0.0,0.0,0.0,0.0,0.0,0.0,0.0,0.0,0.0,6.23764087489,0.000169794733563,7.30559958921,0.0,0.0,0.0,0.0,0.0,0.0,0.0,0.0,0.0
22464000000,149,22464000000,imu_link,0.000583275126515,-0.369896448313,7.71989998991e-05,0.929072801968,0.0,0.0,0.0,0.0,0.0,0.0,0.0,0.0,0.0,0.00138741285583,-0.013125262655,-0.000481492128137,0.0,0.0,0.0,0.0,0.0,0.0,0.0,0.0,0.0,6.24083825321,0.000327533750594,7.31073254452,0.0,0.0,0.0,0.0,0.0,0.0,0.0,0.0,0.0
22468000000,150,22468000000,imu_link,0.000587287728214,-0.36992175707,7.74770496724e-05,0.929062722714,0.0,0.0,0.0,0.0,0.0,0.0,0.0,0.0,0.0,0.00191738694793,-0.0136210524919,-0.000605189279484,0.0,0.0,0.0,0.0,0.0,0.0,0.0,0.0,0.0,6.24365233416,0.00048698962596,7.31276024223,0.0,0.0,0.0,0.0,0.0,0.0,0.0,0.0,0.0
22472000000,151,22472000000,imu_link,0.000592620546224,-0.36994775503,7.78957547313e-05,0.929052367351,0.0,0.0,0.0,0.0,0.0,0.0,0.0,0.0,0.0,0.00255673893283,-0.0139922885654,-0.000783825780549,0.0,0.0,0.0,0.0,0.0,0.0,0.0,0.0,0.0,6.24651248399,0.000654360608977,7.31134918965,0.0,0.0,0.0,0.0,0.0,0.0,0.0,0.0,0.0
22476000000,152,22476000000,imu_link,0.000599422603721,-0.369974085466,7.84327373654e-05,0.929041877756,0.0,0.0,0.0,0.0,0.0,0.0,0.0,0.0,0.0,0.00326114423187,-0.014171583789,-0.00100054993086,0.0,0.0,0.0,0.0,0.0,0.0,0.0,0.0,0.0,6.24894868337,0.000875325041064,7.30803668179,0.0,0.0,0.0,0.0,0.0,0.0,0.0,0.0,0.0
22480000000,153,22480000000,imu_link,0.000607631004928,-0.370000613178,7.90824601016e-05,0.929031307749,0.0,0.0,0.0,0.0,0.0,0.0,0.0,0.0,0.0,0.00393529215479,-0.0142781193628,-0.00120827287753,0.0,0.0,0.0,0.0,0.0,0.0,0.0,0.0,0.0,6.2498241051,0.00109872497798,7.30311348975,0.0,0.0,0.0,0.0,0.0,0.0,0.0,0.0,0.0
22484000000,154,22484000000,imu_link,0.000616902313811,-0.370027382499,7.98434235131e-05,0.929020639845,0.0,0.0,0.0,0.0,0.0,0.0,0.0,0.0,0.0,0.00444962915726,-0.0144084697491,-0.0013531608129,0.0,0.0,0.0,0.0,0.0,0.0,0.0,0.0,0.0,6.2514997289,0.00135691008769,7.30176604286,0.0,0.0,0.0,0.0,0.0,0.0,0.0,0.0,0.0
22488000000,155,22488000000,imu_link,0.000626986304924,-0.370054706115,8.07715575687e-05,0.929009749597,0.0,0.0,0.0,0.0,0.0,0.0,0.0,0.0,0.0,0.00485810375215,-0.0147070626637,-0.00142568581384,0.0,0.0,0.0,0.0,0.0,0.0,0.0,0.0,0.0,6.25458580116,0.00153736885826,7.30576449689,0.0,0.0,0.0,0.0,0.0,0.0,0.0,0.0,0.0
22492000000,156,22492000000,imu_link,0.000637861957564,-0.370082740521,8.19304049314e-05,0.928998574589,0.0,0.0,0.0,0.0,0.0,0.0,0.0,0.0,0.0,0.00526858322769,-0.0150898764866,-0.00146476306647,0.0,0.0,0.0,0.0,0.0,0.0,0.0,0.0,0.0,6.25622580011,0.00164208468467,7.30530449119,0.0,0.0,0.0,0.0,0.0,0.0,0.0,0.0,0.0
22496000000,157,22496000000,imu_link,0.00064958534845,-0.370111271608,8.33398961076e-05,0.928987199977,0.0,0.0,0.0,0.0,0.0,0.0,0.0,0.0,0.0,0.00570877982717,-0.015357474008,-0.0015050392569,0.0,0.0,0.0,0.0,0.0,0.0,0.0,0.0,0.0,6.25705872626,0.00173384120632,7.30032072986,0.0,0.0,0.0,0.0,0.0,0.0,0.0,0.0,0.0
22500000000,158,22500000000,imu_link,0.000662146137859,-0.370140002572,8.49992123789e-05,0.928975743942,0.0,0.0,0.0,0.0,0.0,0.0,0.0,0.0,0.0,0.00614399574085,-0.0154653371333,-0.00154389410389,0.0,0.0,0.0,0.0,0.0,0.0,0.0,0.0,0.0,6.25806083969,0.00184569075946,7.29535463183,0.0,0.0,0.0,0.0,0.0,0.0,0.0,0.0,0.0
22504000000,159,22504000000,imu_link,0.000675482734905,-0.370168764966,8.688924175e-05,0.928964273596,0.0,0.0,0.0,0.0,0.0,0.0,0.0,0.0,0.0,0.00654705045543,-0.0154825412285,-0.00158029837355,0.0,0.0,0.0,0.0,0.0,0.0,0.0,0.0,0.0,6.25925509969,0.00194223954448,7.29140648443,0.0,0.0,0.0,0.0,0.0,0.0,0.0,0.0,0.0
22508000000,160,22508000000,imu_link,0.000689343469675,-0.370197917845,8.89755834794e-05,0.928952646001,0.0,0.0,0.0,0.0,0.0,0.0,0.0,0.0,0.0,0.00682687356239,-0.0156929750835,-0.00158598578257,0.0,0.0,0.0,0.0,0.0,0.0,0.0,0.0,0.0,6.26158900072,0.00207136077433,7.2942364085,0.0,0.0,0.0,0.0,0.0,0.0,0.0,0.0,0.0
22512000000,161,22512000000,imu_link,0.000703351304625,-0.370227717955,9.12312723207e-05,0.928940759054,0.0,0.0,0.0,0.0,0.0,0.0,0.0,0.0,0.0,0.0069266046848,-0.0160415527227,-0.00153432152848,0.0,0.0,0.0,0.0,0.0,0.0,0.0,0.0,0.0,6.26400849382,0.0021855286924,7.29651861724,0.0,0.0,0.0,0.0,0.0,0.0,0.0,0.0,0.0
22516000000,162,22516000000,imu_link,0.000716895654081,-0.370258228308,9.36057586958e-05,0.928928588035,0.0,0.0,0.0,0.0,0.0,0.0,0.0,0.0,0.0,0.00673338797404,-0.0164239626715,-0.00139308327075,0.0,0.0,0.0,0.0,0.0,0.0,0.0,0.0,0.0,6.26608085015,0.00229636722056,7.29613047955,0.0,0.0,0.0,0.0,0.0,0.0,0.0,0.0,0.0
22520000000,163,22520000000,imu_link,0.000729124645357,-0.370289345848,9.60323521402e-05,0.928916174639,0.0,0.0,0.0,0.0,0.0,0.0,0.0,0.0,0.0,0.00613215606276,-0.0167507699011,-0.00112514131436,0.0,0.0,0.0,0.0,0.0,0.0,0.0,0.0,0.0,6.26945614422,0.00236835074475,7.29729322968,0.0,0.0,0.0,0.0,0.0,0.0,0.0,0.0,0.0
22524000000,164,22524000000,imu_link,0.00073943133595,-0.370321124741,9.84687994525e-05,0.928903497741,0.0,0.0,0.0,0.0,0.0,0.0,0.0,0.0,0.0,0.00524121666195,-0.017106630264,-0.000764407117786,0.0,0.0,0.0,0.0,0.0,0.0,0.0,0.0,0.0,6.27195205031,0.0022742656197,7.29758758316,0.0,0.0,0.0,0.0,0.0,0.0,0.0,0.0,0.0
22528000000,165,22528000000,imu_link,0.000747760125011,-0.37035376504,0.000100968512689,0.928890477603,0.0,0.0,0.0,0.0,0.0,0.0,0.0,0.0,0.0,0.00433437568058,-0.0175701462234,-0.000368458413341,0.0,0.0,0.0,0.0,0.0,0.0,0.0,0.0,0.0,6.27381657173,0.00193775354148,7.29789408479,0.0,0.0,0.0,0.0,0.0,0.0,0.0,0.0,0.0
22532000000,166,22532000000,imu_link,0.000754405079422,-0.370387198844,0.000103567101652,0.928877141004,0.0,0.0,0.0,0.0,0.0,0.0,0.0,0.0,0.0,0.00357071445125,-0.0179971648356,-1.04161497962e-05,0.0,0.0,0.0,0.0,0.0,0.0,0.0,0.0,0.0,6.27442498473,0.00147472611607,7.29337022241,0.0,0.0,0.0,0.0,0.0,0.0,0.0,0.0,0.0
22540000000,167,22540000000,imu_link,0.000765323983357,-0.370453658994,0.000109217620995,0.928850627867,0.0,0.0,0.0,0.0,0.0,0.0,0.0,0.0,0.0,0.00302185752232,-0.0176769885655,0.000378337700921,0.0,0.0,0.0,0.0,0.0,0.0,0.0,0.0,0.0,6.27948782785,0.000973989260786,7.28736258802,0.0,0.0,0.0,0.0,0.0,0.0,0.0,0.0,0.0
22544000000,168,22544000000,imu_link,0.000770816232403,-0.37048505055,0.000112313158926,0.928838102442,0.0,0.0,0.0,0.0,0.0,0.0,0.0,0.0,0.0,0.00312719491445,-0.0168981934167,0.000433030652198,0.0,0.0,0.0,0.0,0.0,0.0,0.0,0.0,0.0,6.28334669364,0.000689806313269,7.28072685937,0.0,0.0,0.0,0.0,0.0,0.0,0.0,0.0,0.0
22548000000,169,22548000000,imu_link,0.000776649552725,-0.370514865049,0.000115542572483,0.928826204542,0.0,0.0,0.0,0.0,0.0,0.0,0.0,0.0,0.0,0.00331024108034,-0.0160495012563,0.000431381088234,0.0,0.0,0.0,0.0,0.0,0.0,0.0,0.0,0.0,6.28369914671,0.000671066250951,7.27640547365,0.0,0.0,0.0,0.0,0.0,0.0,0.0,0.0,0.0
22552000000,170,22552000000,imu_link,0.000782446406678,-0.370543520657,0.000118776978161,0.928814767846,0.0,0.0,0.0,0.0,0.0,0.0,0.0,0.0,0.0,0.00329411830237,-0.0154258517371,0.000439978490422,0.0,0.0,0.0,0.0,0.0,0.0,0.0,0.0,0.0,6.28491669419,0.000772544595073,7.27763031783,0.0,0.0,0.0,0.0,0.0,0.0,0.0,0.0,0.0
22556000000,171,22556000000,imu_link,0.000787927650141,-0.3705713806,0.000121919717397,0.92880364781,0.0,0.0,0.0,0.0,0.0,0.0,0.0,0.0,0.0,0.00313048662481,-0.0149976876461,0.000455551540027,0.0,0.0,0.0,0.0,0.0,0.0,0.0,0.0,0.0,6.28539180173,0.000800477935167,7.27703376972,0.0,0.0,0.0,0.0,0.0,0.0,0.0,0.0,0.0
22560000000,172,22560000000,imu_link,0.000793073244723,-0.37059864712,0.000124950404484,0.928792763847,0.0,0.0,0.0,0.0,0.0,0.0,0.0,0.0,0.0,0.00295379218416,-0.0146783841704,0.00046545707453,0.0,0.0,0.0,0.0,0.0,0.0,0.0,0.0,0.0,6.28559606869,0.000765851385856,7.27435530964,0.0,0.0,0.0,0.0,0.0,0.0,0.0,0.0,0.0
22564000000,173,22564000000,imu_link,0.000798127856054,-0.370625302019,0.000127900215979,0.928782123071,0.0,0.0,0.0,0.0,0.0,0.0,0.0,0.0,0.0,0.00289649547728,-0.0143493132178,0.000444500153515,0.0,0.0,0.0,0.0,0.0,0.0,0.0,0.0,0.0,6.2854847039,0.000701380208335,7.26930053563,0.0,0.0,0.0,0.0,0.0,0.0,0.0,0.0,0.0
22572000000,174,22572000000,imu_link,0.000809488487436,-0.370676748043,0.00013372864466,0.928761581519,0.0,0.0,0.0,0.0,0.0,0.0,0.0,0.0,0.0,0.00334950952223,-0.0136828291989,0.000250339547351,0.0,0.0,0.0,0.0,0.0,0.0,0.0,0.0,0.0,6.28731053097,0.000666177183666,7.26541537164,0.0,0.0,0.0,0.0,0.0,0.0,0.0,0.0,0.0
22576000000,175,22576000000,imu_link,0.000816393945149,-0.370701410894,0.000136711870243,0.928751731504,0.0,0.0,0.0,0.0,0.0,0.0,0.0,0.0,0.0,0.00376200576546,-0.0132777942335,0.00011614711217,0.0,0.0,0.0,0.0,0.0,0.0,0.0,0.0,0.0,6.28767922087,0.000614704751366,7.25908040366,0.0,0.0,0.0,0.0,0.0,0.0,0.0,0.0,0.0
22580000000,176,22580000000,imu_link,0.000824156542444,-0.370725213095,0.000139778520301,0.928742223442,0.0,0.0,0.0,0.0,0.0,0.0,0.0,0.0,0.0,0.00417542273327,-0.0128147728454,-4.35869020302e-06,0.0,0.0,0.0,0.0,0.0,0.0,0.0,0.0,0.0,6.28805687071,0.000717943946016,7.25447550141,0.0,0.0,0.0,0.0,0.0,0.0,0.0,0.0,0.0
22584000000,177,22584000000,imu_link,0.000832708969635,-0.370748161379,0.000142930829365,0.928733054758,0.0,0.0,0.0,0.0,0.0,0.0,0.0,0.0,0.0,0.00455799472537,-0.0123553496723,-0.000111361650015,0.0,0.0,0.0,0.0,0.0,0.0,0.0,0.0,0.0,6.28862118635,0.000848842218986,7.25126142049,0.0,0.0,0.0,0.0,0.0,0.0,0.0,0.0,0.0
22588000000,178,22588000000,imu_link,0.000841761575157,-0.370770432612,0.000146088116324,0.92872415517,0.0,0.0,0.0,0.0,0.0,0.0,0.0,0.0,0.0,0.00479111991974,-0.0119911005199,-0.000202071305061,0.0,0.0,0.0,0.0,0.0,0.0,0.0,0.0,0.0,6.29010329298,0.00102074480256,7.2513926016,0.0,0.0,0.0,0.0,0.0,0.0,0.0,0.0,0.0
22592000000,179,22592000000,imu_link,0.000850829068898,-0.370792274481,0.000149156917766,0.928715426289,0.0,0.0,0.0,0.0,0.0,0.0,0.0,0.0,0.0,0.00478158905213,-0.0117601118889,-0.000246113859424,0.0,0.0,0.0,0.0,0.0,0.0,0.0,0.0,0.0,6.29226049584,0.00118963811168,7.2535860025,0.0,0.0,0.0,0.0,0.0,0.0,0.0,0.0,0.0
22596000000,180,22596000000,imu_link,0.000859537888799,-0.370813844532,0.000152065995579,0.928706805603,0.0,0.0,0.0,0.0,0.0,0.0,0.0,0.0,0.0,0.00458539818818,-0.0116138736099,-0.000253909718377,0.0,0.0,0.0,0.0,0.0,0.0,0.0,0.0,0.0,6.29444737001,0.00126060240339,7.25436809862,0.0,0.0,0.0,0.0,0.0,0.0,0.0,0.0,0.0
22600000000,181,22600000000,imu_link,0.000867678019238,-0.37083519796,0.000154791146819,0.928698271307,0.0,0.0,0.0,0.0,0.0,0.0,0.0,0.0,0.0,0.00428720338464,-0.0114973022423,-0.000233977351738,0.0,0.0,0.0,0.0,0.0,0.0,0.0,0.0,0.0,6.29495658072,0.00125887303151,7.25118962239,0.0,0.0,0.0,0.0,0.0,0.0,0.0,0.0,0.0
22604000000,182,22604000000,imu_link,0.000875146877197,-0.370856404656,0.000157337126581,0.92868979562,0.0,0.0,0.0,0.0,0.0,0.0,0.0,0.0,0.0,0.00394226297226,-0.0114183258384,-0.000192777935718,0.0,0.0,0.0,0.0,0.0,0.0,0.0,0.0,0.0,6.29675738648,0.00122351305096,7.25066620458,0.0,0.0,0.0,0.0,0.0,0.0,0.0,0.0,0.0
22608000000,183,22608000000,imu_link,0.000882062753572,-0.370877424525,0.000159729837142,0.928681394467,0.0,0.0,0.0,0.0,0.0,0.0,0.0,0.0,0.0,0.00365705044653,-0.0113177769011,-0.000161496939341,0.0,0.0,0.0,0.0,0.0,0.0,0.0,0.0,0.0,6.29844141159,0.00113481599231,7.24890161117,0.0,0.0,0.0,0.0,0.0,0.0,0.0,0.0,0.0
22612000000,184,22612000000,imu_link,0.000888578969644,-0.370898117171,0.000161988609009,0.928673123799,0.0,0.0,0.0,0.0,0.0,0.0,0.0,0.0,0.0,0.00344660306918,-0.0111416637315,-0.000149732371577,0.0,0.0,0.0,0.0,0.0,0.0,0.0,0.0,0.0,6.29871236878,0.00105701279368,7.24334629152,0.0,0.0,0.0,0.0,0.0,0.0,0.0,0.0,0.0
22616000000,185,22616000000,imu_link,0.000894761878143,-0.370918232434,0.000164145202393,0.928665083497,0.0,0.0,0.0,0.0,0.0,0.0,0.0,0.0,0.0,0.0032728316883,-0.0108308612128,-0.000135641184445,0.0,0.0,0.0,0.0,0.0,0.0,0.0,0.0,0.0,6.29970071979,0.000996275258182,7.2383052837,0.0,0.0,0.0,0.0,0.0,0.0,0.0,0.0,0.0
22620000000,186,22620000000,imu_link,0.000900439295288,-0.370937608053,0.000166204329607,0.92865733859,0.0,0.0,0.0,0.0,0.0,0.0,0.0,0.0,0.0,0.00301996816381,-0.0104326385886,-8.75050662533e-05,0.0,0.0,0.0,0.0,0.0,0.0,0.0,0.0,0.0,6.30073134798,0.000953197044815,7.23477890961,0.0,0.0,0.0,0.0,0.0,0.0,0.0,0.0,0.0
22624000000,187,22624000000,imu_link,0.000905222464209,-0.370956480909,0.000168141040563,0.928649794903,0.0,0.0,0.0,0.0,0.0,0.0,0.0,0.0,0.0,0.0025819898661,-0.0101618524579,2.12656292636e-05,0.0,0.0,0.0,0.0,0.0,0.0,0.0,0.0,0.0,6.30264146712,0.000880863066815,7.23651187737,0.0,0.0,0.0,0.0,0.0,0.0,0.0,0.0,0.0
22628000000,188,22628000000,imu_link,0.000908901387747,-0.370975457666,0.000169970329479,0.928642210336,0.0,0.0,0.0,0.0,0.0,0.0,0.0,0.0,0.0,0.00204934655869,-0.0102176339779,0.00017625085548,0.0,0.0,0.0,0.0,0.0,0.0,0.0,0.0,0.0,6.30535971337,0.00077912064345,7.24282061698,0.0,0.0,0.0,0.0,0.0,0.0,0.0,0.0,0.0
22632000000,189,22632000000,imu_link,0.000911619573986,-0.370995291056,0.000171709273978,0.928634284032,0.0,0.0,0.0,0.0,0.0,0.0,0.0,0.0,0.0,0.00158658067516,-0.0106787346748,0.000312925355949,0.0,0.0,0.0,0.0,0.0,0.0,0.0,0.0,0.0,6.30797188352,0.000620853701475,7.24987688603,0.0,0.0,0.0,0.0,0.0,0.0,0.0,0.0,0.0
22636000000,190,22636000000,imu_link,0.000913770080535,-0.371016679223,0.000173409024317,0.928625736609,0.0,0.0,0.0,0.0,0.0,0.0,0.0,0.0,0.0,0.00131587646682,-0.0115158293376,0.000400792089848,0.0,0.0,0.0,0.0,0.0,0.0,0.0,0.0,0.0,6.31082689607,0.000459352293123,7.25695496447,0.0,0.0,0.0,0.0,0.0,0.0,0.0,0.0,0.0
22640000000,191,22640000000,imu_link,0.000915588336814,-0.37104002076,0.000175078446071,0.928616408449,0.0,0.0,0.0,0.0,0.0,0.0,0.0,0.0,0.0,0.00115616952648,-0.0125676224199,0.000449305492675,0.0,0.0,0.0,0.0,0.0,0.0,0.0,0.0,0.0,6.31243074896,0.000386543655495,7.2586481249,0.0,0.0,0.0,0.0,0.0,0.0,0.0,0.0,0.0
22644000000,192,22644000000,imu_link,0.000917020396804,-0.371065198902,0.000176697396528,0.928606346099,0.0,0.0,0.0,0.0,0.0,0.0,0.0,0.0,0.0,0.000967667318503,-0.0135565694792,0.00049842345247,0.0,0.0,0.0,0.0,0.0,0.0,0.0,0.0,0.0,6.3137078388,0.000405781450987,7.25491483491,0.0,0.0,0.0,0.0,0.0,0.0,0.0,0.0,0.0
22648000000,193,22648000000,imu_link,0.000917795494408,-0.37109162551,0.000178201737105,0.928595784705,0.0,0.0,0.0,0.0,0.0,0.0,0.0,0.0,0.0,0.000641492245097,-0.0142288193766,0.000567714184815,0.0,0.0,0.0,0.0,0.0,0.0,0.0,0.0,0.0,6.31595846415,0.000463086560693,7.24925950718,0.0,0.0,0.0,0.0,0.0,0.0,0.0,0.0,0.0
22652000000,194,22652000000,imu_link,0.000917692181304,-0.371118561321,0.000179537556057,0.928585019829,0.0,0.0,0.0,0.0,0.0,0.0,0.0,0.0,0.0,0.000202427530441,-0.0145029958634,0.000652707180859,0.0,0.0,0.0,0.0,0.0,0.0,0.0,0.0,0.0,6.31864761485,0.00048308502298,7.24352674849,0.0,0.0,0.0,0.0,0.0,0.0,0.0,0.0,0.0
22656000000,195,22656000000,imu_link,0.000916807355031,-0.371145575005,0.000180705949723,0.928574223724,0.0,0.0,0.0,0.0,0.0,0.0,0.0,0.0,0.0,-0.000191483158292,-0.014544952965,0.000720028431032,0.0,0.0,0.0,0.0,0.0,0.0,0.0,0.0,0.0,6.31892532704,0.000423309025166,7.23580340286,0.0,0.0,0.0,0.0,0.0,0.0,0.0,0.0,0.0
22660000000,196,22660000000,imu_link,0.000915461744722,-0.371172435582,0.000181728885692,0.928563488389,0.0,0.0,0.0,0.0,0.0,0.0,0.0,0.0,0.0,-0.000432426261078,-0.0144626150434,0.000737927599568,0.0,0.0,0.0,0.0,0.0,0.0,0.0,0.0,0.0,6.31957907754,0.000340169702646,7.2305242825,0.0,0.0,0.0,0.0,0.0,0.0,0.0,0.0,0.0
22664000000,197,22664000000,imu_link,0.000914167417524,-0.371198772603,0.000182649720955,0.928552961416,0.0,0.0,0.0,0.0,0.0,0.0,0.0,0.0,0.0,-0.000427612733916,-0.0141809199983,0.000680748086692,0.0,0.0,0.0,0.0,0.0,0.0,0.0,0.0,0.0,6.32114293508,0.000252547007692,7.22626704032,0.0,0.0,0.0,0.0,0.0,0.0,0.0,0.0,0.0
22668000000,198,22668000000,imu_link,0.000913520824603,-0.371224110945,0.000183530010033,0.92854283221,0.0,0.0,0.0,0.0,0.0,0.0,0.0,0.0,0.0,-0.000134500898634,-0.0136435096287,0.000541211556593,0.0,0.0,0.0,0.0,0.0,0.0,0.0,0.0,0.0,6.32364853108,0.000212970852398,7.22362513532,0.0,0.0,0.0,0.0,0.0,0.0,0.0,0.0,0.0
22672000000,199,22672000000,imu_link,0.00091382434857,-0.371248173312,0.000184402897574,0.928533211433,0.0,0.0,0.0,0.0,0.0,0.0,0.0,0.0,0.0,0.000305122260044,-0.0129568303654,0.000360792614496,0.0,0.0,0.0,0.0,0.0,0.0,0.0,0.0,0.0,6.32501560738,0.000323930662345,7.22016489792,0.0,0.0,0.0,0.0,0.0,0.0,0.0,0.0,0.0
22676000000,200,22676000000,imu_link,0.000915065462217,-0.371271031088,0.000185245903773,0.92852407067,0.0,0.0,0.0,0.0,0.0,0.0,0.0,0.0,0.0,0.000734758881643,-0.0123085772403,0.000172285827654,0.0,0.0,0.0,0.0,0.0,0.0,0.0,0.0,0.0,6.32467933036,0.00053867279724,7.21625456223,0.0,0.0,0.0,0.0,0.0,0.0,0.0,0.0,0.0
22680000000,201,22680000000,imu_link,0.000916769144591,-0.371292880039,0.000185952646656,0.928515332231,0.0,0.0,0.0,0.0,0.0,0.0,0.0,0.0,0.0,0.000924126034022,-0.0117656374195,2.26559234944e-05,0.0,0.0,0.0,0.0,0.0,0.0,0.0,0.0,0.0,6.32632048268,0.000835329413343,7.21765536384,0.0,0.0,0.0,0.0,0.0,0.0,0.0,0.0,0.0
22684000000,202,22684000000,imu_link,0.000918364596197,-0.371313880257,0.000186436981973,0.928506932756,0.0,0.0,0.0,0.0,0.0,0.0,0.0,0.0,0.0,0.000832513433284,-0.0113087712086,-6.09263986791e-05,0.0,0.0,0.0,0.0,0.0,0.0,0.0,0.0,0.0,6.32759967531,0.00106957408809,7.21814447232,0.0,0.0,0.0,0.0,0.0,0.0,0.0,0.0,0.0
22688000000,203,22688000000,imu_link,0.000919575445692,-0.371334331458,0.000186686243691,0.928498752724,0.0,0.0,0.0,0.0,0.0,0.0,0.0,0.0,0.0,0.00061026793892,-0.011013219082,-9.89286358959e-05,0.0,0.0,0.0,0.0,0.0,0.0,0.0,0.0,0.0,6.32956755695,0.00116606234959,7.2203977841,0.0,0.0,0.0,0.0,0.0,0.0,0.0,0.0,0.0
22692000000,204,22692000000,imu_link,0.000920590365403,-0.37135477271,0.000186757033967,0.928490576377,0.0,0.0,0.0,0.0,0.0,0.0,0.0,0.0,0.0,0.000486170606506,-0.0110079798994,-0.00014541108224,0.0,0.0,0.0,0.0,0.0,0.0,0.0,0.0,0.0,6.33112610028,0.0011511604662,7.22364713706,0.0,0.0,0.0,0.0,0.0,0.0,0.0,0.0,0.0
22696000000,205,22696000000,imu_link,0.000921795751175,-0.371375750003,0.000186726582365,0.928482184932,0.0,0.0,0.0,0.0,0.0,0.0,0.0,0.0,0.0,0.000555844204533,-0.0112968376141,-0.00022751056512,0.0,0.0,0.0,0.0,0.0,0.0,0.0,0.0,0.0,6.33303210833,0.00114173041034,7.22756784627,0.0,0.0,0.0,0.0,0.0,0.0,0.0,0.0,0.0
22700000000,206,22700000000,imu_link,0.000923340602502,-0.371397528005,0.000186620386476,0.928473472323,0.0,0.0,0.0,0.0,0.0,0.0,0.0,0.0,0.0,0.000699446536322,-0.0117282623359,-0.000325309783165,0.0,0.0,0.0,0.0,0.0,0.0,0.0,0.0,0.0,6.33470075514,0.00123027436033,7.22874087519,0.0,0.0,0.0,0.0,0.0,0.0,0.0,0.0,0.0
22704000000,207,22704000000,imu_link,0.000925054533177,-0.37142001807,0.000186427969456,0.928464474116,0.0,0.0,0.0,0.0,0.0,0.0,0.0,0.0,0.0,0.000761993632697,-0.0121119190243,-0.000396379237748,0.0,0.0,0.0,0.0,0.0,0.0,0.0,0.0,0.0,6.33505009211,0.00139660045568,7.22404166624,0.0,0.0,0.0,0.0,0.0,0.0,0.0,0.0,0.0
22708000000,208,22708000000,imu_link,0.000926550395534,-0.371442788803,0.000186117816404,0.92845536323,0.0,0.0,0.0,0.0,0.0,0.0,0.0,0.0,0.0,0.000638920484618,-0.0122631739852,-0.000410398310275,0.0,0.0,0.0,0.0,0.0,0.0,0.0,0.0,0.0,6.33695317275,0.00157055731734,7.21942690532,0.0,0.0,0.0,0.0,0.0,0.0,0.0,0.0,0.0
22712000000,209,22712000000,imu_link,0.000927595382049,-0.37146527985,0.000185676760159,0.928446364071,0.0,0.0,0.0,0.0,0.0,0.0,0.0,0.0,0.0,0.000405274181435,-0.0121126046486,-0.000387569874816,0.0,0.0,0.0,0.0,0.0,0.0,0.0,0.0,0.0,6.33947613218,0.00166382645984,7.2156526416,0.0,0.0,0.0,0.0,0.0,0.0,0.0,0.0,0.0
22716000000,210,22716000000,imu_link,0.000928146894618,-0.37148716095,0.000185101880542,0.928437608852,0.0,0.0,0.0,0.0,0.0,0.0,0.0,0.0,0.0,0.000151280255418,-0.0117841617107,-0.000358345106348,0.0,0.0,0.0,0.0,0.0,0.0,0.0,0.0,0.0,6.3397264766,0.00167849857525,7.20930810611,0.0,0.0,0.0,0.0,0.0,0.0,0.0,0.0,0.0
22720000000,211,22720000000,imu_link,0.000928429618289,-0.371508357448,0.000184433589275,0.928429127262,0.0,0.0,0.0,0.0,0.0,0.0,0.0,0.0,0.0,9.08915619853e-06,-0.0114155502398,-0.000352125768945,0.0,0.0,0.0,0.0,0.0,0.0,0.0,0.0,0.0,6.3400477702,0.00165574235853,7.20547235361,0.0,0.0,0.0,0.0,0.0,0.0,0.0,0.0,0.0
22724000000,212,22724000000,imu_link,0.000928901574199,-0.371528934686,0.000183741600133,0.928420892738,0.0,0.0,0.0,0.0,0.0,0.0,0.0,0.0,0.0,9.24739536612e-05,-0.0110822154977,-0.000398587600254,0.0,0.0,0.0,0.0,0.0,0.0,0.0,0.0,0.0,6.34126667498,0.00163209205471,7.20480498283,0.0,0.0,0.0,0.0,0.0,0.0,0.0,0.0,0.0
22728000000,213,22728000000,imu_link,0.000930100079782,-0.371548918944,0.00018308260776,0.928412894259,0.0,0.0,0.0,0.0,0.0,0.0,0.0,0.0,0.0,0.000435820374654,-0.0107631506348,-0.000518534363703,0.0,0.0,0.0,0.0,0.0,0.0,0.0,0.0,0.0,6.34271435065,0.0016644102224,7.20444085435,0.0,0.0,0.0,0.0,0.0,0.0,0.0,0.0,0.0
22732000000,214,22732000000,imu_link,0.000932403589523,-0.37156835879,0.000182485997497,0.928405112044,0.0,0.0,0.0,0.0,0.0,0.0,0.0,0.0,0.0,0.000960308694564,-0.0104703267449,-0.000695130713017,0.0,0.0,0.0,0.0,0.0,0.0,0.0,0.0,0.0,6.34467347356,0.00180353107987,7.20470554947,0.0,0.0,0.0,0.0,0.0,0.0,0.0,0.0,0.0
22736000000,215,22736000000,imu_link,0.000935821642019,-0.371587485781,0.000181937086595,0.928397453437,0.0,0.0,0.0,0.0,0.0,0.0,0.0,0.0,0.0,0.00148651499648,-0.0103022141808,-0.000880210089628,0.0,0.0,0.0,0.0,0.0,0.0,0.0,0.0,0.0,6.34592766763,0.00204351395448,7.2048255609,0.0,0.0,0.0,0.0,0.0,0.0,0.0,0.0,0.0
22740000000,216,22740000000,imu_link,0.000940115831099,-0.371606649567,0.000181385944927,0.928389778745,0.0,0.0,0.0,0.0,0.0,0.0,0.0,0.0,0.0,0.00189280619946,-0.0103223632624,-0.00104400762445,0.0,0.0,0.0,0.0,0.0,0.0,0.0,0.0,0.0,6.34711191453,0.00232331391134,7.2058929054,0.0,0.0,0.0,0.0,0.0,0.0,0.0,0.0,0.0
22744000000,217,22744000000,imu_link,0.000944726035631,-0.371626112055,0.000180744312005,0.928381983702,0.0,0.0,0.0,0.0,0.0,0.0,0.0,0.0,0.0,0.00202271486394,-0.0104834520147,-0.00114457860153,0.0,0.0,0.0,0.0,0.0,0.0,0.0,0.0,0.0,6.34895234484,0.00262140976211,7.20747041231,0.0,0.0,0.0,0.0,0.0,0.0,0.0,0.0,0.0
22748000000,218,22748000000,imu_link,0.000949185965982,-0.371645901476,0.000179977368128,0.928374057463,0.0,0.0,0.0,0.0,0.0,0.0,0.0,0.0,0.0,0.00192970695777,-0.0106596351262,-0.00117465762526,0.0,0.0,0.0,0.0,0.0,0.0,0.0,0.0,0.0,6.35099092205,0.00281910882684,7.20770509228,0.0,0.0,0.0,0.0,0.0,0.0,0.0,0.0,0.0
22752000000,219,22752000000,imu_link,0.000953389334079,-0.371666087646,0.000179107453107,0.928365972159,0.0,0.0,0.0,0.0,0.0,0.0,0.0,0.0,0.0,0.00179151947317,-0.0108733842136,-0.00117457773159,0.0,0.0,0.0,0.0,0.0,0.0,0.0,0.0,0.0,6.35186426726,0.0028886088502,7.20543723722,0.0,0.0,0.0,0.0,0.0,0.0,0.0,0.0,0.0
22756000000,220,22756000000,imu_link,0.000957402280001,-0.371686712839,0.000178154840155,0.928357710767,0.0,0.0,0.0,0.0,0.0,0.0,0.0,0.0,0.0,0.00168780535587,-0.0111099169743,-0.00117735292227,0.0,0.0,0.0,0.0,0.0,0.0,0.0,0.0,0.0,6.35235369974,0.00290064922568,7.20247813482,0.0,0.0,0.0,0.0,0.0,0.0,0.0,0.0,0.0
22760000000,221,22760000000,imu_link,0.000961428134473,-0.371707798759,0.000177139375437,0.92834926435,0.0,0.0,0.0,0.0,0.0,0.0,0.0,0.0,0.0,0.0016821641797,-0.011358193485,-0.00120868931915,0.0,0.0,0.0,0.0,0.0,0.0,0.0,0.0,0.0,6.35311461216,0.00288807953846,7.20013175561,0.0,0.0,0.0,0.0,0.0,0.0,0.0,0.0,0.0
22764000000,222,22764000000,imu_link,0.000965610100031,-0.371729295003,0.000176095010879,0.928340652898,0.0,0.0,0.0,0.0,0.0,0.0,0.0,0.0,0.0,0.00174929883015,-0.0115793554803,-0.00125090588049,0.0,0.0,0.0,0.0,0.0,0.0,0.0,0.0,0.0,6.35393765175,0.00292149869791,7.19759848709,0.0,0.0,0.0,0.0,0.0,0.0,0.0,0.0,0.0
22768000000,223,22768000000,imu_link,0.000969701261936,-0.371751126694,0.000175040203182,0.928331906616,0.0,0.0,0.0,0.0,0.0,0.0,0.0,0.0,0.0,0.00170524502013,-0.0117601172708,-0.00123870225966,0.0,0.0,0.0,0.0,0.0,0.0,0.0,0.0,0.0,6.35555758306,0.00305252329365,7.19647805667,0.0,0.0,0.0,0.0,0.0,0.0,0.0,0.0,0.0
22772000000,224,22772000000,imu_link,0.000973488449081,-0.371773398497,0.000174005395359,0.928322983779,0.0,0.0,0.0,0.0,0.0,0.0,0.0,0.0,0.0,0.00156791485741,-0.0119971829832,-0.00117268867925,0.0,0.0,0.0,0.0,0.0,0.0,0.0,0.0,0.0,6.35786750553,0.00314246388858,7.19799680646,0.0,0.0,0.0,0.0,0.0,0.0,0.0,0.0,0.0
22776000000,225,22776000000,imu_link,0.000976833991808,-0.371796007896,0.000173000723811,0.928313925555,0.0,0.0,0.0,0.0,0.0,0.0,0.0,0.0,0.0,0.00136855898564,-0.0121789958072,-0.00107642865496,0.0,0.0,0.0,0.0,0.0,0.0,0.0,0.0,0.0,6.35920427737,0.0032005244927,7.19595327121,0.0,0.0,0.0,0.0,0.0,0.0,0.0,0.0,0.0
22780000000,226,22780000000,imu_link,0.000979836681291,-0.371818784508,0.000172043559616,0.928304800057,0.0,0.0,0.0,0.0,0.0,0.0,0.0,0.0,0.0,0.00121827118076,-0.0122690621427,-0.000990554564202,0.0,0.0,0.0,0.0,0.0,0.0,0.0,0.0,0.0,6.36135578493,0.00319519322674,7.19441767056,0.0,0.0,0.0,0.0,0.0,0.0,0.0,0.0,0.0
22784000000,227,22784000000,imu_link,0.000982725198601,-0.371841645433,0.000171144599878,0.928295640237,0.0,0.0,0.0,0.0,0.0,0.0,0.0,0.0,0.0,0.00117610821045,-0.0123145389298,-0.000942268887287,0.0,0.0,0.0,0.0,0.0,0.0,0.0,0.0,0.0,6.36295643161,0.00318492199206,7.1929148925,0.0,0.0,0.0,0.0,0.0,0.0,0.0,0.0,0.0
22788000000,228,22788000000,imu_link,0.0009856257985,-0.37186458998,0.000170291418044,0.928286446234,0.0,0.0,0.0,0.0,0.0,0.0,0.0,0.0,0.0,0.00119023702343,-0.0123596855659,-0.000923223563743,0.0,0.0,0.0,0.0,0.0,0.0,0.0,0.0,0.0,6.36511253352,0.00322950524134,7.19319380199,0.0,0.0,0.0,0.0,0.0,0.0,0.0,0.0,0.0
22792000000,229,22792000000,imu_link,0.000988593695527,-0.371887761224,0.00016949928745,0.928277160661,0.0,0.0,0.0,0.0,0.0,0.0,0.0,0.0,0.0,0.00123284975139,-0.0124819068005,-0.000907280238434,0.0,0.0,0.0,0.0,0.0,0.0,0.0,0.0,0.0,6.36674255164,0.00330348479896,7.1934908913,0.0,0.0,0.0,0.0,0.0,0.0,0.0,0.0,0.0
22796000000,230,22796000000,imu_link,0.000991687212161,-0.371911332247,0.000168781339075,0.928267714087,0.0,0.0,0.0,0.0,0.0,0.0,0.0,0.0,0.0,0.00130499408826,-0.0126973707986,-0.000895996351211,0.0,0.0,0.0,0.0,0.0,0.0,0.0,0.0,0.0,6.36780787509,0.00338257169946,7.19275456565,0.0,0.0,0.0,0.0,0.0,0.0,0.0,0.0,0.0
22800000000,231,22800000000,imu_link,0.00099536120426,-0.371935321497,0.000168173872407,0.928258098589,0.0,0.0,0.0,0.0,0.0,0.0,0.0,0.0,0.0,0.00159500556896,-0.0129228904274,-0.000952439122019,0.0,0.0,0.0,0.0,0.0,0.0,0.0,0.0,0.0,6.36964655334,0.00341956436325,7.19228170067,0.0,0.0,0.0,0.0,0.0,0.0,0.0,0.0,0.0
22804000000,232,22804000000,imu_link,0.000999974580504,-0.371959442137,0.000167702942229,0.928248428672,0.0,0.0,0.0,0.0,0.0,0.0,0.0,0.0,0.0,0.00205640844704,-0.012994003806,-0.00106369367589,0.0,0.0,0.0,0.0,0.0,0.0,0.0,0.0,0.0,6.37162222623,0.00351333617287,7.18989359116,0.0,0.0,0.0,0.0,0.0,0.0,0.0,0.0,0.0
22808000000,233,22808000000,imu_link,0.00100548841587,-0.37198322286,0.000167346126401,0.928238893227,0.0,0.0,0.0,0.0,0.0,0.0,0.0,0.0,0.0,0.00249551755105,-0.0128112499646,-0.00117837880822,0.0,0.0,0.0,0.0,0.0,0.0,0.0,0.0,0.0,6.37367390337,0.00369374207341,7.18624622795,0.0,0.0,0.0,0.0,0.0,0.0,0.0,0.0,0.0
22812000000,234,22812000000,imu_link,0.00101148854755,-0.372006386709,0.000167061437583,0.928229603724,0.0,0.0,0.0,0.0,0.0,0.0,0.0,0.0,0.0,0.00273456011978,-0.0124792074248,-0.00123568100639,0.0,0.0,0.0,0.0,0.0,0.0,0.0,0.0,0.0,6.37548047253,0.00393510424255,7.18424394988,0.0,0.0,0.0,0.0,0.0,0.0,0.0,0.0,0.0
22816000000,235,22816000000,imu_link,0.00101728001687,-0.372029251512,0.000166739376296,0.928220433603,0.0,0.0,0.0,0.0,0.0,0.0,0.0,0.0,0.0,0.00263073003238,-0.0123182119485,-0.00121437546853,0.0,0.0,0.0,0.0,0.0,0.0,0.0,0.0,0.0,6.37789528003,0.00416944227472,7.18867730962,0.0,0.0,0.0,0.0,0.0,0.0,0.0,0.0,0.0
22820000000,236,22820000000,imu_link,0.00102230267959,-0.372052381077,0.000166286881581,0.928211157539,0.0,0.0,0.0,0.0,0.0,0.0,0.0,0.0,0.0,0.00224968832097,-0.0124607999203,-0.00113175818174,0.0,0.0,0.0,0.0,0.0,0.0,0.0,0.0,0.0,6.37918359102,0.00428565589323,7.19292536284,0.0,0.0,0.0,0.0,0.0,0.0,0.0,0.0,0.0
22824000000,237,22824000000,imu_link,0.00102630019895,-0.372076426442,0.000165702132814,0.928201514832,0.0,0.0,0.0,0.0,0.0,0.0,0.0,0.0,0.0,0.00174942211938,-0.0129540154811,-0.00100193591483,0.0,0.0,0.0,0.0,0.0,0.0,0.0,0.0,0.0,6.38164949993,0.00427508147253,7.19946529712,0.0,0.0,0.0,0.0,0.0,0.0,0.0,0.0,0.0
22828000000,238,22828000000,imu_link,0.00102935847614,-0.372101748501,0.000165020193691,0.928191360632,0.0,0.0,0.0,0.0,0.0,0.0,0.0,0.0,0.0,0.00129559469446,-0.0136416593836,-0.000871609584717,0.0,0.0,0.0,0.0,0.0,0.0,0.0,0.0,0.0,6.38281876441,0.00416097887452,7.2008508598,0.0,0.0,0.0,0.0,0.0,0.0,0.0,0.0,0.0
22832000000,239,22832000000,imu_link,0.00103188624762,-0.372128468401,0.000164337577459,0.928180645785,0.0,0.0,0.0,0.0,0.0,0.0,0.0,0.0,0.0,0.00104943652356,-0.0143946564121,-0.000772457076977,0.0,0.0,0.0,0.0,0.0,0.0,0.0,0.0,0.0,6.38523734517,0.00403021636134,7.20231805052,0.0,0.0,0.0,0.0,0.0,0.0,0.0,0.0,0.0
22836000000,240,22836000000,imu_link,0.00103442508808,-0.372156366481,0.000163738404321,0.928169457611,0.0,0.0,0.0,0.0,0.0,0.0,0.0,0.0,0.0,0.00107024670996,-0.0150294656056,-0.000735144720789,0.0,0.0,0.0,0.0,0.0,0.0,0.0,0.0,0.0,6.38678373147,0.00394077311671,7.19934667164,0.0,0.0,0.0,0.0,0.0,0.0,0.0,0.0,0.0
22840000000,241,22840000000,imu_link,0.0010373851337,-0.372185225882,0.000163288712303,0.928157882477,0.0,0.0,0.0,0.0,0.0,0.0,0.0,0.0,0.0,0.00129365820252,-0.0155475620786,-0.000743621018474,0.0,0.0,0.0,0.0,0.0,0.0,0.0,0.0,0.0,6.3884797242,0.00395129190651,7.19670938365,0.0,0.0,0.0,0.0,0.0,0.0,0.0,0.0,0.0
22844000000,242,22844000000,imu_link,0.00104090053863,-0.372214904769,0.00016300421297,0.928145977001,0.0,0.0,0.0,0.0,0.0,0.0,0.0,0.0,0.0,0.00158223434518,-0.0159893022061,-0.000769854806477,0.0,0.0,0.0,0.0,0.0,0.0,0.0,0.0,0.0,6.38903802232,0.0040630479406,7.19207883173,0.0,0.0,0.0,0.0,0.0,0.0,0.0,0.0,0.0
22848000000,243,22848000000,imu_link,0.00104493169512,-0.372245292534,0.00016289457131,0.928133785491,0.0,0.0,0.0,0.0,0.0,0.0,0.0,0.0,0.0,0.00185421411945,-0.0163714575805,-0.000784301043621,0.0,0.0,0.0,0.0,0.0,0.0,0.0,0.0,0.0,6.38904263244,0.0042217009457,7.18711155013,0.0,0.0,0.0,0.0,0.0,0.0,0.0,0.0,0.0
22852000000,244,22852000000,imu_link,0.0010493886522,-0.372276181878,0.000162950592363,0.92812139111,0.0,0.0,0.0,0.0,0.0,0.0,0.0,0.0,0.0,0.00208271279617,-0.0166419306046,-0.000786395013789,0.0,0.0,0.0,0.0,0.0,0.0,0.0,0.0,0.0,6.38939471833,0.00435965129729,7.18230109241,0.0,0.0,0.0,0.0,0.0,0.0,0.0,0.0,0.0
22856000000,245,22856000000,imu_link,0.00105422203738,-0.37230722284,0.00016315939364,0.92810893424,0.0,0.0,0.0,0.0,0.0,0.0,0.0,0.0,0.0,0.00228585694012,-0.0167238728683,-0.000785478681314,0.0,0.0,0.0,0.0,0.0,0.0,0.0,0.0,0.0,6.38928340712,0.00447847420307,7.17559594292,0.0,0.0,0.0,0.0,0.0,0.0,0.0,0.0,0.0
22860000000,246,22860000000,imu_link,0.00105926027992,-0.372338003354,0.000163490224532,0.928096580371,0.0,0.0,0.0,0.0,0.0,0.0,0.0,0.0,0.0,0.00240360511771,-0.0165837886266,-0.000767130917855,0.0,0.0,0.0,0.0,0.0,0.0,0.0,0.0,0.0,6.39008005494,0.0046077546822,7.17045237173,0.0,0.0,0.0,0.0,0.0,0.0,0.0,0.0,0.0
22864000000,247,22864000000,imu_link,0.00106423504399,-0.372368076408,0.000163898599399,0.928084509198,0.0,0.0,0.0,0.0,0.0,0.0,0.0,0.0,0.0,0.00238849243623,-0.0162028181901,-0.000719726847148,0.0,0.0,0.0,0.0,0.0,0.0,0.0,0.0,0.0,6.39061830488,0.00472845958564,7.16461661633,0.0,0.0,0.0,0.0,0.0,0.0,0.0,0.0,0.0
22868000000,248,22868000000,imu_link,0.00106897358159,-0.372397053924,0.000164351467927,0.928072876725,0.0,0.0,0.0,0.0,0.0,0.0,0.0,0.0,0.0,0.00228701371822,-0.015612720073,-0.000655717215291,0.0,0.0,0.0,0.0,0.0,0.0,0.0,0.0,0.0,6.39110068415,0.00480674447623,7.15915560943,0.0,0.0,0.0,0.0,0.0,0.0,0.0,0.0,0.0
22872000000,249,22872000000,imu_link,0.00107348763927,-0.37242459306,0.000164857173643,0.92806182064,0.0,0.0,0.0,0.0,0.0,0.0,0.0,0.0,0.0,0.00219249519213,-0.0148378898786,-0.000590217165782,0.0,0.0,0.0,0.0,0.0,0.0,0.0,0.0,0.0,6.39224575802,0.00480957788282,7.15518757953,0.0,0.0,0.0,0.0,0.0,0.0,0.0,0.0,0.0
22876000000,250,22876000000,imu_link,0.00107787053425,-0.372450488124,0.000165425555362,0.928051423535,0.0,0.0,0.0,0.0,0.0,0.0,0.0,0.0,0.0,0.00214308450027,-0.0139522350953,-0.000537646218776,0.0,0.0,0.0,0.0,0.0,0.0,0.0,0.0,0.0,6.3920774509,0.00480550906921,7.14993443165,0.0,0.0,0.0,0.0,0.0,0.0,0.0,0.0,0.0
22880000000,251,22880000000,imu_link,0.00108213659063,-0.37247467558,0.000166045103192,0.928041711057,0.0,0.0,0.0,0.0,0.0,0.0,0.0,0.0,0.0,0.00209816908154,-0.0130323292191,-0.00049312244923,0.0,0.0,0.0,0.0,0.0,0.0,0.0,0.0,0.0,6.39192779816,0.00483394307401,7.14603824361,0.0,0.0,0.0,0.0,0.0,0.0,0.0,0.0,0.0
22884000000,252,22884000000,imu_link,0.00108583140312,-0.372497101163,0.000166655428096,0.928032705685,0.0,0.0,0.0,0.0,0.0,0.0,0.0,0.0,0.0,0.00183114603264,-0.0120830511614,-0.000392027137559,0.0,0.0,0.0,0.0,0.0,0.0,0.0,0.0,0.0,6.39299224362,0.00494493490772,7.14479665925,0.0,0.0,0.0,0.0,0.0,0.0,0.0,0.0,0.0
22888000000,253,22888000000,imu_link,0.001088707778,-0.37251807536,0.000167200892095,0.928024283243,0.0,0.0,0.0,0.0,0.0,0.0,0.0,0.0,0.0,0.00143910180418,-0.0113009814069,-0.000270527393276,0.0,0.0,0.0,0.0,0.0,0.0,0.0,0.0,0.0,6.39269057944,0.00495728779571,7.14333699024,0.0,0.0,0.0,0.0,0.0,0.0,0.0,0.0,0.0
22892000000,254,22892000000,imu_link,0.00109074329477,-0.372538150802,0.000167660781778,0.928016222038,0.0,0.0,0.0,0.0,0.0,0.0,0.0,0.0,0.0,0.0010328729362,-0.010816641026,-0.000154136931653,0.0,0.0,0.0,0.0,0.0,0.0,0.0,0.0,0.0,6.39409798051,0.00492818927921,7.1472295985,0.0,0.0,0.0,0.0,0.0,0.0,0.0,0.0,0.0
22896000000,255,22896000000,imu_link,0.0010921492284,-0.372557582617,0.000168047620403,0.928008419468,0.0,0.0,0.0,0.0,0.0,0.0,0.0,0.0,0.0,0.000727047004884,-0.0104698042236,-7.11340442378e-05,0.0,0.0,0.0,0.0,0.0,0.0,0.0,0.0,0.0,6.39476901841,0.00484219613493,7.14728963525,0.0,0.0,0.0,0.0,0.0,0.0,0.0,0.0,0.0
22900000000,256,22900000000,imu_link,0.00109328458188,-0.372576386988,0.000168370496775,0.928000868663,0.0,0.0,0.0,0.0,0.0,0.0,0.0,0.0,0.0,0.000589497104171,-0.0101317809256,-5.07732424274e-05,0.0,0.0,0.0,0.0,0.0,0.0,0.0,0.0,0.0,6.39482806857,0.00471327729915,7.14419555965,0.0,0.0,0.0,0.0,0.0,0.0,0.0,0.0,0.0
22904000000,257,22904000000,imu_link,0.00109433428374,-0.372594433409,0.000168622926816,0.927993621848,0.0,0.0,0.0,0.0,0.0,0.0,0.0,0.0,0.0,0.00053652902545,-0.00972349370958,-6.79444011629e-05,0.0,0.0,0.0,0.0,0.0,0.0,0.0,0.0,0.0,6.39593281439,0.00469777041714,7.14205472507,0.0,0.0,0.0,0.0,0.0,0.0,0.0,0.0,0.0
22908000000,258,22908000000,imu_link,0.00109523782235,-0.372611687697,0.000168770499654,0.92798669288,0.0,0.0,0.0,0.0,0.0,0.0,0.0,0.0,0.0,0.000449068014812,-0.00929677755552,-8.9828232451e-05,0.0,0.0,0.0,0.0,0.0,0.0,0.0,0.0,0.0,6.39711884438,0.00476082924229,7.1407323046,0.0,0.0,0.0,0.0,0.0,0.0,0.0,0.0,0.0
22912000000,259,22912000000,imu_link,0.00109591516821,-0.372628443764,0.000168770415039,0.927979963892,0.0,0.0,0.0,0.0,0.0,0.0,0.0,0.0,0.0,0.000316539165207,-0.00902841048718,-0.000116488986567,0.0,0.0,0.0,0.0,0.0,0.0,0.0,0.0,0.0,6.39755571536,0.00483479667141,7.14076544514,0.0,0.0,0.0,0.0,0.0,0.0,0.0,0.0,0.0
22916000000,260,22916000000,imu_link,0.00109619077094,-0.372645387459,0.000168565567413,0.927973159718,0.0,0.0,0.0,0.0,0.0,0.0,0.0,0.0,0.0,9.200947844e-05,-0.0091295545548,-0.000136537355644,0.0,0.0,0.0,0.0,0.0,0.0,0.0,0.0,0.0,6.39851735455,0.00490864492985,7.14442414338,0.0,0.0,0.0,0.0,0.0,0.0,0.0,0.0,0.0
22920000000,261,22920000000,imu_link,0.00109582440445,-0.372663270876,0.000168106763648,0.927965978606,0.0,0.0,0.0,0.0,0.0,0.0,0.0,0.0,0.0,-0.000253046016647,-0.00963589038584,-0.000134209336138,0.0,0.0,0.0,0.0,0.0,0.0,0.0,0.0,0.0,6.40106585734,0.00497217163348,7.15191423428,0.0,0.0,0.0,0.0,0.0,0.0,0.0,0.0,0.0
22924000000,262,22924000000,imu_link,0.00109465368639,-0.372682538202,0.000167389699009,0.92795824229,0.0,0.0,0.0,0.0,0.0,0.0,0.0,0.0,0.0,-0.000674185752428,-0.0103815263938,-0.000103356918483,0.0,0.0,0.0,0.0,0.0,0.0,0.0,0.0,0.0,6.40217758472,0.00499143546568,7.15369139903,0.0,0.0,0.0,0.0,0.0,0.0,0.0,0.0,0.0
22928000000,263,22928000000,imu_link,0.00109254625162,-0.372703058408,0.000166411747526,0.92795000345,0.0,0.0,0.0,0.0,0.0,0.0,0.0,0.0,0.0,-0.00115724655184,-0.011056541875,-4.91261914941e-05,0.0,0.0,0.0,0.0,0.0,0.0,0.0,0.0,0.0,6.40248854832,0.00498713996777,7.14901048515,0.0,0.0,0.0,0.0,0.0,0.0,0.0,0.0,0.0
22932000000,264,22932000000,imu_link,0.00108944454333,-0.372724278265,0.000165213863986,0.927941484258,0.0,0.0,0.0,0.0,0.0,0.0,0.0,0.0,0.0,-0.00165945435292,-0.0114334443019,3.45207514054e-05,0.0,0.0,0.0,0.0,0.0,0.0,0.0,0.0,0.0,6.40449833685,0.0049566120781,7.14425649461,0.0,0.0,0.0,0.0,0.0,0.0,0.0,0.0,0.0
22936000000,265,22936000000,imu_link,0.00108549499504,-0.372745657115,0.000163855362743,0.927932901644,0.0,0.0,0.0,0.0,0.0,0.0,0.0,0.0,0.0,-0.00208273894646,-0.0115190485772,0.000118095955325,0.0,0.0,0.0,0.0,0.0,0.0,0.0,0.0,0.0,6.40562698374,0.00490193196053,7.13770068854,0.0,0.0,0.0,0.0,0.0,0.0,0.0,0.0,0.0
22940000000,266,22940000000,imu_link,0.00108090943106,-0.372766740875,0.00016240012779,0.927924437742,0.0,0.0,0.0,0.0,0.0,0.0,0.0,0.0,0.0,-0.00239589768211,-0.0113600132121,0.000191580920028,0.0,0.0,0.0,0.0,0.0,0.0,0.0,0.0,0.0,6.40747140913,0.00485865422407,7.13407412627,0.0,0.0,0.0,0.0,0.0,0.0,0.0,0.0,0.0
22944000000,267,22944000000,imu_link,0.001075903532,-0.372787505841,0.000160905307321,0.927916101827,0.0,0.0,0.0,0.0,0.0,0.0,0.0,0.0,0.0,-0.00259833864738,-0.0111882368261,0.000251375518509,0.0,0.0,0.0,0.0,0.0,0.0,0.0,0.0,0.0,6.40754246475,0.00484583663896,7.1307935782,0.0,0.0,0.0,0.0,0.0,0.0,0.0,0.0,0.0
22948000000,268,22948000000,imu_link,0.00107055197507,-0.37280824509,0.000159406558181,0.927907776075,0.0,0.0,0.0,0.0,0.0,0.0,0.0,0.0,0.0,-0.0027594450744,-0.0111743854948,0.00031396659461,0.0,0.0,0.0,0.0,0.0,0.0,0.0,0.0,0.0,6.40865323374,0.00489353188532,7.13245062372,0.0,0.0,0.0,0.0,0.0,0.0,0.0,0.0,0.0
22952000000,269,22952000000,imu_link,0.00106476550753,-0.372829337776,0.000157900912721,0.927899308242,0.0,0.0,0.0,0.0,0.0,0.0,0.0,0.0,0.0,-0.00296246116131,-0.0113648174675,0.000392036661402,0.0,0.0,0.0,0.0,0.0,0.0,0.0,0.0,0.0,6.4095430741,0.00497798188746,7.13429211598,0.0,0.0,0.0,0.0,0.0,0.0,0.0,0.0,0.0
22956000000,270,22956000000,imu_link,0.00105853797211,-0.372850971156,0.000156358937119,0.927890623057,0.0,0.0,0.0,0.0,0.0,0.0,0.0,0.0,0.0,-0.00317379389917,-0.0116561739553,0.000457707843221,0.0,0.0,0.0,0.0,0.0,0.0,0.0,0.0,0.0,6.4096341249,0.00503182218604,7.13299744769,0.0,0.0,0.0,0.0,0.0,0.0,0.0,0.0,0.0
22960000000,271,22960000000,imu_link,0.00105209425408,-0.37287293797,0.000154776060336,0.927881803503,0.0,0.0,0.0,0.0,0.0,0.0,0.0,0.0,0.0,-0.0032816707822,-0.0118359244065,0.000479220863417,0.0,0.0,0.0,0.0,0.0,0.0,0.0,0.0,0.0,6.41041363656,0.00507277378301,7.12929286657,0.0,0.0,0.0,0.0,0.0,0.0,0.0,0.0,0.0
22964000000,272,22964000000,imu_link,0.00104588450833,-0.372894783464,0.000153192773846,0.92787303179,0.0,0.0,0.0,0.0,0.0,0.0,0.0,0.0,0.0,-0.00317321362803,-0.0117707377542,0.00043534229307,0.0,0.0,0.0,0.0,0.0,0.0,0.0,0.0,0.0,6.41295691209,0.00508452382143,7.12695258449,0.0,0.0,0.0,0.0,0.0,0.0,0.0,0.0,0.0
22968000000,273,22968000000,imu_link,0.00104034683731,-0.372916314202,0.000151650973683,0.927864385179,0.0,0.0,0.0,0.0,0.0,0.0,0.0,0.0,0.0,-0.00285371991823,-0.0116014153691,0.000329108553922,0.0,0.0,0.0,0.0,0.0,0.0,0.0,0.0,0.0,6.41494860234,0.00516185745758,7.12562929711,0.0,0.0,0.0,0.0,0.0,0.0,0.0,0.0,0.0
22972000000,274,22972000000,imu_link,0.0010358263499,-0.372937689937,0.00015019523676,0.927855799103,0.0,0.0,0.0,0.0,0.0,0.0,0.0,0.0,0.0,-0.0023657882401,-0.0115182501347,0.000179288663028,0.0,0.0,0.0,0.0,0.0,0.0,0.0,0.0,0.0,6.41604856245,0.00530347883028,7.12562563361,0.0,0.0,0.0,0.0,0.0,0.0,0.0,0.0,0.0
22976000000,275,22976000000,imu_link,0.00103233051929,-0.372959208937,0.000148828885821,0.927847153691,0.0,0.0,0.0,0.0,0.0,0.0,0.0,0.0,0.0,-0.00187373368649,-0.0115958094455,2.97693978135e-05,0.0,0.0,0.0,0.0,0.0,0.0,0.0,0.0,0.0,6.41648557711,0.0055351056349,7.12536191293,0.0,0.0,0.0,0.0,0.0,0.0,0.0,0.0,0.0
22980000000,276,22980000000,imu_link,0.00102981373177,-0.372980954976,0.000147534638276,0.927838415319,0.0,0.0,0.0,0.0,0.0,0.0,0.0,0.0,0.0,-0.00140605561447,-0.011718509387,-0.0001192275978,0.0,0.0,0.0,0.0,0.0,0.0,0.0,0.0,0.0,6.41729523941,0.00577791231377,7.12381275366,0.0,0.0,0.0,0.0,0.0,0.0,0.0,0.0,0.0
22984000000,277,22984000000,imu_link,0.00102820247792,-0.373002544259,0.000146299677497,0.927829738353,0.0,0.0,0.0,0.0,0.0,0.0,0.0,0.0,0.0,-0.000974924787332,-0.011634371606,-0.000260681980449,0.0,0.0,0.0,0.0,0.0,0.0,0.0,0.0,0.0,6.4184105192,0.00608242703587,7.11912238468,0.0,0.0,0.0,0.0,0.0,0.0,0.0,0.0,0.0
22988000000,278,22988000000,imu_link,0.0010273975631,-0.373023461399,0.000145096272053,0.927821330131,0.0,0.0,0.0,0.0,0.0,0.0,0.0,0.0,0.0,-0.000595056008371,-0.011272476143,-0.000396791453927,0.0,0.0,0.0,0.0,0.0,0.0,0.0,0.0,0.0,6.42057233065,0.00638983684292,7.11563199121,0.0,0.0,0.0,0.0,0.0,0.0,0.0,0.0,0.0
22992000000,279,22992000000,imu_link,0.00102738346747,-0.373043209432,0.000143901134141,0.927813390544,0.0,0.0,0.0,0.0,0.0,0.0,0.0,0.0,0.0,-0.000226800482035,-0.0106427620892,-0.000541087679694,0.0,0.0,0.0,0.0,0.0,0.0,0.0,0.0,0.0,6.42075208515,0.00660721243435,7.10865360589,0.0,0.0,0.0,0.0,0.0,0.0,0.0,0.0,0.0
22996000000,280,22996000000,imu_link,0.00102829456142,-0.373061544878,0.000142701112194,0.92780601743,0.0,0.0,0.0,0.0,0.0,0.0,0.0,0.0,0.0,0.000201300827106,-0.00988186307216,-0.000716687655439,0.0,0.0,0.0,0.0,0.0,0.0,0.0,0.0,0.0,6.42166039918,0.00679807982964,7.10574621721,0.0,0.0,0.0,0.0,0.0,0.0,0.0,0.0,0.0
23000000000,281,23000000000,imu_link,0.00103010822555,-0.373078549559,0.000141501825509,0.927799178009,0.0,0.0,0.0,0.0,0.0,0.0,0.0,0.0,0.0,0.000619963553423,-0.00916503115218,-0.000885425966332,0.0,0.0,0.0,0.0,0.0,0.0,0.0,0.0,0.0,6.42264812885,0.00702019634173,7.10574495872,0.0,0.0,0.0,0.0,0.0,0.0,0.0,0.0,0.0
23004000000,282,23004000000,imu_link,0.0010326649546,-0.373094437307,0.000140327059237,0.927792786543,0.0,0.0,0.0,0.0,0.0,0.0,0.0,0.0,0.0,0.000969093385663,-0.00856336539012,-0.00101326872163,0.0,0.0,0.0,0.0,0.0,0.0,0.0,0.0,0.0,6.42408097227,0.00726085604844,7.10768720957,0.0,0.0,0.0,0.0,0.0,0.0,0.0,0.0,0.0
23008000000,283,23008000000,imu_link,0.00103581702489,-0.373109227992,0.000139177639826,0.92778683527,0.0,0.0,0.0,0.0,0.0,0.0,0.0,0.0,0.0,0.00124984811247,-0.00797235357137,-0.00111316699084,0.0,0.0,0.0,0.0,0.0,0.0,0.0,0.0,0.0,6.42517192538,0.00746356228537,7.10687161925,0.0,0.0,0.0,0.0,0.0,0.0,0.0,0.0,0.0
23012000000,284,23012000000,imu_link,0.00103952852507,-0.37312289402,0.000138032184086,0.927781335383,0.0,0.0,0.0,0.0,0.0,0.0,0.0,0.0,0.0,0.00150994788317,-0.00736646123608,-0.00121630637803,0.0,0.0,0.0,0.0,0.0,0.0,0.0,0.0,0.0,6.42549583081,0.00761354683487,7.10428970008,0.0,0.0,0.0,0.0,0.0,0.0,0.0,0.0,0.0
23016000000,285,23016000000,imu_link,0.00104361356431,-0.373135565685,0.000136840635421,0.92777623475,0.0,0.0,0.0,0.0,0.0,0.0,0.0,0.0,0.0,0.00167449111503,-0.00683074950849,-0.00130792083332,0.0,0.0,0.0,0.0,0.0,0.0,0.0,0.0,0.0,6.42587035158,0.00778459389139,7.10300764016,0.0,0.0,0.0,0.0,0.0,0.0,0.0,0.0,0.0
23020000000,286,23020000000,imu_link,0.00104772040089,-0.373147646183,0.000135583375492,0.927771371647,0.0,0.0,0.0,0.0,0.0,0.0,0.0,0.0,0.0,0.0016722595413,-0.00651223499894,-0.00134279491614,0.0,0.0,0.0,0.0,0.0,0.0,0.0,0.0,0.0,6.42884455393,0.00795612599028,7.10925062017,0.0,0.0,0.0,0.0,0.0,0.0,0.0,0.0,0.0
23024000000,287,23024000000,imu_link,0.0010515886517,-0.373159847631,0.000134274356057,0.927766459971,0.0,0.0,0.0,0.0,0.0,0.0,0.0,0.0,0.0,0.00155194329558,-0.00657741505588,-0.00132222489764,0.0,0.0,0.0,0.0,0.0,0.0,0.0,0.0,0.0,6.43243576206,0.00806653909262,7.11856377216,0.0,0.0,0.0,0.0,0.0,0.0,0.0,0.0,0.0
23028000000,288,23028000000,imu_link,0.00105499505494,-0.373172737506,0.000132923104016,0.927761271718,0.0,0.0,0.0,0.0,0.0,0.0,0.0,0.0,0.0,0.00132991939995,-0.00694835995825,-0.00125526387097,0.0,0.0,0.0,0.0,0.0,0.0,0.0,0.0,0.0,6.43474366134,0.00817755105267,7.12397330429,0.0,0.0,0.0,0.0,0.0,0.0,0.0,0.0,0.0
23032000000,289,23032000000,imu_link,0.00105768630628,-0.373186607544,0.000131503749665,0.9277556898,0.0,0.0,0.0,0.0,0.0,0.0,0.0,0.0,0.0,0.000985609830268,-0.00747647936811,-0.0011528744193,0.0,0.0,0.0,0.0,0.0,0.0,0.0,0.0,0.0,6.43569636195,0.00822547075054,7.12468802218,0.0,0.0,0.0,0.0,0.0,0.0,0.0,0.0,0.0
23036000000,290,23036000000,imu_link,0.00105946956469,-0.373201697601,0.000129997872597,0.92774961791,0.0,0.0,0.0,0.0,0.0,0.0,0.0,0.0,0.0,0.00054844637144,-0.00813383070386,-0.00102290757698,0.0,0.0,0.0,0.0,0.0,0.0,0.0,0.0,0.0,6.43647688968,0.00818409392982,7.12461189703,0.0,0.0,0.0,0.0,0.0,0.0,0.0,0.0,0.0
23040000000,291,23040000000,imu_link,0.00106034080661,-0.373218192625,0.000128394071122,0.927742981588,0.0,0.0,0.0,0.0,0.0,0.0,0.0,0.0,0.0,0.000107319794498,-0.00889087600507,-0.000897368242848,0.0,0.0,0.0,0.0,0.0,0.0,0.0,0.0,0.0,6.43709472022,0.00810858941398,7.12375232521,0.0,0.0,0.0,0.0,0.0,0.0,0.0,0.0,0.0
23044000000,292,23044000000,imu_link,0.00106061368704,-0.37323620547,0.000126741947535,0.927735734981,0.0,0.0,0.0,0.0,0.0,0.0,0.0,0.0,0.0,-0.00017903427251,-0.00970882154535,-0.000807279913725,0.0,0.0,0.0,0.0,0.0,0.0,0.0,0.0,0.0,6.43878752799,0.00799178993754,7.12445160412,0.0,0.0,0.0,0.0,0.0,0.0,0.0,0.0,0.0
23048000000,293,23048000000,imu_link,0.00106065752059,-0.373255820478,0.000125079276675,0.927727843627,0.0,0.0,0.0,0.0,0.0,0.0,0.0,0.0,0.0,-0.000287009689715,-0.0105723258331,-0.000768537664073,0.0,0.0,0.0,0.0,0.0,0.0,0.0,0.0,0.0,6.44070268151,0.00791671136362,7.12568936362,0.0,0.0,0.0,0.0,0.0,0.0,0.0,0.0,0.0
23052000000,294,23052000000,imu_link,0.00106054989349,-0.37327715606,0.000123405193166,0.927719259673,0.0,0.0,0.0,0.0,0.0,0.0,0.0,0.0,0.0,-0.000359137039969,-0.0114996929392,-0.000744609010629,0.0,0.0,0.0,0.0,0.0,0.0,0.0,0.0,0.0,6.44274944481,0.00795125382378,7.12692487888,0.0,0.0,0.0,0.0,0.0,0.0,0.0,0.0,0.0
23056000000,295,23056000000,imu_link,0.00106016026928,-0.373300259094,0.000121693860491,0.927709964273,0.0,0.0,0.0,0.0,0.0,0.0,0.0,0.0,0.0,-0.000496628035738,-0.0124523285663,-0.000708274723533,0.0,0.0,0.0,0.0,0.0,0.0,0.0,0.0,0.0,6.44350615442,0.00802052391203,7.12504453545,0.0,0.0,0.0,0.0,0.0,0.0,0.0,0.0,0.0
23060000000,296,23060000000,imu_link,0.00105929514709,-0.373325009727,0.000119992262614,0.927700005717,0.0,0.0,0.0,0.0,0.0,0.0,0.0,0.0,0.0,-0.000715121870097,-0.0133403196393,-0.00061409371759,0.0,0.0,0.0,0.0,0.0,0.0,0.0,0.0,0.0,6.44614254658,0.00809206638508,7.1256633059,0.0,0.0,0.0,0.0,0.0,0.0,0.0,0.0,0.0
23064000000,297,23064000000,imu_link,0.00105789050878,-0.373351056128,0.000118376529395,0.927689525511,0.0,0.0,0.0,0.0,0.0,0.0,0.0,0.0,0.0,-0.000949150162544,-0.0140386563332,-0.000472840367959,0.0,0.0,0.0,0.0,0.0,0.0,0.0,0.0,0.0,6.44862956467,0.00811167445496,7.12386116276,0.0,0.0,0.0,0.0,0.0,0.0,0.0,0.0,0.0
23068000000,298,23068000000,imu_link,0.00105601138826,-0.373378029031,0.000116885615337,0.92767867207,0.0,0.0,0.0,0.0,0.0,0.0,0.0,0.0,0.0,-0.00114579298341,-0.0145379890542,-0.000325857277366,0.0,0.0,0.0,0.0,0.0,0.0,0.0,0.0,0.0,6.44990217316,0.00809194448221,7.11962401136,0.0,0.0,0.0,0.0,0.0,0.0,0.0,0.0,0.0
23072000000,299,23072000000,imu_link,0.00105374319924,-0.373405450078,0.000115532785187,0.92766763775,0.0,0.0,0.0,0.0,0.0,0.0,0.0,0.0,0.0,-0.00130041019616,-0.0147795283302,-0.000188926520027,0.0,0.0,0.0,0.0,0.0,0.0,0.0,0.0,0.0,6.4522151618,0.00808098467855,7.11645627436,0.0,0.0,0.0,0.0,0.0,0.0,0.0,0.0,0.0
23076000000,300,23076000000,imu_link,0.0010512997734,-0.373432591657,0.000114315337768,0.927656715164,0.0,0.0,0.0,0.0,0.0,0.0,0.0,0.0,0.0,-0.00135645736283,-0.0146289587836,-9.35679367491e-05,0.0,0.0,0.0,0.0,0.0,0.0,0.0,0.0,0.0,6.45480781937,0.00810594642417,7.11222777748,0.0,0.0,0.0,0.0,0.0,0.0,0.0,0.0,0.0
23080000000,301,23080000000,imu_link,0.00104871079547,-0.373458866209,0.000113192458391,0.927646140855,0.0,0.0,0.0,0.0,0.0,0.0,0.0,0.0,0.0,-0.00140644466678,-0.0141617202967,-2.30033103846e-05,0.0,0.0,0.0,0.0,0.0,0.0,0.0,0.0,0.0,6.45644202781,0.00819321516434,7.10790599326,0.0,0.0,0.0,0.0,0.0,0.0,0.0,0.0,0.0
23084000000,302,23084000000,imu_link,0.00104569567763,-0.373484042377,0.00011207746972,0.927636008383,0.0,0.0,0.0,0.0,0.0,0.0,0.0,0.0,0.0,-0.00160279427657,-0.0135697327325,5.96284959396e-05,0.0,0.0,0.0,0.0,0.0,0.0,0.0,0.0,0.0,6.4573000435,0.0082937941457,7.10532044204,0.0,0.0,0.0,0.0,0.0,0.0,0.0,0.0,0.0
23088000000,303,23088000000,imu_link,0.00104173083659,-0.373508255629,0.000110852768435,0.927626263904,0.0,0.0,0.0,0.0,0.0,0.0,0.0,0.0,0.0,-0.00206392985272,-0.013050663977,0.000185569838657,0.0,0.0,0.0,0.0,0.0,0.0,0.0,0.0,0.0,6.45954813702,0.00840104026446,7.10845313538,0.0,0.0,0.0,0.0,0.0,0.0,0.0,0.0,0.0
23092000000,304,23092000000,imu_link,0.00103669282235,-0.37353181797,0.000109405638448,0.927616782008,0.0,0.0,0.0,0.0,0.0,0.0,0.0,0.0,0.0,-0.0026033218453,-0.0126997810494,0.000282470419335,0.0,0.0,0.0,0.0,0.0,0.0,0.0,0.0,0.0,6.46074227518,0.00836974779713,7.11107945841,0.0,0.0,0.0,0.0,0.0,0.0,0.0,0.0,0.0
23096000000,305,23096000000,imu_link,0.00103095948045,-0.373554873619,0.000107693034712,0.927607504239,0.0,0.0,0.0,0.0,0.0,0.0,0.0,0.0,0.0,-0.00297548018825,-0.0124267481427,0.000288931161158,0.0,0.0,0.0,0.0,0.0,0.0,0.0,0.0,0.0,6.46220421271,0.00826372887953,7.11263638789,0.0,0.0,0.0,0.0,0.0,0.0,0.0,0.0,0.0
23100000000,306,23100000000,imu_link,0.00102528090217,-0.373577369339,0.000105780069499,0.927598451232,0.0,0.0,0.0,0.0,0.0,0.0,0.0,0.0,0.0,-0.00298758932743,-0.0121251771286,0.000185473413387,0.0,0.0,0.0,0.0,0.0,0.0,0.0,0.0,0.0,6.46335203386,0.008131038044,7.11166493498,0.0,0.0,0.0,0.0,0.0,0.0,0.0,0.0,0.0
23104000000,307,23104000000,imu_link,0.00102051131282,-0.373599068343,0.000103797970325,0.927589717448,0.0,0.0,0.0,0.0,0.0,0.0,0.0,0.0,0.0,-0.0025790359164,-0.0116961169892,-1.68050236264e-05,0.0,0.0,0.0,0.0,0.0,0.0,0.0,0.0,0.0,6.46627940686,0.00809020380128,7.11232335048,0.0,0.0,0.0,0.0,0.0,0.0,0.0,0.0,0.0
23108000000,308,23108000000,imu_link,0.00101696300879,-0.37361952908,0.000101837925835,0.927581480467,0.0,0.0,0.0,0.0,0.0,0.0,0.0,0.0,0.0,-0.00200867949021,-0.0110290648101,-0.000235369319559,0.0,0.0,0.0,0.0,0.0,0.0,0.0,0.0,0.0,6.46761846182,0.00824975733174,7.10808592123,0.0,0.0,0.0,0.0,0.0,0.0,0.0,0.0,0.0
23112000000,309,23112000000,imu_link,0.00101441318675,-0.373638662461,9.99328220815e-05,0.927573776523,0.0,0.0,0.0,0.0,0.0,0.0,0.0,0.0,0.0,-0.00153553277092,-0.0103138960093,-0.000397116578976,0.0,0.0,0.0,0.0,0.0,0.0,0.0,0.0,0.0,6.46820780652,0.00853021134973,7.10574323824,0.0,0.0,0.0,0.0,0.0,0.0,0.0,0.0,0.0
23116000000,310,23116000000,imu_link,0.00101229513076,-0.373656851679,9.80363465367e-05,0.927566451981,0.0,0.0,0.0,0.0,0.0,0.0,0.0,0.0,0.0,-0.00133381868474,-0.00980514299618,-0.000474275015381,0.0,0.0,0.0,0.0,0.0,0.0,0.0,0.0,0.0,6.46862709886,0.00884455195025,7.10704796341,0.0,0.0,0.0,0.0,0.0,0.0,0.0,0.0,0.0
23120000000,311,23120000000,imu_link,0.00101001473728,-0.37367471354,9.60839040969e-05,0.927559259077,0.0,0.0,0.0,0.0,0.0,0.0,0.0,0.0,0.0,-0.0014196148805,-0.00962874693697,-0.000470074407437,0.0,0.0,0.0,0.0,0.0,0.0,0.0,0.0,0.0,6.47057511861,0.00917696995957,7.11315227744,0.0,0.0,0.0,0.0,0.0,0.0,0.0,0.0,0.0
23124000000,312,23124000000,imu_link,0.00100728213646,-0.373692721547,9.40250761754e-05,0.927552007385,0.0,0.0,0.0,0.0,0.0,0.0,0.0,0.0,0.0,-0.00164919354544,-0.00970754218067,-0.000434847974752,0.0,0.0,0.0,0.0,0.0,0.0,0.0,0.0,0.0,6.47146304119,0.00938085562506,7.11589322545,0.0,0.0,0.0,0.0,0.0,0.0,0.0,0.0,0.0
23128000000,313,23128000000,imu_link,0.001004224069,-0.373711002438,9.18806648024e-05,0.92754464569,0.0,0.0,0.0,0.0,0.0,0.0,0.0,0.0,0.0,-0.00181608554302,-0.00985468044556,-0.00041358466317,0.0,0.0,0.0,0.0,0.0,0.0,0.0,0.0,0.0,6.47154054676,0.0094011897205,7.11433919051,0.0,0.0,0.0,0.0,0.0,0.0,0.0,0.0,0.0
23132000000,314,23132000000,imu_link,0.00100114761339,-0.373729596356,8.97360341799e-05,0.927537157454,0.0,0.0,0.0,0.0,0.0,0.0,0.0,0.0,0.0,-0.00182460527318,-0.0100234982235,-0.00041008742794,0.0,0.0,0.0,0.0,0.0,0.0,0.0,0.0,0.0,6.47225578196,0.00940057800097,7.11323435241,0.0,0.0,0.0,0.0,0.0,0.0,0.0,0.0,0.0
23136000000,315,23136000000,imu_link,0.000998232571787,-0.373748303354,8.76511523567e-05,0.927529623025,0.0,0.0,0.0,0.0,0.0,0.0,0.0,0.0,0.0,-0.0017385635308,-0.010084550449,-0.000412481730926,0.0,0.0,0.0,0.0,0.0,0.0,0.0,0.0,0.0,6.47187309774,0.00945295684055,7.10792680486,0.0,0.0,0.0,0.0,0.0,0.0,0.0,0.0,0.0
23140000000,316,23140000000,imu_link,0.000995429240676,-0.373766777409,8.56456407414e-05,0.927522181886,0.0,0.0,0.0,0.0,0.0,0.0,0.0,0.0,0.0,-0.00167196024865,-0.00995905105565,-0.000396668779532,0.0,0.0,0.0,0.0,0.0,0.0,0.0,0.0,0.0,6.47305946154,0.00957071216994,7.1046030491,0.0,0.0,0.0,0.0,0.0,0.0,0.0,0.0,0.0
23144000000,317,23144000000,imu_link,0.000992690899113,-0.373784805663,8.3708103311e-05,0.927514919887,0.0,0.0,0.0,0.0,0.0,0.0,0.0,0.0,0.0,-0.00162918744951,-0.00971879721916,-0.000377520016397,0.0,0.0,0.0,0.0,0.0,0.0,0.0,0.0,0.0,6.47274725497,0.00968421647055,7.09942393518,0.0,0.0,0.0,0.0,0.0,0.0,0.0,0.0,0.0
23148000000,318,23148000000,imu_link,0.000990067051324,-0.373802386108,8.18231167609e-05,0.927507837817,0.0,0.0,0.0,0.0,0.0,0.0,0.0,0.0,0.0,-0.00156633931119,-0.00947747302932,-0.000374776969956,0.0,0.0,0.0,0.0,0.0,0.0,0.0,0.0,0.0,6.47322232813,0.00974891768279,7.09770773313,0.0,0.0,0.0,0.0,0.0,0.0,0.0,0.0,0.0
23152000000,319,23152000000,imu_link,0.000987595320312,-0.373820013264,7.99733985486e-05,0.927500736357,0.0,0.0,0.0,0.0,0.0,0.0,0.0,0.0,0.0,-0.00148919517792,-0.00950274875464,-0.000386828029638,0.0,0.0,0.0,0.0,0.0,0.0,0.0,0.0,0.0,6.4757350139,0.00983014342031,7.10380218453,0.0,0.0,0.0,0.0,0.0,0.0,0.0,0.0,0.0
23156000000,320,23156000000,imu_link,0.000985391610111,-0.373838397828,7.82066672036e-05,0.927493328923,0.0,0.0,0.0,0.0,0.0,0.0,0.0,0.0,0.0,-0.0013492685494,-0.00991115602709,-0.000398052370073,0.0,0.0,0.0,0.0,0.0,0.0,0.0,0.0,0.0,6.47746179978,0.00989662702613,7.10986903819,0.0,0.0,0.0,0.0,0.0,0.0,0.0,0.0,0.0
23160000000,321,23160000000,imu_link,0.00098370245818,-0.373858049185,7.65611316598e-05,0.927485409873,0.0,0.0,0.0,0.0,0.0,0.0,0.0,0.0,0.0,-0.0010877875103,-0.0105942187184,-0.000437384891383,0.0,0.0,0.0,0.0,0.0,0.0,0.0,0.0,0.0,6.47940761164,0.00994966976047,7.11441965004,0.0,0.0,0.0,0.0,0.0,0.0,0.0,0.0,0.0
23164000000,322,23164000000,imu_link,0.000982646689459,-0.373878947927,7.50428277355e-05,0.927476986815,0.0,0.0,0.0,0.0,0.0,0.0,0.0,0.0,0.0,-0.00077007723853,-0.0112668593608,-0.000496147040456,0.0,0.0,0.0,0.0,0.0,0.0,0.0,0.0,0.0,6.48007673611,0.0101049134472,7.11200828464,0.0,0.0,0.0,0.0,0.0,0.0,0.0,0.0,0.0
23168000000,323,23168000000,imu_link,0.000982222788524,-0.373900767483,7.36322234083e-05,0.92746819131,0.0,0.0,0.0,0.0,0.0,0.0,0.0,0.0,0.0,-0.000456774075757,-0.0117634720723,-0.000563857230988,0.0,0.0,0.0,0.0,0.0,0.0,0.0,0.0,0.0,6.48089803164,0.0102987081836,7.10749723827,0.0,0.0,0.0,0.0,0.0,0.0,0.0,0.0,0.0
23172000000,324,23172000000,imu_link,0.000982356656025,-0.373922851268,7.22918457159e-05,0.927459288082,0.0,0.0,0.0,0.0,0.0,0.0,0.0,0.0,0.0,-0.000184945761385,-0.0119061295242,-0.000635432036985,0.0,0.0,0.0,0.0,0.0,0.0,0.0,0.0,0.0,6.4828267427,0.0104859102805,7.10254472147,0.0,0.0,0.0,0.0,0.0,0.0,0.0,0.0,0.0
23176000000,325,23176000000,imu_link,0.000982844569292,-0.373944681245,7.09898692511e-05,0.927450486196,0.0,0.0,0.0,0.0,0.0,0.0,0.0,0.0,0.0,-1.36253001683e-05,-0.0117694773955,-0.000683945478964,0.0,0.0,0.0,0.0,0.0,0.0,0.0,0.0,0.0,6.48416256304,0.0106504956981,7.0979958674,0.0,0.0,0.0,0.0,0.0,0.0,0.0,0.0,0.0
23180000000,326,23180000000,imu_link,0.000983326826445,-0.373965899383,6.96992796735e-05,0.927441930424,0.0,0.0,0.0,0.0,0.0,0.0,0.0,0.0,0.0,-1.42183778284e-05,-0.0114397305765,-0.000677916961765,0.0,0.0,0.0,0.0,0.0,0.0,0.0,0.0,0.0,6.48477460174,0.0108030549268,7.09377141053,0.0,0.0,0.0,0.0,0.0,0.0,0.0,0.0,0.0
23184000000,327,23184000000,imu_link,0.000983458658195,-0.373986300841,6.83770039695e-05,0.927433703785,0.0,0.0,0.0,0.0,0.0,0.0,0.0,0.0,0.0,-0.000182776111328,-0.0109994796745,-0.000627499909525,0.0,0.0,0.0,0.0,0.0,0.0,0.0,0.0,0.0,6.48512694196,0.0109044626036,7.09051406439,0.0,0.0,0.0,0.0,0.0,0.0,0.0,0.0,0.0
23188000000,328,23188000000,imu_link,0.000982951191402,-0.374005920883,6.69755148494e-05,0.927425792431,0.0,0.0,0.0,0.0,0.0,0.0,0.0,0.0,0.0,-0.000494170304373,-0.0105781848258,-0.000545083081279,0.0,0.0,0.0,0.0,0.0,0.0,0.0,0.0,0.0,6.48595794215,0.0109781618781,7.09001365713,0.0,0.0,0.0,0.0,0.0,0.0,0.0,0.0,0.0
23192000000,329,23192000000,imu_link,0.000981744780592,-0.374024790496,6.55061458312e-05,0.927418183982,0.0,0.0,0.0,0.0,0.0,0.0,0.0,0.0,0.0,-0.000831097141185,-0.010173567109,-0.000446234226075,0.0,0.0,0.0,0.0,0.0,0.0,0.0,0.0,0.0,6.48610248125,0.0109388707615,7.08797932632,0.0,0.0,0.0,0.0,0.0,0.0,0.0,0.0,0.0
23196000000,330,23196000000,imu_link,0.000979904113348,-0.374042982332,6.40243065058e-05,0.927410849115,0.0,0.0,0.0,0.0,0.0,0.0,0.0,0.0,0.0,-0.0011276518133,-0.00980809799136,-0.000333744668298,0.0,0.0,0.0,0.0,0.0,0.0,0.0,0.0,0.0,6.48676370941,0.0108763665965,7.08726305954,0.0,0.0,0.0,0.0,0.0,0.0,0.0,0.0,0.0
23200000000,331,23200000000,imu_link,0.00097772599681,-0.374060485141,6.25775386459e-05,0.927403792095,0.0,0.0,0.0,0.0,0.0,0.0,0.0,0.0,0.0,-0.00127768383778,-0.00943660093164,-0.000254718054334,0.0,0.0,0.0,0.0,0.0,0.0,0.0,0.0,0.0,6.48776937526,0.0107831848789,7.08628518231,0.0,0.0,0.0,0.0,0.0,0.0,0.0,0.0,0.0
23204000000,332,23204000000,imu_link,0.000975666317279,-0.374077236557,6.12195083758e-05,0.927397037637,0.0,0.0,0.0,0.0,0.0,0.0,0.0,0.0,0.0,-0.00120629216113,-0.00903155110592,-0.000236098362462,0.0,0.0,0.0,0.0,0.0,0.0,0.0,0.0,0.0,6.48853630355,0.0106971006146,7.08452109588,0.0,0.0,0.0,0.0,0.0,0.0,0.0,0.0,0.0
23208000000,333,23208000000,imu_link,0.000974329566216,-0.374093147781,6.00065318535e-05,0.927390620971,0.0,0.0,0.0,0.0,0.0,0.0,0.0,0.0,0.0,-0.000844079717107,-0.00857872598262,-0.000304472909929,0.0,0.0,0.0,0.0,0.0,0.0,0.0,0.0,0.0,6.48997275596,0.0106655768907,7.08379764708,0.0,0.0,0.0,0.0,0.0,0.0,0.0,0.0,0.0
23212000000,334,23212000000,imu_link,0.000974176102465,-0.37410820536,5.90062802075e-05,0.92738454709,0.0,0.0,0.0,0.0,0.0,0.0,0.0,0.0,0.0,-0.00025574686077,-0.008118710078,-0.000427589370294,0.0,0.0,0.0,0.0,0.0,0.0,0.0,0.0,0.0,6.49242200137,0.0108135692852,7.08587386805,0.0,0.0,0.0,0.0,0.0,0.0,0.0,0.0,0.0
23216000000,335,23216000000,imu_link,0.000975164541525,-0.374122462568,5.82197957926e-05,0.927378794596,0.0,0.0,0.0,0.0,0.0,0.0,0.0,0.0,0.0,0.000313597757178,-0.00768739692023,-0.000542464095731,0.0,0.0,0.0,0.0,0.0,0.0,0.0,0.0,0.0,6.49174870851,0.0110962077652,7.08241988113,0.0,0.0,0.0,0.0,0.0,0.0,0.0,0.0,0.0
23220000000,336,23220000000,imu_link,0.000976788490326,-0.374135993351,5.76015228321e-05,0.927373334233,0.0,0.0,0.0,0.0,0.0,0.0,0.0,0.0,0.0,0.000639621436211,-0.00729585159403,-0.000583708158262,0.0,0.0,0.0,0.0,0.0,0.0,0.0,0.0,0.0,6.49236661628,0.0113699859895,7.08175808846,0.0,0.0,0.0,0.0,0.0,0.0,0.0,0.0,0.0
23224000000,337,23224000000,imu_link,0.000978267016498,-0.374148958149,5.70844063542e-05,0.927368102131,0.0,0.0,0.0,0.0,0.0,0.0,0.0,0.0,0.0,0.00059101886144,-0.00699065789848,-0.000509882323892,0.0,0.0,0.0,0.0,0.0,0.0,0.0,0.0,0.0,6.49451945533,0.0116169111181,7.08511762077,0.0,0.0,0.0,0.0,0.0,0.0,0.0,0.0,0.0
23228000000,338,23228000000,imu_link,0.000979091895703,-0.374161434984,5.66153532734e-05,0.927363067382,0.0,0.0,0.0,0.0,0.0,0.0,0.0,0.0,0.0,0.000296842019031,-0.00672743529578,-0.000365559739602,0.0,0.0,0.0,0.0,0.0,0.0,0.0,0.0,0.0,6.49593533839,0.0117054097062,7.08594218696,0.0,0.0,0.0,0.0,0.0,0.0,0.0,0.0,0.0
23232000000,339,23232000000,imu_link,0.000979282444471,-0.3741732806,5.61617475008e-05,0.927358287792,0.0,0.0,0.0,0.0,0.0,0.0,0.0,0.0,0.0,5.49755858828e-06,-0.00638698989626,-0.000240042348256,0.0,0.0,0.0,0.0,0.0,0.0,0.0,0.0,0.0,6.49661088516,0.0116475921781,7.08333103517,0.0,0.0,0.0,0.0,0.0,0.0,0.0,0.0,0.0
23236000000,340,23236000000,imu_link,0.000979194699087,-0.374184327453,5.5723238161e-05,0.927353830618,0.0,0.0,0.0,0.0,0.0,0.0,0.0,0.0,0.0,-0.000120852732932,-0.00595628536441,-0.000181377490118,0.0,0.0,0.0,0.0,0.0,0.0,0.0,0.0,0.0,6.49665750714,0.0115347972687,7.07929886655,0.0,0.0,0.0,0.0,0.0,0.0,0.0,0.0,0.0
23240000000,341,23240000000,imu_link,0.000979169474752,-0.374194723569,5.53236147322e-05,0.9273496358,0.0,0.0,0.0,0.0,0.0,0.0,0.0,0.0,0.0,-8.46982345785e-05,-0.00560545182693,-0.000175370097807,0.0,0.0,0.0,0.0,0.0,0.0,0.0,0.0,0.0,6.49746543703,0.0114626939742,7.07934073134,0.0,0.0,0.0,0.0,0.0,0.0,0.0,0.0,0.0
23244000000,342,23244000000,imu_link,0.000979294902912,-0.374204867638,5.49176891442e-05,0.927345542396,0.0,0.0,0.0,0.0,0.0,0.0,0.0,0.0,0.0,-1.60662622587e-05,-0.00546961649535,-0.00020660513886,0.0,0.0,0.0,0.0,0.0,0.0,0.0,0.0,0.0,6.49894037873,0.0114902627076,7.08278834004,0.0,0.0,0.0,0.0,0.0,0.0,0.0,0.0,0.0
23248000000,343,23248000000,imu_link,0.000979486031586,-0.374215084436,5.44166564137e-05,0.92734141945,0.0,0.0,0.0,0.0,0.0,0.0,0.0,0.0,0.0,-3.38503269857e-06,-0.00550891483287,-0.000262960034344,0.0,0.0,0.0,0.0,0.0,0.0,0.0,0.0,0.0,6.50034454024,0.0115590663956,7.08542291737,0.0,0.0,0.0,0.0,0.0,0.0,0.0,0.0,0.0
23252000000,344,23252000000,imu_link,0.000979477524014,-0.374225488242,5.37866931694e-05,0.927337221123,0.0,0.0,0.0,0.0,0.0,0.0,0.0,0.0,0.0,-0.000120042555654,-0.00560978714086,-0.000285294252634,0.0,0.0,0.0,0.0,0.0,0.0,0.0,0.0,0.0,6.50113197748,0.0116486760161,7.08486917915,0.0,0.0,0.0,0.0,0.0,0.0,0.0,0.0,0.0
23256000000,345,23256000000,imu_link,0.000978899366943,-0.374236178161,5.30069829696e-05,0.927332907807,0.0,0.0,0.0,0.0,0.0,0.0,0.0,0.0,0.0,-0.00041214209038,-0.00576402264977,-0.000247995321736,0.0,0.0,0.0,0.0,0.0,0.0,0.0,0.0,0.0,6.50186732211,0.0117650355292,7.08426063472,0.0,0.0,0.0,0.0,0.0,0.0,0.0,0.0,0.0
23260000000,346,23260000000,imu_link,0.000977440674687,-0.374247252924,5.2056450733e-05,0.927328439971,0.0,0.0,0.0,0.0,0.0,0.0,0.0,0.0,0.0,-0.000852315180329,-0.00597143578358,-0.000162243251316,0.0,0.0,0.0,0.0,0.0,0.0,0.0,0.0,0.0,6.50202101512,0.0118102955204,7.08269418955,0.0,0.0,0.0,0.0,0.0,0.0,0.0,0.0,0.0
23264000000,347,23264000000,imu_link,0.000974950034585,-0.374258997469,5.09139371896e-05,0.927323702756,0.0,0.0,0.0,0.0,0.0,0.0,0.0,0.0,0.0,-0.0013666024943,-0.00633246342235,-5.782194377e-05,0.0,0.0,0.0,0.0,0.0,0.0,0.0,0.0,0.0,6.50305507803,0.0117445591637,7.08412785497,0.0,0.0,0.0,0.0,0.0,0.0,0.0,0.0,0.0
23268000000,348,23268000000,imu_link,0.000971686372617,-0.374271651628,4.96271149404e-05,0.927318599053,0.0,0.0,0.0,0.0,0.0,0.0,0.0,0.0,0.0,-0.001751872162,-0.00682284848004,2.03755530106e-05,0.0,0.0,0.0,0.0,0.0,0.0,0.0,0.0,0.0,6.50416855309,0.0116011817292,7.08556248311,0.0,0.0,0.0,0.0,0.0,0.0,0.0,0.0,0.0
23272000000,349,23272000000,imu_link,0.000968116619037,-0.374285359531,4.82370958183e-05,0.927313070146,0.0,0.0,0.0,0.0,0.0,0.0,0.0,0.0,0.0,-0.00191292578078,-0.00739103995282,3.03305746561e-05,0.0,0.0,0.0,0.0,0.0,0.0,0.0,0.0,0.0,6.50554067116,0.0114602937238,7.08661008494,0.0,0.0,0.0,0.0,0.0,0.0,0.0,0.0,0.0
23276000000,350,23276000000,imu_link,0.000964842850939,-0.374300131311,4.67865766049e-05,0.927307111258,0.0,0.0,0.0,0.0,0.0,0.0,0.0,0.0,0.0,-0.00178682985031,-0.00796481780198,-5.25868552196e-05,0.0,0.0,0.0,0.0,0.0,0.0,0.0,0.0,0.0,6.50693974615,0.0113864630548,7.08655355097,0.0,0.0,0.0,0.0,0.0,0.0,0.0,0.0,0.0
23280000000,351,23280000000,imu_link,0.000962284557308,-0.374315946362,4.53531688893e-05,0.927300730211,0.0,0.0,0.0,0.0,0.0,0.0,0.0,0.0,0.0,-0.00145171589941,-0.00852754952116,-0.000178040969875,0.0,0.0,0.0,0.0,0.0,0.0,0.0,0.0,0.0,6.50894862011,0.0114374086999,7.08703057594,0.0,0.0,0.0,0.0,0.0,0.0,0.0,0.0,0.0
23284000000,352,23284000000,imu_link,0.000960610872073,-0.374332850444,4.39963596441e-05,0.927293908299,0.0,0.0,0.0,0.0,0.0,0.0,0.0,0.0,0.0,-0.00102704345542,-0.00911497407522,-0.000307553599219,0.0,0.0,0.0,0.0,0.0,0.0,0.0,0.0,0.0,6.50950241285,0.0115702518187,7.08529779754,0.0,0.0,0.0,0.0,0.0,0.0,0.0,0.0,0.0
23288000000,353,23288000000,imu_link,0.000959693483854,-0.374350781696,4.27209129875e-05,0.927286670565,0.0,0.0,0.0,0.0,0.0,0.0,0.0,0.0,0.0,-0.000660983176349,-0.00966902345258,-0.000410880989633,0.0,0.0,0.0,0.0,0.0,0.0,0.0,0.0,0.0,6.51039400622,0.011772584602,7.08332209717,0.0,0.0,0.0,0.0,0.0,0.0,0.0,0.0,0.0
23292000000,354,23292000000,imu_link,0.000959426846418,-0.37436955303,4.1513044595e-05,0.927279092583,0.0,0.0,0.0,0.0,0.0,0.0,0.0,0.0,0.0,-0.000346472602787,-0.0101221894111,-0.00050094293144,0.0,0.0,0.0,0.0,0.0,0.0,0.0,0.0,0.0,6.51214316901,0.0119454126076,7.08204558387,0.0,0.0,0.0,0.0,0.0,0.0,0.0,0.0,0.0
23296000000,355,23296000000,imu_link,0.000959964693565,-0.374388920042,4.0362108053e-05,0.927271272815,0.0,0.0,0.0,0.0,0.0,0.0,0.0,0.0,0.0,3.72786635417e-05,-0.0104436176623,-0.000624843567248,0.0,0.0,0.0,0.0,0.0,0.0,0.0,0.0,0.0,6.51247796534,0.0120467204432,7.077584099,0.0,0.0,0.0,0.0,0.0,0.0,0.0,0.0,0.0
23300000000,356,23300000000,imu_link,0.000961506029019,-0.374408542767,3.92838687008e-05,0.927263348282,0.0,0.0,0.0,0.0,0.0,0.0,0.0,0.0,0.0,0.000516185239924,-0.0105817717383,-0.000778861159738,0.0,0.0,0.0,0.0,0.0,0.0,0.0,0.0,0.0,6.5132659001,0.012188225754,7.0732292871,0.0,0.0,0.0,0.0,0.0,0.0,0.0,0.0,0.0
23304000000,357,23304000000,imu_link,0.00096420011953,-0.374428143804,3.82901341117e-05,0.927255430817,0.0,0.0,0.0,0.0,0.0,0.0,0.0,0.0,0.0,0.00106645567703,-0.0105703759139,-0.000955493310101,0.0,0.0,0.0,0.0,0.0,0.0,0.0,0.0,0.0,6.51387186107,0.0123989505274,7.0692348196,0.0,0.0,0.0,0.0,0.0,0.0,0.0,0.0,0.0
23308000000,358,23308000000,imu_link,0.000968024339188,-0.374447490187,3.73889383353e-05,0.927247614515,0.0,0.0,0.0,0.0,0.0,0.0,0.0,0.0,0.0,0.0016076955443,-0.0104333484656,-0.00112429053739,0.0,0.0,0.0,0.0,0.0,0.0,0.0,0.0,0.0,6.51425450291,0.0126199872658,7.06540155676,0.0,0.0,0.0,0.0,0.0,0.0,0.0,0.0,0.0
23312000000,359,23312000000,imu_link,0.000972468885583,-0.374466356325,3.65469062967e-05,0.927239991021,0.0,0.0,0.0,0.0,0.0,0.0,0.0,0.0,0.0,0.00190628630131,-0.0101745806243,-0.00121323676344,0.0,0.0,0.0,0.0,0.0,0.0,0.0,0.0,0.0,6.51565345316,0.0128727183914,7.06390696017,0.0,0.0,0.0,0.0,0.0,0.0,0.0,0.0,0.0
23316000000,360,23316000000,imu_link,0.000977003535035,-0.374484449199,3.57181485004e-05,0.927232679265,0.0,0.0,0.0,0.0,0.0,0.0,0.0,0.0,0.0,0.00195040781158,-0.00975770716729,-0.00122433452558,0.0,0.0,0.0,0.0,0.0,0.0,0.0,0.0,0.0,6.51655469991,0.0130592925626,7.06084943481,0.0,0.0,0.0,0.0,0.0,0.0,0.0,0.0,0.0
23320000000,361,23320000000,imu_link,0.000981198621355,-0.37450138904,3.48451784272e-05,0.92722583314,0.0,0.0,0.0,0.0,0.0,0.0,0.0,0.0,0.0,0.00178449552009,-0.00913597209411,-0.00118182307733,0.0,0.0,0.0,0.0,0.0,0.0,0.0,0.0,0.0,6.51800982161,0.0131498510277,7.05841191091,0.0,0.0,0.0,0.0,0.0,0.0,0.0,0.0,0.0
23324000000,362,23324000000,imu_link,0.000984860837037,-0.374516874528,3.38753174878e-05,0.92721957464,0.0,0.0,0.0,0.0,0.0,0.0,0.0,0.0,0.0,0.00151904397762,-0.0083517202183,-0.00112768627998,0.0,0.0,0.0,0.0,0.0,0.0,0.0,0.0,0.0,6.51877076861,0.0131563921203,7.05522594604,0.0,0.0,0.0,0.0,0.0,0.0,0.0,0.0,0.0
23328000000,363,23328000000,imu_link,0.000987963616613,-0.374531035618,3.27769829008e-05,0.927213851392,0.0,0.0,0.0,0.0,0.0,0.0,0.0,0.0,0.0,0.00123538500705,-0.00763753992757,-0.0010831500291,0.0,0.0,0.0,0.0,0.0,0.0,0.0,0.0,0.0,6.51870556109,0.0130926966265,7.05404604833,0.0,0.0,0.0,0.0,0.0,0.0,0.0,0.0,0.0
23332000000,364,23332000000,imu_link,0.000990816886789,-0.374544304434,3.15843675858e-05,0.927208488583,0.0,0.0,0.0,0.0,0.0,0.0,0.0,0.0,0.0,0.00110189176396,-0.00715641993166,-0.00108058139476,0.0,0.0,0.0,0.0,0.0,0.0,0.0,0.0,0.0,6.51869243114,0.0129752400756,7.05557841155,0.0,0.0,0.0,0.0,0.0,0.0,0.0,0.0,0.0
23336000000,365,23336000000,imu_link,0.000993873756614,-0.37455714024,3.03567942274e-05,0.927203300247,0.0,0.0,0.0,0.0,0.0,0.0,0.0,0.0,0.0,0.00118965516029,-0.00692302161443,-0.00113513390831,0.0,0.0,0.0,0.0,0.0,0.0,0.0,0.0,0.0,6.51987487872,0.0128920326615,7.05973307758,0.0,0.0,0.0,0.0,0.0,0.0,0.0,0.0,0.0
23340000000,366,23340000000,imu_link,0.000997489970796,-0.374569628615,2.91209237618e-05,0.927198251446,0.0,0.0,0.0,0.0,0.0,0.0,0.0,0.0,0.0,0.00144735019021,-0.00673583227869,-0.00124390844195,0.0,0.0,0.0,0.0,0.0,0.0,0.0,0.0,0.0,6.52020912886,0.0128870544161,7.05862180532,0.0,0.0,0.0,0.0,0.0,0.0,0.0,0.0,0.0
23344000000,367,23344000000,imu_link,0.00100214310468,-0.374581645306,2.78983129343e-05,0.927193391872,0.0,0.0,0.0,0.0,0.0,0.0,0.0,0.0,0.0,0.00193046107818,-0.00648172951195,-0.00143219860404,0.0,0.0,0.0,0.0,0.0,0.0,0.0,0.0,0.0,6.52062539681,0.0129230100788,7.05567063044,0.0,0.0,0.0,0.0,0.0,0.0,0.0,0.0,0.0
23348000000,368,23348000000,imu_link,0.00100814945076,-0.374593064601,2.67115248743e-05,0.927188771974,0.0,0.0,0.0,0.0,0.0,0.0,0.0,0.0,0.0,0.00256440329525,-0.00615989079097,-0.00166933819391,0.0,0.0,0.0,0.0,0.0,0.0,0.0,0.0,0.0,6.52146395624,0.0131165449059,7.05362971093,0.0,0.0,0.0,0.0,0.0,0.0,0.0,0.0,0.0
23352000000,369,23352000000,imu_link,0.00101545260051,-0.374603797813,2.55581668285e-05,0.927184427645,0.0,0.0,0.0,0.0,0.0,0.0,0.0,0.0,0.0,0.00317172578129,-0.00579021349394,-0.00189707657684,0.0,0.0,0.0,0.0,0.0,0.0,0.0,0.0,0.0,6.52228678287,0.0133819307158,7.05177706469,0.0,0.0,0.0,0.0,0.0,0.0,0.0,0.0,0.0
23356000000,370,23356000000,imu_link,0.00102349225808,-0.374613724918,2.44186323123e-05,0.927180407995,0.0,0.0,0.0,0.0,0.0,0.0,0.0,0.0,0.0,0.00351559969369,-0.00535569748944,-0.00202903083876,0.0,0.0,0.0,0.0,0.0,0.0,0.0,0.0,0.0,6.52362409485,0.013643088503,7.05125513695,0.0,0.0,0.0,0.0,0.0,0.0,0.0,0.0,0.0
23360000000,371,23360000000,imu_link,0.00103145453397,-0.374623083589,2.32306995342e-05,0.927176617913,0.0,0.0,0.0,0.0,0.0,0.0,0.0,0.0,0.0,0.00347055043724,-0.00504920206842,-0.00203726737471,0.0,0.0,0.0,0.0,0.0,0.0,0.0,0.0,0.0,6.52574482477,0.0138764468977,7.05521952899,0.0,0.0,0.0,0.0,0.0,0.0,0.0,0.0,0.0
23364000000,372,23364000000,imu_link,0.00103874757785,-0.374632330514,2.19521004452e-05,0.927172873554,0.0,0.0,0.0,0.0,0.0,0.0,0.0,0.0,0.0,0.00314329717453,-0.00498887212607,-0.00195400249967,0.0,0.0,0.0,0.0,0.0,0.0,0.0,0.0,0.0,6.52793824529,0.013969273714,7.06105193027,0.0,0.0,0.0,0.0,0.0,0.0,0.0,0.0,0.0
23368000000,373,23368000000,imu_link,0.00104539721388,-0.37464186198,2.06097617187e-05,0.927169014782,0.0,0.0,0.0,0.0,0.0,0.0,0.0,0.0,0.0,0.00283313885929,-0.00514223869183,-0.00186288160201,0.0,0.0,0.0,0.0,0.0,0.0,0.0,0.0,0.0,6.52839983209,0.013886341462,7.06264225325,0.0,0.0,0.0,0.0,0.0,0.0,0.0,0.0,0.0
23372000000,374,23372000000,imu_link,0.00105173073502,-0.374651842086,1.92480103855e-05,0.927164974917,0.0,0.0,0.0,0.0,0.0,0.0,0.0,0.0,0.0,0.00268304653851,-0.00538415108146,-0.00181242967944,0.0,0.0,0.0,0.0,0.0,0.0,0.0,0.0,0.0,6.5294918681,0.0137551036007,7.06354428752,0.0,0.0,0.0,0.0,0.0,0.0,0.0,0.0,0.0
23376000000,375,23376000000,imu_link,0.00105795527043,-0.374662036315,1.79086624316e-05,0.92716084848,0.0,0.0,0.0,0.0,0.0,0.0,0.0,0.0,0.0,0.00263676285945,-0.00549961871561,-0.00178151457971,0.0,0.0,0.0,0.0,0.0,0.0,0.0,0.0,0.0,6.53001232813,0.0136836082465,7.05950212221,0.0,0.0,0.0,0.0,0.0,0.0,0.0,0.0,0.0
23380000000,376,23380000000,imu_link,0.00106387269436,-0.374672141915,1.66080485514e-05,0.927156758036,0.0,0.0,0.0,0.0,0.0,0.0,0.0,0.0,0.0,0.002501629838,-0.00545176620176,-0.00170607392069,0.0,0.0,0.0,0.0,0.0,0.0,0.0,0.0,0.0,6.53095410686,0.0137148705343,7.05601511291,0.0,0.0,0.0,0.0,0.0,0.0,0.0,0.0,0.0
23384000000,377,23384000000,imu_link,0.00106908216586,-0.374682021883,1.53412001695e-05,0.927152759423,0.0,0.0,0.0,0.0,0.0,0.0,0.0,0.0,0.0,0.00217971692087,-0.00532994136873,-0.00155791672371,0.0,0.0,0.0,0.0,0.0,0.0,0.0,0.0,0.0,6.53172532212,0.0137532483695,7.05393722404,0.0,0.0,0.0,0.0,0.0,0.0,0.0,0.0,0.0
23388000000,378,23388000000,imu_link,0.00107353311365,-0.374691945916,1.41311783177e-05,0.927148743726,0.0,0.0,0.0,0.0,0.0,0.0,0.0,0.0,0.0,0.00183873797996,-0.0053535330703,-0.00138944700283,0.0,0.0,0.0,0.0,0.0,0.0,0.0,0.0,0.0,6.53245488656,0.013671132433,7.05505412587,0.0,0.0,0.0,0.0,0.0,0.0,0.0,0.0,0.0
23392000000,379,23392000000,imu_link,0.00107746277603,-0.37470262785,1.29942071499e-05,0.927144422184,0.0,0.0,0.0,0.0,0.0,0.0,0.0,0.0,0.0,0.00161092798259,-0.00576213200709,-0.00125751287729,0.0,0.0,0.0,0.0,0.0,0.0,0.0,0.0,0.0,6.53544550641,0.0135854334668,7.06420708475,0.0,0.0,0.0,0.0,0.0,0.0,0.0,0.0,0.0
23396000000,380,23396000000,imu_link,0.00108131909971,-0.374714531664,1.19706885261e-05,0.927139606729,0.0,0.0,0.0,0.0,0.0,0.0,0.0,0.0,0.0,0.00159844383501,-0.00642103605931,-0.00119051785578,0.0,0.0,0.0,0.0,0.0,0.0,0.0,0.0,0.0,6.53667396427,0.0134954503618,7.0679311438,0.0,0.0,0.0,0.0,0.0,0.0,0.0,0.0,0.0
23400000000,381,23400000000,imu_link,0.0010854588495,-0.374727696159,1.10888297588e-05,0.927134281206,0.0,0.0,0.0,0.0,0.0,0.0,0.0,0.0,0.0,0.00175664084818,-0.00710093891599,-0.00117726591224,0.0,0.0,0.0,0.0,0.0,0.0,0.0,0.0,0.0,6.5374433908,0.0134478942981,7.06716108989,0.0,0.0,0.0,0.0,0.0,0.0,0.0,0.0,0.0
23404000000,382,23404000000,imu_link,0.00108985684026,-0.374742072491,1.03446529045e-05,0.927128465322,0.0,0.0,0.0,0.0,0.0,0.0,0.0,0.0,0.0,0.00190240890338,-0.00775451014672,-0.00116116570401,0.0,0.0,0.0,0.0,0.0,0.0,0.0,0.0,0.0,6.53710713631,0.0134756450913,7.06327136428,0.0,0.0,0.0,0.0,0.0,0.0,0.0,0.0,0.0
23408000000,383,23408000000,imu_link,0.00109428163557,-0.374757350283,9.69830043214e-06,0.92712228474,0.0,0.0,0.0,0.0,0.0,0.0,0.0,0.0,0.0,0.00193335806457,-0.00824067504882,-0.00112034709991,0.0,0.0,0.0,0.0,0.0,0.0,0.0,0.0,0.0,6.53838234638,0.0135574940584,7.06028971302,0.0,0.0,0.0,0.0,0.0,0.0,0.0,0.0,0.0
