%time,field.header.seq,field.header.stamp,field.header.frame_id,field.orientation.x,field.orientation.y,field.orientation.z,field.orientation.w,field.orientation_covariance0,field.orientation_covariance1,field.orientation_covariance2,field.orientation_covariance3,field.orientation_covariance4,field.orientation_covariance5,field.orientation_covariance6,field.orientation_covariance7,field.orientation_covariance8,field.angular_velocity.x,field.angular_velocity.y,field.angular_velocity.z,field.angular_velocity_covariance0,field.angular_velocity_covariance1,field.angular_velocity_covariance2,field.angular_velocity_covariance3,field.angular_velocity_covariance4,field.angular_velocity_covariance5,field.angular_velocity_covariance6,field.angular_velocity_covariance7,field.angular_velocity_covariance8,field.linear_acceleration.x,field.linear_acceleration.y,field.linear_acceleration.z,field.linear_acceleration_covariance0,field.linear_acceleration_covariance1,field.linear_acceleration_covariance2,field.linear_acceleration_covariance3,field.linear_acceleration_covariance4,field.linear_acceleration_covariance5,field.linear_acceleration_covariance6,field.linear_acceleration_covariance7,field.linear_acceleration_covariance8
133500000000,0,133500000000,imu_link,-9.88588423675e-05,-0.370225622661,0.00988487859382,0.92888926559,0.0,0.0,0.0,0.0,0.0,0.0,0.0,0.0,0.0,-0.000567198048776,-0.00111996771225,-0.00162093159921,0.0,0.0,0.0,0.0,0.0,0.0,0.0,0.0,0.0,5.45574205423,-0.0485934164761,8.1602384031,0.0,0.0,0.0,0.0,0.0,0.0,0.0,0.0,0.0
133504000000,1,133504000000,imu_link,-9.71039866397e-05,-0.370226087049,0.00988176594079,0.928889113803,0.0,0.0,0.0,0.0,0.0,0.0,0.0,0.0,0.0,0.000236538653975,-0.000252300009707,-0.00176977402948,0.0,0.0,0.0,0.0,0.0,0.0,0.0,0.0,0.0,5.46206239124,-0.0484416670838,8.15445975074,0.0,0.0,0.0,0.0,0.0,0.0,0.0,0.0,0.0
133508000000,2,133508000000,imu_link,-9.41420030462e-05,-0.370224811728,0.00987891025469,0.928889652785,0.0,0.0,0.0,0.0,0.0,0.0,0.0,0.0,0.0,0.0008533797963,0.000677592612723,-0.00187721078958,0.0,0.0,0.0,0.0,0.0,0.0,0.0,0.0,0.0,5.46780318862,-0.048142139517,8.14781847153,0.0,0.0,0.0,0.0,0.0,0.0,0.0,0.0,0.0
133512000000,3,133512000000,imu_link,-9.05873370026e-05,-0.370221859687,0.00987619919896,0.928890858548,0.0,0.0,0.0,0.0,0.0,0.0,0.0,0.0,0.0,0.00116373443339,0.00157683122071,-0.00192296544945,0.0,0.0,0.0,0.0,0.0,0.0,0.0,0.0,0.0,5.47423863045,-0.0477944989342,8.14437737924,0.0,0.0,0.0,0.0,0.0,0.0,0.0,0.0,0.0
133516000000,4,133516000000,imu_link,-8.69326304917e-05,-0.370217402379,0.00987355974528,0.928892663464,0.0,0.0,0.0,0.0,0.0,0.0,0.0,0.0,0.0,0.00123091239515,0.00238635848774,-0.00191111928214,0.0,0.0,0.0,0.0,0.0,0.0,0.0,0.0,0.0,5.47947318884,-0.047701113635,8.13846472578,0.0,0.0,0.0,0.0,0.0,0.0,0.0,0.0,0.0
133520000000,5,133520000000,imu_link,-8.33706620277e-05,-0.370211761824,0.00987095338242,0.928894939558,0.0,0.0,0.0,0.0,0.0,0.0,0.0,0.0,0.0,0.00119982785051,0.00302358807607,-0.00188085842568,0.0,0.0,0.0,0.0,0.0,0.0,0.0,0.0,0.0,5.48596337657,-0.0478310590182,8.1370008089,0.0,0.0,0.0,0.0,0.0,0.0,0.0,0.0,0.0
133524000000,6,133524000000,imu_link,-7.98680136083e-05,-0.370205007797,0.00986833707302,0.928897659458,0.0,0.0,0.0,0.0,0.0,0.0,0.0,0.0,0.0,0.00117594966307,0.00362318230777,-0.00187664156668,0.0,0.0,0.0,0.0,0.0,0.0,0.0,0.0,0.0,5.49225744466,-0.0480172863878,8.13331504998,0.0,0.0,0.0,0.0,0.0,0.0,0.0,0.0,0.0
133528000000,7,133528000000,imu_link,-7.62746623747e-05,-0.370196919051,0.00986569106543,0.928900911533,0.0,0.0,0.0,0.0,0.0,0.0,0.0,0.0,0.0,0.00121918624927,0.00434115133271,-0.00190979671089,0.0,0.0,0.0,0.0,0.0,0.0,0.0,0.0,0.0,5.49883407015,-0.048191340906,8.12856568325,0.0,0.0,0.0,0.0,0.0,0.0,0.0,0.0,0.0
133532000000,8,133532000000,imu_link,-7.24010593576e-05,-0.370187181228,0.00986303007345,0.928904820878,0.0,0.0,0.0,0.0,0.0,0.0,0.0,0.0,0.0,0.00135473543932,0.00522734358161,-0.00197180970718,0.0,0.0,0.0,0.0,0.0,0.0,0.0,0.0,0.0,5.50540012273,-0.0483467123864,8.12342855018,0.0,0.0,0.0,0.0,0.0,0.0,0.0,0.0,0.0
133536000000,9,133536000000,imu_link,-6.80877867009e-05,-0.370175627496,0.00986037338313,0.928909453719,0.0,0.0,0.0,0.0,0.0,0.0,0.0,0.0,0.0,0.00156871864801,0.00620249319871,-0.00205469401972,0.0,0.0,0.0,0.0,0.0,0.0,0.0,0.0,0.0,5.5102211443,-0.0484569656722,8.11442613366,0.0,0.0,0.0,0.0,0.0,0.0,0.0,0.0,0.0
133540000000,10,133540000000,imu_link,-6.33408777736e-05,-0.370162364224,0.00985777340482,0.928914767028,0.0,0.0,0.0,0.0,0.0,0.0,0.0,0.0,0.0,0.00178907127994,0.00712030346094,-0.0021119112856,0.0,0.0,0.0,0.0,0.0,0.0,0.0,0.0,0.0,5.51574435888,-0.0485248326057,8.10922842082,0.0,0.0,0.0,0.0,0.0,0.0,0.0,0.0,0.0
133544000000,11,133544000000,imu_link,-5.84419928303e-05,-0.370147735942,0.00985526690627,0.928920623022,0.0,0.0,0.0,0.0,0.0,0.0,0.0,0.0,0.0,0.00188370417269,0.00785398098463,-0.00209925342183,0.0,0.0,0.0,0.0,0.0,0.0,0.0,0.0,0.0,5.5224146339,-0.048555410765,8.10910078483,0.0,0.0,0.0,0.0,0.0,0.0,0.0,0.0,0.0
133548000000,12,133548000000,imu_link,-5.37742017226e-05,-0.370132152219,0.00985283454347,0.928926858613,0.0,0.0,0.0,0.0,0.0,0.0,0.0,0.0,0.0,0.00179481000607,0.00836913573061,-0.00202389347364,0.0,0.0,0.0,0.0,0.0,0.0,0.0,0.0,0.0,5.52874172451,-0.048603603512,8.10833168096,0.0,0.0,0.0,0.0,0.0,0.0,0.0,0.0,0.0
133552000000,13,133552000000,imu_link,-4.9827249201e-05,-0.370116193678,0.00985038082933,0.928933243399,0.0,0.0,0.0,0.0,0.0,0.0,0.0,0.0,0.0,0.00145790595637,0.00857438765566,-0.00190113254236,0.0,0.0,0.0,0.0,0.0,0.0,0.0,0.0,0.0,5.53554362282,-0.0486613478896,8.1098675267,0.0,0.0,0.0,0.0,0.0,0.0,0.0,0.0,0.0
133556000000,14,133556000000,imu_link,-4.67202901732e-05,-0.37010032338,0.00984785546243,0.928939593404,0.0,0.0,0.0,0.0,0.0,0.0,0.0,0.0,0.0,0.00105406161418,0.0085311041169,-0.00177879615096,0.0,0.0,0.0,0.0,0.0,0.0,0.0,0.0,0.0,5.54105663096,-0.0488178576087,8.10691896308,0.0,0.0,0.0,0.0,0.0,0.0,0.0,0.0,0.0
133560000000,15,133560000000,imu_link,-4.42348238074e-05,-0.370084730718,0.00984526997097,0.928945833077,0.0,0.0,0.0,0.0,0.0,0.0,0.0,0.0,0.0,0.000752901342946,0.00838479508075,-0.00169117810164,0.0,0.0,0.0,0.0,0.0,0.0,0.0,0.0,0.0,5.54659539774,-0.0490633746869,8.10236605434,0.0,0.0,0.0,0.0,0.0,0.0,0.0,0.0,0.0
133564000000,16,133564000000,imu_link,-4.20495346384e-05,-0.370069398146,0.00984267151303,0.928951968944,0.0,0.0,0.0,0.0,0.0,0.0,0.0,0.0,0.0,0.000609795195635,0.00824625985021,-0.00164114993008,0.0,0.0,0.0,0.0,0.0,0.0,0.0,0.0,0.0,5.55183065241,-0.0493232758759,8.09563676395,0.0,0.0,0.0,0.0,0.0,0.0,0.0,0.0,0.0
133568000000,17,133568000000,imu_link,-3.96304646413e-05,-0.370054223201,0.00984014387625,0.928958040973,0.0,0.0,0.0,0.0,0.0,0.0,0.0,0.0,0.0,0.000730708071657,0.00816008191183,-0.00165120191705,0.0,0.0,0.0,0.0,0.0,0.0,0.0,0.0,0.0,5.557261103,-0.0495909473721,8.08898070094,0.0,0.0,0.0,0.0,0.0,0.0,0.0,0.0,0.0
133572000000,18,133572000000,imu_link,-3.66091641334e-05,-0.370039085607,0.00983773783392,0.92896409656,0.0,0.0,0.0,0.0,0.0,0.0,0.0,0.0,0.0,0.0010327456843,0.00813672540405,-0.0017060726584,0.0,0.0,0.0,0.0,0.0,0.0,0.0,0.0,0.0,5.56289378879,-0.0497256779505,8.08269046407,0.0,0.0,0.0,0.0,0.0,0.0,0.0,0.0,0.0
133576000000,19,133576000000,imu_link,-3.27055189767e-05,-0.370023696083,0.00983546326139,0.928970250832,0.0,0.0,0.0,0.0,0.0,0.0,0.0,0.0,0.0,0.00146814443134,0.00826765819731,-0.00180873910504,0.0,0.0,0.0,0.0,0.0,0.0,0.0,0.0,0.0,5.56779865649,-0.0497823912236,8.0736454946,0.0,0.0,0.0,0.0,0.0,0.0,0.0,0.0,0.0
133580000000,20,133580000000,imu_link,-2.784572724e-05,-0.370007779434,0.00983331933349,0.928976613384,0.0,0.0,0.0,0.0,0.0,0.0,0.0,0.0,0.0,0.00193902676177,0.00854632978866,-0.00192597071228,0.0,0.0,0.0,0.0,0.0,0.0,0.0,0.0,0.0,5.57276555385,-0.0497726938032,8.0651321799,0.0,0.0,0.0,0.0,0.0,0.0,0.0,0.0,0.0
133584000000,21,133584000000,imu_link,-2.21184631915e-05,-0.369991302155,0.00983128772672,0.928983197707,0.0,0.0,0.0,0.0,0.0,0.0,0.0,0.0,0.0,0.00236549687214,0.00884349820343,-0.00203536718076,0.0,0.0,0.0,0.0,0.0,0.0,0.0,0.0,0.0,5.5780040507,-0.0497366113842,8.05917940972,0.0,0.0,0.0,0.0,0.0,0.0,0.0,0.0,0.0
133588000000,22,133588000000,imu_link,-1.57982971774e-05,-0.369974246723,0.00982932905737,0.928990011143,0.0,0.0,0.0,0.0,0.0,0.0,0.0,0.0,0.0,0.00265723248972,0.00915151520725,-0.0021122924912,0.0,0.0,0.0,0.0,0.0,0.0,0.0,0.0,0.0,5.5832580984,-0.0496835442595,8.05353147307,0.0,0.0,0.0,0.0,0.0,0.0,0.0,0.0,0.0
133592000000,23,133592000000,imu_link,-8.99195516707e-06,-0.369956657872,0.00982746028385,0.928997035646,0.0,0.0,0.0,0.0,0.0,0.0,0.0,0.0,0.0,0.00290231161905,0.00943593959896,-0.00216150573529,0.0,0.0,0.0,0.0,0.0,0.0,0.0,0.0,0.0,5.58928998724,-0.0497011979061,8.05061844583,0.0,0.0,0.0,0.0,0.0,0.0,0.0,0.0,0.0
133596000000,24,133596000000,imu_link,-1.85223045728e-06,-0.369938445996,0.00982568957607,0.929004306769,0.0,0.0,0.0,0.0,0.0,0.0,0.0,0.0,0.0,0.00307836991722,0.00976931496495,-0.00217883193785,0.0,0.0,0.0,0.0,0.0,0.0,0.0,0.0,0.0,5.59365434268,-0.0497017878475,8.04232599585,0.0,0.0,0.0,0.0,0.0,0.0,0.0,0.0,0.0
133600000000,25,133600000000,imu_link,5.77255611159e-06,-0.369919478658,0.00982409051544,0.929011876416,0.0,0.0,0.0,0.0,0.0,0.0,0.0,0.0,0.0,0.00333914337677,0.0101730633319,-0.00219028889345,0.0,0.0,0.0,0.0,0.0,0.0,0.0,0.0,0.0,5.59901788044,-0.0497719792334,8.03634781388,0.0,0.0,0.0,0.0,0.0,0.0,0.0,0.0,0.0
133604000000,26,133604000000,imu_link,1.40948215796e-05,-0.369899772649,0.00982271116897,0.929019737326,0.0,0.0,0.0,0.0,0.0,0.0,0.0,0.0,0.0,0.00370739228288,0.0105666263283,-0.00221866869778,0.0,0.0,0.0,0.0,0.0,0.0,0.0,0.0,0.0,5.6040683995,-0.0498292903596,8.03071478247,0.0,0.0,0.0,0.0,0.0,0.0,0.0,0.0,0.0
133608000000,27,133608000000,imu_link,2.31206370247e-05,-0.369879872254,0.00982151474615,0.929027673116,0.0,0.0,0.0,0.0,0.0,0.0,0.0,0.0,0.0,0.00406898407748,0.0106673164405,-0.00226418948353,0.0,0.0,0.0,0.0,0.0,0.0,0.0,0.0,0.0,5.61048427072,-0.049882243245,8.03224934026,0.0,0.0,0.0,0.0,0.0,0.0,0.0,0.0,0.0
133612000000,28,133612000000,imu_link,3.24782798296e-05,-0.36986048407,0.00982038131574,0.929035403728,0.0,0.0,0.0,0.0,0.0,0.0,0.0,0.0,0.0,0.00423225931035,0.010389812024,-0.0022952832616,0.0,0.0,0.0,0.0,0.0,0.0,0.0,0.0,0.0,5.61693641965,-0.0498980222579,8.03468786055,0.0,0.0,0.0,0.0,0.0,0.0,0.0,0.0,0.0
133616000000,29,133616000000,imu_link,4.14767583409e-05,-0.369841846358,0.00981918945959,0.929042835654,0.0,0.0,0.0,0.0,0.0,0.0,0.0,0.0,0.0,0.00405093634497,0.0099877315613,-0.00225452392528,0.0,0.0,0.0,0.0,0.0,0.0,0.0,0.0,0.0,5.62289673229,-0.0498735750975,8.03266648479,0.0,0.0,0.0,0.0,0.0,0.0,0.0,0.0,0.0
133620000000,30,133620000000,imu_link,4.94741700773e-05,-0.369823770371,0.00981787437048,0.929050044811,0.0,0.0,0.0,0.0,0.0,0.0,0.0,0.0,0.0,0.00356037781079,0.00969051575135,-0.00212554472737,0.0,0.0,0.0,0.0,0.0,0.0,0.0,0.0,0.0,5.62828357244,-0.0499350930693,8.02648468994,0.0,0.0,0.0,0.0,0.0,0.0,0.0,0.0,0.0
133624000000,31,133624000000,imu_link,5.60739697168e-05,-0.369805932426,0.00981642177607,0.929057160277,0.0,0.0,0.0,0.0,0.0,0.0,0.0,0.0,0.0,0.00288455944172,0.00956947215254,-0.00193051847821,0.0,0.0,0.0,0.0,0.0,0.0,0.0,0.0,0.0,5.63394989884,-0.0501662930287,8.02061101561,0.0,0.0,0.0,0.0,0.0,0.0,0.0,0.0,0.0
133628000000,32,133628000000,imu_link,6.11630368411e-05,-0.369788259305,0.00981485520492,0.929064210998,0.0,0.0,0.0,0.0,0.0,0.0,0.0,0.0,0.0,0.00216089919823,0.00948834695355,-0.00170380260505,0.0,0.0,0.0,0.0,0.0,0.0,0.0,0.0,0.0,5.6381009148,-0.0504876972775,8.01228892802,0.0,0.0,0.0,0.0,0.0,0.0,0.0,0.0,0.0
133632000000,33,133632000000,imu_link,6.46514617416e-05,-0.369771164963,0.00981314315579,0.929071032593,0.0,0.0,0.0,0.0,0.0,0.0,0.0,0.0,0.0,0.00138761816126,0.0091849719573,-0.00147429032671,0.0,0.0,0.0,0.0,0.0,0.0,0.0,0.0,0.0,5.64373751173,-0.050833478585,8.01141594875,0.0,0.0,0.0,0.0,0.0,0.0,0.0,0.0,0.0
133636000000,34,133636000000,imu_link,6.62835304182e-05,-0.369755227601,0.00981120943428,0.929077395828,0.0,0.0,0.0,0.0,0.0,0.0,0.0,0.0,0.0,0.000478628750468,0.00857187082628,-0.00123176514158,0.0,0.0,0.0,0.0,0.0,0.0,0.0,0.0,0.0,5.64801475437,-0.0511308623771,8.00813477511,0.0,0.0,0.0,0.0,0.0,0.0,0.0,0.0,0.0
133640000000,35,133640000000,imu_link,6.58738776929e-05,-0.369740814998,0.00980900032552,0.929083154996,0.0,0.0,0.0,0.0,0.0,0.0,0.0,0.0,0.0,-0.000528202638778,0.007761889194,-0.000979210750788,0.0,0.0,0.0,0.0,0.0,0.0,0.0,0.0,0.0,5.65286739603,-0.0514628859413,8.00488930635,0.0,0.0,0.0,0.0,0.0,0.0,0.0,0.0,0.0
133644000000,36,133644000000,imu_link,6.34318032437e-05,-0.369728019371,0.00980651635873,0.929088273473,0.0,0.0,0.0,0.0,0.0,0.0,0.0,0.0,0.0,-0.00153106950422,0.00690225090151,-0.000727963574775,0.0,0.0,0.0,0.0,0.0,0.0,0.0,0.0,0.0,5.65795479714,-0.0518573131575,8.00041369038,0.0,0.0,0.0,0.0,0.0,0.0,0.0,0.0,0.0
133648000000,37,133648000000,imu_link,5.92986021198e-05,-0.369716714745,0.00980381989194,0.929092800767,0.0,0.0,0.0,0.0,0.0,0.0,0.0,0.0,0.0,-0.00236324809436,0.00610861252996,-0.000511104734339,0.0,0.0,0.0,0.0,0.0,0.0,0.0,0.0,0.0,5.66257850173,-0.0522819232082,7.99324716422,0.0,0.0,0.0,0.0,0.0,0.0,0.0,0.0,0.0
133652000000,38,133652000000,imu_link,5.40262540216e-05,-0.369706633646,0.00980100895625,0.929096842285,0.0,0.0,0.0,0.0,0.0,0.0,0.0,0.0,0.0,-0.00291957847354,0.00545600776497,-0.000351282498955,0.0,0.0,0.0,0.0,0.0,0.0,0.0,0.0,0.0,5.66785878508,-0.0526958273607,7.98712555802,0.0,0.0,0.0,0.0,0.0,0.0,0.0,0.0,0.0
133656000000,39,133656000000,imu_link,4.80555506618e-05,-0.36969752535,0.00979814017314,0.929100497196,0.0,0.0,0.0,0.0,0.0,0.0,0.0,0.0,0.0,-0.00325944837582,0.0049360490623,-0.000247141295518,0.0,0.0,0.0,0.0,0.0,0.0,0.0,0.0,0.0,5.67189546791,-0.0529728984008,7.97789749709,0.0,0.0,0.0,0.0,0.0,0.0,0.0,0.0,0.0
133660000000,40,133660000000,imu_link,4.16431460939e-05,-0.369689276941,0.0097952759867,0.929103809781,0.0,0.0,0.0,0.0,0.0,0.0,0.0,0.0,0.0,-0.00346799552009,0.00447547318959,-0.000161660246374,0.0,0.0,0.0,0.0,0.0,0.0,0.0,0.0,0.0,5.67608849526,-0.0531365731237,7.96998045986,0.0,0.0,0.0,0.0,0.0,0.0,0.0,0.0,0.0
133664000000,41,133664000000,imu_link,3.47644345502e-05,-0.369681967618,0.00979246351019,0.929106748048,0.0,0.0,0.0,0.0,0.0,0.0,0.0,0.0,0.0,-0.00367965251684,0.00397231366399,-4.95911323567e-05,0.0,0.0,0.0,0.0,0.0,0.0,0.0,0.0,0.0,5.68133509843,-0.0532159129532,7.96637316037,0.0,0.0,0.0,0.0,0.0,0.0,0.0,0.0,0.0
133668000000,42,133668000000,imu_link,2.70378431142e-05,-0.369675527442,0.00978968312358,0.929109340058,0.0,0.0,0.0,0.0,0.0,0.0,0.0,0.0,0.0,-0.00407185597679,0.00350869837632,0.00012374975051,0.0,0.0,0.0,0.0,0.0,0.0,0.0,0.0,0.0,5.68584585987,-0.0532414526553,7.96019831158,0.0,0.0,0.0,0.0,0.0,0.0,0.0,0.0,0.0
133672000000,43,133672000000,imu_link,1.78975968708e-05,-0.369669969532,0.00978685437183,0.929111581452,0.0,0.0,0.0,0.0,0.0,0.0,0.0,0.0,0.0,-0.00474182943784,0.00304094897679,0.000364306437884,0.0,0.0,0.0,0.0,0.0,0.0,0.0,0.0,0.0,5.69062951231,-0.0533089405113,7.9556875942,0.0,0.0,0.0,0.0,0.0,0.0,0.0,0.0,0.0
133676000000,44,133676000000,imu_link,7.00963280322e-06,-0.369665451694,0.00978388530109,0.929113410388,0.0,0.0,0.0,0.0,0.0,0.0,0.0,0.0,0.0,-0.00558476355718,0.0024900921371,0.000624187472082,0.0,0.0,0.0,0.0,0.0,0.0,0.0,0.0,0.0,5.69444075593,-0.0534783833873,7.94955601525,0.0,0.0,0.0,0.0,0.0,0.0,0.0,0.0,0.0
133680000000,45,133680000000,imu_link,-5.71653437606e-06,-0.369662315317,0.00978070483993,0.929114691744,0.0,0.0,0.0,0.0,0.0,0.0,0.0,0.0,0.0,-0.00648454111773,0.00175610581868,0.000868428298684,0.0,0.0,0.0,0.0,0.0,0.0,0.0,0.0,0.0,5.6992657957,-0.0537340678019,7.9474222222,0.0,0.0,0.0,0.0,0.0,0.0,0.0,0.0,0.0
133684000000,46,133684000000,imu_link,-2.00738163578e-05,-0.36966094055,0.00977730944126,0.929115274252,0.0,0.0,0.0,0.0,0.0,0.0,0.0,0.0,0.0,-0.00729063151503,0.000816546003598,0.00107347091493,0.0,0.0,0.0,0.0,0.0,0.0,0.0,0.0,0.0,5.70469855853,-0.0540681609755,7.94703488574,0.0,0.0,0.0,0.0,0.0,0.0,0.0,0.0,0.0
133688000000,47,133688000000,imu_link,-3.58001543305e-05,-0.369661429097,0.00977373528921,0.929115117009,0.0,0.0,0.0,0.0,0.0,0.0,0.0,0.0,0.0,-0.00796879253131,-0.000179105164519,0.00124707061668,0.0,0.0,0.0,0.0,0.0,0.0,0.0,0.0,0.0,5.70973841411,-0.0543808802245,7.94367819287,0.0,0.0,0.0,0.0,0.0,0.0,0.0,0.0,0.0
133692000000,48,133692000000,imu_link,-5.273861873e-05,-0.369663513401,0.00976998816449,0.92911432634,0.0,0.0,0.0,0.0,0.0,0.0,0.0,0.0,0.0,-0.00857167527623,-0.00103157587363,0.00139381995381,0.0,0.0,0.0,0.0,0.0,0.0,0.0,0.0,0.0,5.71429733002,-0.0545789595398,7.93681462579,0.0,0.0,0.0,0.0,0.0,0.0,0.0,0.0,0.0
133696000000,49,133696000000,imu_link,-7.08090756026e-05,-0.369666554921,0.00976606588191,0.92911315625,0.0,0.0,0.0,0.0,0.0,0.0,0.0,0.0,0.0,-0.00913461122699,-0.00154085231724,0.00152350549763,0.0,0.0,0.0,0.0,0.0,0.0,0.0,0.0,0.0,5.71828595795,-0.0546946240749,7.92607924022,0.0,0.0,0.0,0.0,0.0,0.0,0.0,0.0,0.0
133700000000,50,133700000000,imu_link,-8.99678470693e-05,-0.369669953702,0.0097619832208,0.929111845215,0.0,0.0,0.0,0.0,0.0,0.0,0.0,0.0,0.0,-0.00967158772661,-0.00172755152441,0.00165083293992,0.0,0.0,0.0,0.0,0.0,0.0,0.0,0.0,0.0,5.72233659557,-0.0547532023349,7.91622141466,0.0,0.0,0.0,0.0,0.0,0.0,0.0,0.0,0.0
133704000000,51,133704000000,imu_link,-0.000110188957804,-0.369673318508,0.00975774208428,0.92911054881,0.0,0.0,0.0,0.0,0.0,0.0,0.0,0.0,0.0,-0.0101942290344,-0.00170387188655,0.0017734998287,0.0,0.0,0.0,0.0,0.0,0.0,0.0,0.0,0.0,5.72626921698,-0.0547942192262,7.90773993348,0.0,0.0,0.0,0.0,0.0,0.0,0.0,0.0,0.0
133708000000,52,133708000000,imu_link,-0.000131314542935,-0.369676609913,0.00975337275245,0.929109282356,0.0,0.0,0.0,0.0,0.0,0.0,0.0,0.0,0.0,-0.0106377428123,-0.00165981681806,0.00188098396224,0.0,0.0,0.0,0.0,0.0,0.0,0.0,0.0,0.0,5.72994693022,-0.054876254367,7.90116210418,0.0,0.0,0.0,0.0,0.0,0.0,0.0,0.0,0.0
133712000000,53,133712000000,imu_link,-0.000152942457926,-0.369680182514,0.00974895191855,0.92910790396,0.0,0.0,0.0,0.0,0.0,0.0,0.0,0.0,0.0,-0.0108820006902,-0.00180868578579,0.00195043567771,0.0,0.0,0.0,0.0,0.0,0.0,0.0,0.0,0.0,5.73502315562,-0.0550112991074,7.90068749836,0.0,0.0,0.0,0.0,0.0,0.0,0.0,0.0,0.0
133716000000,54,133716000000,imu_link,-0.000174507474029,-0.369684375764,0.0097445464474,0.929106277924,0.0,0.0,0.0,0.0,0.0,0.0,0.0,0.0,0.0,-0.01085298539,-0.00214309268603,0.00194710592488,0.0,0.0,0.0,0.0,0.0,0.0,0.0,0.0,0.0,5.7391091948,-0.0551118310584,7.89756946203,0.0,0.0,0.0,0.0,0.0,0.0,0.0,0.0,0.0
133720000000,55,133720000000,imu_link,-0.000195550833761,-0.369689265672,0.00974016898541,0.929104373962,0.0,0.0,0.0,0.0,0.0,0.0,0.0,0.0,0.0,-0.0106088895671,-0.00252064355293,0.00186498690384,0.0,0.0,0.0,0.0,0.0,0.0,0.0,0.0,0.0,5.74352326362,-0.0551276429269,7.89398856904,0.0,0.0,0.0,0.0,0.0,0.0,0.0,0.0,0.0
133724000000,56,133724000000,imu_link,-0.000215875063643,-0.369694687844,0.00973581528054,0.929102257601,0.0,0.0,0.0,0.0,0.0,0.0,0.0,0.0,0.0,-0.0102730377838,-0.0028106734199,0.00174407839661,0.0,0.0,0.0,0.0,0.0,0.0,0.0,0.0,0.0,5.74710499332,-0.0550366210351,7.88671838507,0.0,0.0,0.0,0.0,0.0,0.0,0.0,0.0,0.0
133728000000,57,133728000000,imu_link,-0.000235640516022,-0.369700419179,0.00973140622684,0.92910001844,0.0,0.0,0.0,0.0,0.0,0.0,0.0,0.0,0.0,-0.0100252063805,-0.00297970874802,0.00161564190147,0.0,0.0,0.0,0.0,0.0,0.0,0.0,0.0,0.0,5.75083935098,-0.0548864291841,7.87940167093,0.0,0.0,0.0,0.0,0.0,0.0,0.0,0.0,0.0
133732000000,58,133732000000,imu_link,-0.000255119459452,-0.369706544074,0.00972686190361,0.929097623687,0.0,0.0,0.0,0.0,0.0,0.0,0.0,0.0,0.0,-0.00991904652756,-0.00319267665783,0.00150055189688,0.0,0.0,0.0,0.0,0.0,0.0,0.0,0.0,0.0,5.75493447898,-0.0547760670393,7.87493200923,0.0,0.0,0.0,0.0,0.0,0.0,0.0,0.0,0.0
133736000000,59,133736000000,imu_link,-0.000274837089934,-0.369713251974,0.00972207817361,0.929094998897,0.0,0.0,0.0,0.0,0.0,0.0,0.0,0.0,0.0,-0.0100770481801,-0.00350484213169,0.00143450225237,0.0,0.0,0.0,0.0,0.0,0.0,0.0,0.0,0.0,5.75901553046,-0.054612884721,7.87126493999,0.0,0.0,0.0,0.0,0.0,0.0,0.0,0.0,0.0
133740000000,60,133740000000,imu_link,-0.000295018309076,-0.369720627666,0.00971703320296,0.929092110454,0.0,0.0,0.0,0.0,0.0,0.0,0.0,0.0,0.0,-0.0103439816005,-0.00386151248366,0.00140003085483,0.0,0.0,0.0,0.0,0.0,0.0,0.0,0.0,0.0,5.76274215475,-0.0545301960859,7.86634581187,0.0,0.0,0.0,0.0,0.0,0.0,0.0,0.0,0.0
133744000000,61,133744000000,imu_link,-0.000315385244445,-0.369728682782,0.00971181833634,0.929088952816,0.0,0.0,0.0,0.0,0.0,0.0,0.0,0.0,0.0,-0.0104650030602,-0.00422597195603,0.00135664558174,0.0,0.0,0.0,0.0,0.0,0.0,0.0,0.0,0.0,5.76633328528,-0.0545313284605,7.86052084832,0.0,0.0,0.0,0.0,0.0,0.0,0.0,0.0,0.0
133748000000,62,133748000000,imu_link,-0.000335651560401,-0.369737259266,0.00970652865326,0.929085587957,0.0,0.0,0.0,0.0,0.0,0.0,0.0,0.0,0.0,-0.0104346561562,-0.00450695500673,0.0013042130934,0.0,0.0,0.0,0.0,0.0,0.0,0.0,0.0,0.0,5.77031534833,-0.0545301929592,7.85467698182,0.0,0.0,0.0,0.0,0.0,0.0,0.0,0.0,0.0
133752000000,63,133752000000,imu_link,-0.000355789590228,-0.369746076058,0.00970120540311,0.929082127299,0.0,0.0,0.0,0.0,0.0,0.0,0.0,0.0,0.0,-0.0103824496142,-0.00463691586244,0.00126532828591,0.0,0.0,0.0,0.0,0.0,0.0,0.0,0.0,0.0,5.77427369785,-0.0543714071674,7.84801903421,0.0,0.0,0.0,0.0,0.0,0.0,0.0,0.0,0.0
133756000000,64,133756000000,imu_link,-0.00037592784554,-0.369754884642,0.00969584806502,0.9290786697,0.0,0.0,0.0,0.0,0.0,0.0,0.0,0.0,0.0,-0.0103888159429,-0.00463252997935,0.00124952134436,0.0,0.0,0.0,0.0,0.0,0.0,0.0,0.0,0.0,5.77716407031,-0.0542234890028,7.83891698414,0.0,0.0,0.0,0.0,0.0,0.0,0.0,0.0,0.0
133760000000,65,133760000000,imu_link,-0.000396167608277,-0.36976343326,0.00969041823109,0.929075315714,0.0,0.0,0.0,0.0,0.0,0.0,0.0,0.0,0.0,-0.0104480932097,-0.00449210407535,0.00123415716085,0.0,0.0,0.0,0.0,0.0,0.0,0.0,0.0,0.0,5.78054027526,-0.0541074371558,7.83116929796,0.0,0.0,0.0,0.0,0.0,0.0,0.0,0.0,0.0
133764000000,66,133764000000,imu_link,-0.000416793185315,-0.369771394768,0.00968481166268,0.929072196504,0.0,0.0,0.0,0.0,0.0,0.0,0.0,0.0,0.0,-0.0106571022825,-0.00417405964062,0.00122236611176,0.0,0.0,0.0,0.0,0.0,0.0,0.0,0.0,0.0,5.78534053402,-0.0540210031893,7.82705208095,0.0,0.0,0.0,0.0,0.0,0.0,0.0,0.0,0.0
133768000000,67,133768000000,imu_link,-0.000438074245537,-0.369778729381,0.0096789200062,0.929069328896,0.0,0.0,0.0,0.0,0.0,0.0,0.0,0.0,0.0,-0.0110112184749,-0.00383309293135,0.00121003416153,0.0,0.0,0.0,0.0,0.0,0.0,0.0,0.0,0.0,5.78944051108,-0.0539882243623,7.82340299097,0.0,0.0,0.0,0.0,0.0,0.0,0.0,0.0,0.0
133772000000,68,133772000000,imu_link,-0.000460239189654,-0.369785594632,0.00967269763826,0.929066650517,0.0,0.0,0.0,0.0,0.0,0.0,0.0,0.0,0.0,-0.0114806453061,-0.00357572130371,0.00121901499552,0.0,0.0,0.0,0.0,0.0,0.0,0.0,0.0,0.0,5.79348486073,-0.0540309460931,7.8209067891,0.0,0.0,0.0,0.0,0.0,0.0,0.0,0.0,0.0
133776000000,69,133776000000,imu_link,-0.00048322980684,-0.369792225834,0.00966617315288,0.929064067381,0.0,0.0,0.0,0.0,0.0,0.0,0.0,0.0,0.0,-0.0119189034468,-0.00344532590499,0.00123092561556,0.0,0.0,0.0,0.0,0.0,0.0,0.0,0.0,0.0,5.79650760549,-0.0541638342269,7.81571856063,0.0,0.0,0.0,0.0,0.0,0.0,0.0,0.0,0.0
133780000000,70,133780000000,imu_link,-0.000506574439538,-0.369798894356,0.00965943147165,0.929061470786,0.0,0.0,0.0,0.0,0.0,0.0,0.0,0.0,0.0,-0.0121236972816,-0.003463386869,0.00119554330393,0.0,0.0,0.0,0.0,0.0,0.0,0.0,0.0,0.0,5.80058337163,-0.0543176089065,7.81338728579,0.0,0.0,0.0,0.0,0.0,0.0,0.0,0.0,0.0
133784000000,71,133784000000,imu_link,-0.000529625784506,-0.36980554401,0.0096525218994,0.929058882922,0.0,0.0,0.0,0.0,0.0,0.0,0.0,0.0,0.0,-0.0120184057347,-0.00345438169121,0.00106328663518,0.0,0.0,0.0,0.0,0.0,0.0,0.0,0.0,0.0,5.80504698738,-0.0544045302679,7.81047843046,0.0,0.0,0.0,0.0,0.0,0.0,0.0,0.0,0.0
133788000000,72,133788000000,imu_link,-0.000552147225405,-0.369812302085,0.00964544311414,0.929056253295,0.0,0.0,0.0,0.0,0.0,0.0,0.0,0.0,0.0,-0.011804071971,-0.00351498079628,0.000886874329279,0.0,0.0,0.0,0.0,0.0,0.0,0.0,0.0,0.0,5.80912081263,-0.0542458911976,7.80797819372,0.0,0.0,0.0,0.0,0.0,0.0,0.0,0.0,0.0
133792000000,73,133792000000,imu_link,-0.0005741838729,-0.369819268178,0.00963818520576,0.929053542366,0.0,0.0,0.0,0.0,0.0,0.0,0.0,0.0,0.0,-0.0116130184278,-0.00362893333169,0.000714359990073,0.0,0.0,0.0,0.0,0.0,0.0,0.0,0.0,0.0,5.81339680678,-0.0540427351876,7.80560869097,0.0,0.0,0.0,0.0,0.0,0.0,0.0,0.0,0.0
133796000000,74,133796000000,imu_link,-0.000596010811201,-0.36982648868,0.00963075247603,0.929050731472,0.0,0.0,0.0,0.0,0.0,0.0,0.0,0.0,0.0,-0.011549183766,-0.00376655818951,0.000594782246074,0.0,0.0,0.0,0.0,0.0,0.0,0.0,0.0,0.0,5.81629229435,-0.0538180162649,7.79924128829,0.0,0.0,0.0,0.0,0.0,0.0,0.0,0.0,0.0
133800000000,75,133800000000,imu_link,-0.000617758510784,-0.369834117026,0.00962318399077,0.929047759046,0.0,0.0,0.0,0.0,0.0,0.0,0.0,0.0,0.0,-0.0115394904266,-0.0039862223681,0.000517724362366,0.0,0.0,0.0,0.0,0.0,0.0,0.0,0.0,0.0,5.81989244743,-0.0536966775374,7.79524294391,0.0,0.0,0.0,0.0,0.0,0.0,0.0,0.0,0.0
133804000000,76,133804000000,imu_link,-0.000639234456241,-0.369842363139,0.00961555449758,0.929044540869,0.0,0.0,0.0,0.0,0.0,0.0,0.0,0.0,0.0,-0.0114275839001,-0.00431992205844,0.000440124389669,0.0,0.0,0.0,0.0,0.0,0.0,0.0,0.0,0.0,5.82433562522,-0.0536638437297,7.79365324522,0.0,0.0,0.0,0.0,0.0,0.0,0.0,0.0,0.0
133808000000,77,133808000000,imu_link,-0.000660026466176,-0.369851474243,0.00960796568154,0.929040977762,0.0,0.0,0.0,0.0,0.0,0.0,0.0,0.0,0.0,-0.0111066274846,-0.00478881594822,0.000333927547132,0.0,0.0,0.0,0.0,0.0,0.0,0.0,0.0,0.0,5.82921777504,-0.0536711645563,7.79402242436,0.0,0.0,0.0,0.0,0.0,0.0,0.0,0.0,0.0
133812000000,78,133812000000,imu_link,-0.000680002138071,-0.369861708358,0.00960045309189,0.92903696675,0.0,0.0,0.0,0.0,0.0,0.0,0.0,0.0,0.0,-0.0107188682527,-0.00539725298992,0.000220155468934,0.0,0.0,0.0,0.0,0.0,0.0,0.0,0.0,0.0,5.83420854898,-0.0535302364514,7.79479345733,0.0,0.0,0.0,0.0,0.0,0.0,0.0,0.0,0.0
133816000000,79,133816000000,imu_link,-0.000699430325653,-0.369873132628,0.00959296702051,0.929032481424,0.0,0.0,0.0,0.0,0.0,0.0,0.0,0.0,0.0,-0.0104655219079,-0.00604045488673,0.000133099120711,0.0,0.0,0.0,0.0,0.0,0.0,0.0,0.0,0.0,5.8370195128,-0.0533083206191,7.7887182635,0.0,0.0,0.0,0.0,0.0,0.0,0.0,0.0,0.0
133820000000,80,133820000000,imu_link,-0.000718679110917,-0.369885828506,0.00958540999799,0.929027490059,0.0,0.0,0.0,0.0,0.0,0.0,0.0,0.0,0.0,-0.0104015842985,-0.00672555843345,6.89456158995e-05,0.0,0.0,0.0,0.0,0.0,0.0,0.0,0.0,0.0,5.84061540602,-0.0531356346545,7.78443952124,0.0,0.0,0.0,0.0,0.0,0.0,0.0,0.0,0.0
133824000000,81,133824000000,imu_link,-0.000738072498145,-0.369899771654,0.0095776946772,0.929022002939,0.0,0.0,0.0,0.0,0.0,0.0,0.0,0.0,0.0,-0.0105041859759,-0.00739586855942,2.40848261149e-05,0.0,0.0,0.0,0.0,0.0,0.0,0.0,0.0,0.0,5.84402328982,-0.0530522908068,7.77881142095,0.0,0.0,0.0,0.0,0.0,0.0,0.0,0.0,0.0
133828000000,82,133828000000,imu_link,-0.000757687474677,-0.369914747186,0.00956980913789,0.929016105607,0.0,0.0,0.0,0.0,0.0,0.0,0.0,0.0,0.0,-0.0106436938582,-0.00795016689808,-1.24171894902e-05,0.0,0.0,0.0,0.0,0.0,0.0,0.0,0.0,0.0,5.84825939198,-0.0530221941996,7.77438819075,0.0,0.0,0.0,0.0,0.0,0.0,0.0,0.0,0.0
133832000000,83,133832000000,imu_link,-0.000777617953496,-0.369930574112,0.00956174993341,0.929009870015,0.0,0.0,0.0,0.0,0.0,0.0,0.0,0.0,0.0,-0.0108265698506,-0.00840663471832,-3.34355803288e-05,0.0,0.0,0.0,0.0,0.0,0.0,0.0,0.0,0.0,5.8520439015,-0.0529232489789,7.76945068707,0.0,0.0,0.0,0.0,0.0,0.0,0.0,0.0,0.0
133836000000,84,133836000000,imu_link,-0.000797950681324,-0.369947193148,0.00955350741468,0.929003319721,0.0,0.0,0.0,0.0,0.0,0.0,0.0,0.0,0.0,-0.0110512326101,-0.00883078811004,-4.29872813331e-05,0.0,0.0,0.0,0.0,0.0,0.0,0.0,0.0,0.0,5.85512757889,-0.0528258508077,7.76371946548,0.0,0.0,0.0,0.0,0.0,0.0,0.0,0.0,0.0
133840000000,85,133840000000,imu_link,-0.00081887362449,-0.369964653787,0.0095450263777,0.928996435335,0.0,0.0,0.0,0.0,0.0,0.0,0.0,0.0,0.0,-0.0113736616208,-0.00928059790206,-4.33450582195e-05,0.0,0.0,0.0,0.0,0.0,0.0,0.0,0.0,0.0,5.85916790083,-0.0527811610642,7.7610592359,0.0,0.0,0.0,0.0,0.0,0.0,0.0,0.0,0.0
133844000000,86,133844000000,imu_link,-0.000840369672119,-0.369982784498,0.0095362858127,0.928989285302,0.0,0.0,0.0,0.0,0.0,0.0,0.0,0.0,0.0,-0.0116911824148,-0.00963814421524,-5.68877044395e-05,0.0,0.0,0.0,0.0,0.0,0.0,0.0,0.0,0.0,5.86238355199,-0.0527790424731,7.75502727776,0.0,0.0,0.0,0.0,0.0,0.0,0.0,0.0,0.0
133848000000,87,133848000000,imu_link,-0.000862318914317,-0.370001425776,0.00952728837808,0.928981933143,0.0,0.0,0.0,0.0,0.0,0.0,0.0,0.0,0.0,-0.0119517269154,-0.00991042205481,-9.16159412069e-05,0.0,0.0,0.0,0.0,0.0,0.0,0.0,0.0,0.0,5.86635073721,-0.0528342729847,7.75071327936,0.0,0.0,0.0,0.0,0.0,0.0,0.0,0.0,0.0
133852000000,88,133852000000,imu_link,-0.000884406417656,-0.370020532636,0.00951808197418,0.928974396509,0.0,0.0,0.0,0.0,0.0,0.0,0.0,0.0,0.0,-0.0120569048391,-0.0101600599922,-0.000162423845694,0.0,0.0,0.0,0.0,0.0,0.0,0.0,0.0,0.0,5.8714799351,-0.0529334291629,7.75024885429,0.0,0.0,0.0,0.0,0.0,0.0,0.0,0.0,0.0
133856000000,89,133856000000,imu_link,-0.000906509990209,-0.370040172171,0.00950869217028,0.928966648482,0.0,0.0,0.0,0.0,0.0,0.0,0.0,0.0,0.0,-0.0121009281685,-0.0104464331667,-0.000243867351329,0.0,0.0,0.0,0.0,0.0,0.0,0.0,0.0,0.0,5.87467098768,-0.0529599956454,7.74620247732,0.0,0.0,0.0,0.0,0.0,0.0,0.0,0.0,0.0
133860000000,90,133860000000,imu_link,-0.000928522907284,-0.370060379275,0.00949914115025,0.928958674998,0.0,0.0,0.0,0.0,0.0,0.0,0.0,0.0,0.0,-0.0120914490421,-0.0107521316548,-0.000334707987147,0.0,0.0,0.0,0.0,0.0,0.0,0.0,0.0,0.0,5.87808959012,-0.0529740677876,7.74245283903,0.0,0.0,0.0,0.0,0.0,0.0,0.0,0.0,0.0
133864000000,91,133864000000,imu_link,-0.000950340196126,-0.370081161972,0.00948945175292,0.928950472691,0.0,0.0,0.0,0.0,0.0,0.0,0.0,0.0,0.0,-0.0120290277983,-0.011062686413,-0.00043435892982,0.0,0.0,0.0,0.0,0.0,0.0,0.0,0.0,0.0,5.88173811057,-0.0529820083804,7.7389858687,0.0,0.0,0.0,0.0,0.0,0.0,0.0,0.0,0.0
133868000000,92,133868000000,imu_link,-0.000971874226479,-0.370102273346,0.00947964028325,0.928942139826,0.0,0.0,0.0,0.0,0.0,0.0,0.0,0.0,0.0,-0.0119216711066,-0.0112407937573,-0.000543009541555,0.0,0.0,0.0,0.0,0.0,0.0,0.0,0.0,0.0,5.8856735569,-0.0529898183936,7.73430458755,0.0,0.0,0.0,0.0,0.0,0.0,0.0,0.0,0.0
133872000000,93,133872000000,imu_link,-0.00099306799457,-0.370123135983,0.00946971796092,0.928933906405,0.0,0.0,0.0,0.0,0.0,0.0,0.0,0.0,0.0,-0.0117829152398,-0.0111084186368,-0.000657813783692,0.0,0.0,0.0,0.0,0.0,0.0,0.0,0.0,0.0,5.8899874836,-0.0528404210856,7.7284738487,0.0,0.0,0.0,0.0,0.0,0.0,0.0,0.0,0.0
133876000000,94,133876000000,imu_link,-0.001013852885,-0.370143052371,0.00945972757708,0.928926050037,0.0,0.0,0.0,0.0,0.0,0.0,0.0,0.0,0.0,-0.0116009330776,-0.0106010418893,-0.000766409102926,0.0,0.0,0.0,0.0,0.0,0.0,0.0,0.0,0.0,5.89359665667,-0.0526500593806,7.7206341098,0.0,0.0,0.0,0.0,0.0,0.0,0.0,0.0,0.0
133880000000,95,133880000000,imu_link,-0.00103409000599,-0.370161772664,0.00944974150144,0.928918669799,0.0,0.0,0.0,0.0,0.0,0.0,0.0,0.0,0.0,-0.0113398183726,-0.00995997452385,-0.000867430324787,0.0,0.0,0.0,0.0,0.0,0.0,0.0,0.0,0.0,5.89593412873,-0.0524085530538,7.71340555805,0.0,0.0,0.0,0.0,0.0,0.0,0.0,0.0,0.0
133884000000,96,133884000000,imu_link,-0.00105352351235,-0.370179403744,0.00943982532276,0.92891172284,0.0,0.0,0.0,0.0,0.0,0.0,0.0,0.0,0.0,-0.0109482650467,-0.00937772124528,-0.000985183751259,0.0,0.0,0.0,0.0,0.0,0.0,0.0,0.0,0.0,5.89918406246,-0.0522349731475,7.71098314532,0.0,0.0,0.0,0.0,0.0,0.0,0.0,0.0,0.0
133888000000,97,133888000000,imu_link,-0.00107210718797,-0.370196571633,0.00942996518044,0.92890495999,0.0,0.0,0.0,0.0,0.0,0.0,0.0,0.0,0.0,-0.0105409012234,-0.0091325535209,-0.00111707723948,0.0,0.0,0.0,0.0,0.0,0.0,0.0,0.0,0.0,5.90366342838,-0.0520300209215,7.71509168691,0.0,0.0,0.0,0.0,0.0,0.0,0.0,0.0,0.0
133892000000,98,133892000000,imu_link,-0.00109020030486,-0.370214030784,0.00942006107952,0.928898081236,0.0,0.0,0.0,0.0,0.0,0.0,0.0,0.0,0.0,-0.0103226320933,-0.00929157377263,-0.00122790514661,0.0,0.0,0.0,0.0,0.0,0.0,0.0,0.0,0.0,5.90812026505,-0.0518063425016,7.71966517053,0.0,0.0,0.0,0.0,0.0,0.0,0.0,0.0,0.0
133896000000,99,133896000000,imu_link,-0.00110823379445,-0.370232213434,0.00941004651942,0.928890914466,0.0,0.0,0.0,0.0,0.0,0.0,0.0,0.0,0.0,-0.0103189497156,-0.00968113629889,-0.00128928305941,0.0,0.0,0.0,0.0,0.0,0.0,0.0,0.0,0.0,5.91202686712,-0.051639686922,7.72005823994,0.0,0.0,0.0,0.0,0.0,0.0,0.0,0.0,0.0
133900000000,100,133900000000,imu_link,-0.00112626009499,-0.370251110323,0.00939995496058,0.928883462922,0.0,0.0,0.0,0.0,0.0,0.0,0.0,0.0,0.0,-0.010333382811,-0.0100655690031,-0.00132543148423,0.0,0.0,0.0,0.0,0.0,0.0,0.0,0.0,0.0,5.91521673084,-0.0516297873218,7.71601027682,0.0,0.0,0.0,0.0,0.0,0.0,0.0,0.0,0.0
133904000000,101,133904000000,imu_link,-0.00114404970751,-0.370270532491,0.00938984470845,0.928875801566,0.0,0.0,0.0,0.0,0.0,0.0,0.0,0.0,0.0,-0.010229502578,-0.0103494740138,-0.00137724011413,0.0,0.0,0.0,0.0,0.0,0.0,0.0,0.0,0.0,5.918433659,-0.051681755389,7.7108255671,0.0,0.0,0.0,0.0,0.0,0.0,0.0,0.0,0.0
133908000000,102,133908000000,imu_link,-0.00116130905475,-0.370290109425,0.00937973853845,0.928868078216,0.0,0.0,0.0,0.0,0.0,0.0,0.0,0.0,0.0,-0.00998323361313,-0.0104353223857,-0.00147331249753,0.0,0.0,0.0,0.0,0.0,0.0,0.0,0.0,0.0,5.92165414706,-0.0517338496144,7.70446031014,0.0,0.0,0.0,0.0,0.0,0.0,0.0,0.0,0.0
133912000000,103,133912000000,imu_link,-0.0011778653322,-0.370309412285,0.00936963562265,0.928860464082,0.0,0.0,0.0,0.0,0.0,0.0,0.0,0.0,0.0,-0.0096547527811,-0.0102911115579,-0.00160232409811,0.0,0.0,0.0,0.0,0.0,0.0,0.0,0.0,0.0,5.92530185508,-0.0517651468763,7.69843674772,0.0,0.0,0.0,0.0,0.0,0.0,0.0,0.0,0.0
133916000000,104,133916000000,imu_link,-0.00119364699224,-0.370328199519,0.00935954303104,0.928853055549,0.0,0.0,0.0,0.0,0.0,0.0,0.0,0.0,0.0,-0.00929054876594,-0.0100172059067,-0.00174161282347,0.0,0.0,0.0,0.0,0.0,0.0,0.0,0.0,0.0,5.92723353634,-0.0517256461493,7.68958079178,0.0,0.0,0.0,0.0,0.0,0.0,0.0,0.0,0.0
133920000000,105,133920000000,imu_link,-0.00120854351898,-0.370346288333,0.009349488025,0.928845925444,0.0,0.0,0.0,0.0,0.0,0.0,0.0,0.0,0.0,-0.00886907526432,-0.00964545099976,-0.00188893815236,0.0,0.0,0.0,0.0,0.0,0.0,0.0,0.0,0.0,5.92955795525,-0.0516307489067,7.68258413703,0.0,0.0,0.0,0.0,0.0,0.0,0.0,0.0,0.0
133924000000,106,133924000000,imu_link,-0.00122231918311,-0.370363674071,0.00933951201915,0.92883907561,0.0,0.0,0.0,0.0,0.0,0.0,0.0,0.0,0.0,-0.00833043615721,-0.00927231547572,-0.0020606876424,0.0,0.0,0.0,0.0,0.0,0.0,0.0,0.0,0.0,5.933212414,-0.0514385716232,7.68057853093,0.0,0.0,0.0,0.0,0.0,0.0,0.0,0.0,0.0
133928000000,107,133928000000,imu_link,-0.00123487041193,-0.370380638574,0.00932964667292,0.928832393577,0.0,0.0,0.0,0.0,0.0,0.0,0.0,0.0,0.0,-0.00773922270661,-0.0090513973564,-0.00223656447892,0.0,0.0,0.0,0.0,0.0,0.0,0.0,0.0,0.0,5.93685846245,-0.0512000143999,7.68062678203,0.0,0.0,0.0,0.0,0.0,0.0,0.0,0.0,0.0
133932000000,108,133932000000,imu_link,-0.00124613621705,-0.370397642143,0.00931990872222,0.92882569578,0.0,0.0,0.0,0.0,0.0,0.0,0.0,0.0,0.0,-0.00711885067155,-0.00907853467937,-0.0024153985456,0.0,0.0,0.0,0.0,0.0,0.0,0.0,0.0,0.0,5.94151080128,-0.0509806374044,7.68423139464,0.0,0.0,0.0,0.0,0.0,0.0,0.0,0.0,0.0
133936000000,109,133936000000,imu_link,-0.00125623823936,-0.370414831208,0.00931024668487,0.928818924222,0.0,0.0,0.0,0.0,0.0,0.0,0.0,0.0,0.0,-0.00656522627821,-0.00918381209275,-0.00259544646687,0.0,0.0,0.0,0.0,0.0,0.0,0.0,0.0,0.0,5.94457669992,-0.0507250208575,7.68172287804,0.0,0.0,0.0,0.0,0.0,0.0,0.0,0.0,0.0
133940000000,110,133940000000,imu_link,-0.00126551286207,-0.370432181349,0.00930058458407,0.928812088974,0.0,0.0,0.0,0.0,0.0,0.0,0.0,0.0,0.0,-0.00618177566167,-0.00927426476932,-0.00274852116839,0.0,0.0,0.0,0.0,0.0,0.0,0.0,0.0,0.0,5.94809484945,-0.050486518144,7.67875177894,0.0,0.0,0.0,0.0,0.0,0.0,0.0,0.0,0.0
133944000000,111,133944000000,imu_link,-0.00127435101609,-0.370449546424,0.00929088366024,0.92880524819,0.0,0.0,0.0,0.0,0.0,0.0,0.0,0.0,0.0,-0.00598634056267,-0.00928423060208,-0.00284737554515,0.0,0.0,0.0,0.0,0.0,0.0,0.0,0.0,0.0,5.95125989102,-0.0503241168055,7.67451094949,0.0,0.0,0.0,0.0,0.0,0.0,0.0,0.0,0.0
133948000000,112,133948000000,imu_link,-0.00128299403413,-0.370466746653,0.00928113492666,0.928798473343,0.0,0.0,0.0,0.0,0.0,0.0,0.0,0.0,0.0,-0.00590376665227,-0.00919633858503,-0.0029059238105,0.0,0.0,0.0,0.0,0.0,0.0,0.0,0.0,0.0,5.95389761726,-0.050266739553,7.66910666435,0.0,0.0,0.0,0.0,0.0,0.0,0.0,0.0,0.0
133952000000,113,133952000000,imu_link,-0.00129154978088,-0.370483712273,0.00927136002621,0.928791791912,0.0,0.0,0.0,0.0,0.0,0.0,0.0,0.0,0.0,-0.00586693627186,-0.00907047105019,-0.00293452423647,0.0,0.0,0.0,0.0,0.0,0.0,0.0,0.0,0.0,5.95672623708,-0.0502919241946,7.66490555698,0.0,0.0,0.0,0.0,0.0,0.0,0.0,0.0,0.0
133956000000,114,133956000000,imu_link,-0.00130024019112,-0.370500379289,0.00926154139157,0.928785229304,0.0,0.0,0.0,0.0,0.0,0.0,0.0,0.0,0.0,-0.00593611387445,-0.00890913675556,-0.00293024689797,0.0,0.0,0.0,0.0,0.0,0.0,0.0,0.0,0.0,5.95850769871,-0.0503226490315,7.65791668453,0.0,0.0,0.0,0.0,0.0,0.0,0.0,0.0,0.0
133960000000,115,133960000000,imu_link,-0.00130934701826,-0.370516653211,0.00925162181123,0.9287788234,0.0,0.0,0.0,0.0,0.0,0.0,0.0,0.0,0.0,-0.00614627281894,-0.00869556379086,-0.00290045413158,0.0,0.0,0.0,0.0,0.0,0.0,0.0,0.0,0.0,5.96118219285,-0.0503852551791,7.65264325739,0.0,0.0,0.0,0.0,0.0,0.0,0.0,0.0,0.0
133964000000,116,133964000000,imu_link,-0.00131909372859,-0.370532535542,0.00924153197159,0.928772573983,0.0,0.0,0.0,0.0,0.0,0.0,0.0,0.0,0.0,-0.00647305586874,-0.00848165084721,-0.00286144456957,0.0,0.0,0.0,0.0,0.0,0.0,0.0,0.0,0.0,5.96397115867,-0.0504252789273,7.64848574226,0.0,0.0,0.0,0.0,0.0,0.0,0.0,0.0,0.0
133968000000,117,133968000000,imu_link,-0.00132963071433,-0.370548142793,0.00923123265616,0.928766434739,0.0,0.0,0.0,0.0,0.0,0.0,0.0,0.0,0.0,-0.00687751398983,-0.00832970622509,-0.00281263852928,0.0,0.0,0.0,0.0,0.0,0.0,0.0,0.0,0.0,5.96636044643,-0.050437151404,7.64448801476,0.0,0.0,0.0,0.0,0.0,0.0,0.0,0.0,0.0
133972000000,118,133972000000,imu_link,-0.00134081539518,-0.370563713241,0.00922079544493,0.928760310077,0.0,0.0,0.0,0.0,0.0,0.0,0.0,0.0,0.0,-0.00720366167993,-0.00830683256843,-0.00275671675617,0.0,0.0,0.0,0.0,0.0,0.0,0.0,0.0,0.0,5.96929219807,-0.050559418903,7.64265201772,0.0,0.0,0.0,0.0,0.0,0.0,0.0,0.0,0.0
133976000000,119,133976000000,imu_link,-0.00135254954474,-0.370579456536,0.00921032547842,0.928754115419,0.0,0.0,0.0,0.0,0.0,0.0,0.0,0.0,0.0,-0.0074657368265,-0.00839751346993,-0.00266991424668,0.0,0.0,0.0,0.0,0.0,0.0,0.0,0.0,0.0,5.97284416291,-0.0507039133639,7.6420264134,0.0,0.0,0.0,0.0,0.0,0.0,0.0,0.0,0.0
133980000000,120,133980000000,imu_link,-0.00136476208128,-0.370595509819,0.00919990250074,0.928747795325,0.0,0.0,0.0,0.0,0.0,0.0,0.0,0.0,0.0,-0.00768069459441,-0.00856253538966,-0.00255908549945,0.0,0.0,0.0,0.0,0.0,0.0,0.0,0.0,0.0,5.97625899441,-0.0508454983066,7.6405467722,0.0,0.0,0.0,0.0,0.0,0.0,0.0,0.0,0.0
133984000000,121,133984000000,imu_link,-0.0013775124166,-0.370611789452,0.00918954563179,0.928741382856,0.0,0.0,0.0,0.0,0.0,0.0,0.0,0.0,0.0,-0.00791928873949,-0.00868233424035,-0.00242846296387,0.0,0.0,0.0,0.0,0.0,0.0,0.0,0.0,0.0,5.97940630491,-0.0509590067666,7.63670278247,0.0,0.0,0.0,0.0,0.0,0.0,0.0,0.0,0.0
133988000000,122,133988000000,imu_link,-0.00139076919695,-0.370628201664,0.00917927518128,0.928734915248,0.0,0.0,0.0,0.0,0.0,0.0,0.0,0.0,0.0,-0.00813910026861,-0.00875185049722,-0.00229432347836,0.0,0.0,0.0,0.0,0.0,0.0,0.0,0.0,0.0,5.98221829955,-0.0510824820106,7.63197908169,0.0,0.0,0.0,0.0,0.0,0.0,0.0,0.0,0.0
133992000000,123,133992000000,imu_link,-0.00140435426972,-0.370644785567,0.00916914203406,0.928728376629,0.0,0.0,0.0,0.0,0.0,0.0,0.0,0.0,0.0,-0.00826694173184,-0.00884332628902,-0.00216952056919,0.0,0.0,0.0,0.0,0.0,0.0,0.0,0.0,0.0,5.98584366804,-0.0512292994916,7.63068676331,0.0,0.0,0.0,0.0,0.0,0.0,0.0,0.0,0.0
133996000000,124,133996000000,imu_link,-0.00141800743279,-0.370661557137,0.00915920844226,0.928721760387,0.0,0.0,0.0,0.0,0.0,0.0,0.0,0.0,0.0,-0.00826249322006,-0.00894468546637,-0.00206401143025,0.0,0.0,0.0,0.0,0.0,0.0,0.0,0.0,0.0,5.98809654848,-0.0513339926204,7.62609172687,0.0,0.0,0.0,0.0,0.0,0.0,0.0,0.0,0.0
134000000000,125,134000000000,imu_link,-0.00143169900182,-0.37067838374,0.0091494540338,0.928715119699,0.0,0.0,0.0,0.0,0.0,0.0,0.0,0.0,0.0,-0.00824738861716,-0.00897472207034,-0.00197361494807,0.0,0.0,0.0,0.0,0.0,0.0,0.0,0.0,0.0,5.99046255004,-0.0513874714651,7.62047084171,0.0,0.0,0.0,0.0,0.0,0.0,0.0,0.0,0.0
134004000000,126,134004000000,imu_link,-0.00144539391039,-0.370695157518,0.00913986548951,0.928708497801,0.0,0.0,0.0,0.0,0.0,0.0,0.0,0.0,0.0,-0.00821794311563,-0.00894681354198,-0.00189602386969,0.0,0.0,0.0,0.0,0.0,0.0,0.0,0.0,0.0,5.99313224796,-0.0514615779586,7.61556629624,0.0,0.0,0.0,0.0,0.0,0.0,0.0,0.0,0.0
134008000000,127,134008000000,imu_link,-0.00145898665246,-0.370711838674,0.00913046265972,0.928701910559,0.0,0.0,0.0,0.0,0.0,0.0,0.0,0.0,0.0,-0.0081356316117,-0.00889798122347,-0.00182881430545,0.0,0.0,0.0,0.0,0.0,0.0,0.0,0.0,0.0,5.9960952677,-0.0515044274117,7.61193662402,0.0,0.0,0.0,0.0,0.0,0.0,0.0,0.0,0.0
134012000000,128,134012000000,imu_link,-0.00147238639368,-0.370728616472,0.00912126268563,0.928695282412,0.0,0.0,0.0,0.0,0.0,0.0,0.0,0.0,0.0,-0.00800888201742,-0.00895146911873,-0.00177027566726,0.0,0.0,0.0,0.0,0.0,0.0,0.0,0.0,0.0,5.9998214042,-0.0515255028809,7.61213747008,0.0,0.0,0.0,0.0,0.0,0.0,0.0,0.0,0.0
134016000000,129,134016000000,imu_link,-0.00148519662558,-0.370745587646,0.00911231568539,0.928688574892,0.0,0.0,0.0,0.0,0.0,0.0,0.0,0.0,0.0,-0.00768919277432,-0.00905884988994,-0.00176186222203,0.0,0.0,0.0,0.0,0.0,0.0,0.0,0.0,0.0,6.00222457794,-0.0515230003241,7.60879261679,0.0,0.0,0.0,0.0,0.0,0.0,0.0,0.0,0.0
134020000000,130,134020000000,imu_link,-0.00149692480654,-0.370762914997,0.00910368859309,0.928681723161,0.0,0.0,0.0,0.0,0.0,0.0,0.0,0.0,0.0,-0.00712917626172,-0.00925613864274,-0.00181350505099,0.0,0.0,0.0,0.0,0.0,0.0,0.0,0.0,0.0,6.00630841319,-0.0514970457501,7.60976533001,0.0,0.0,0.0,0.0,0.0,0.0,0.0,0.0,0.0
134024000000,131,134024000000,imu_link,-0.00150724636217,-0.370780786234,0.00909540585599,0.928674652589,0.0,0.0,0.0,0.0,0.0,0.0,0.0,0.0,0.0,-0.00641482505803,-0.00955591720712,-0.00191378005639,0.0,0.0,0.0,0.0,0.0,0.0,0.0,0.0,0.0,6.01079424753,-0.0514355805339,7.61173885657,0.0,0.0,0.0,0.0,0.0,0.0,0.0,0.0,0.0
134028000000,132,134028000000,imu_link,-0.00151602327135,-0.370799415232,0.00908748434467,0.928667277858,0.0,0.0,0.0,0.0,0.0,0.0,0.0,0.0,0.0,-0.00563429556181,-0.00997145902499,-0.00203159990545,0.0,0.0,0.0,0.0,0.0,0.0,0.0,0.0,0.0,6.01337811016,-0.0513038585696,7.60931148878,0.0,0.0,0.0,0.0,0.0,0.0,0.0,0.0,0.0
134032000000,133,134032000000,imu_link,-0.00152314773694,-0.370818942139,0.00907993870381,0.928659543043,0.0,0.0,0.0,0.0,0.0,0.0,0.0,0.0,0.0,-0.00480167695079,-0.0104629405634,-0.00216247766234,0.0,0.0,0.0,0.0,0.0,0.0,0.0,0.0,0.0,6.01620238169,-0.0511766609747,7.60669057473,0.0,0.0,0.0,0.0,0.0,0.0,0.0,0.0,0.0
134036000000,134,134036000000,imu_link,-0.00152866274032,-0.370839461453,0.00907277450693,0.928651410262,0.0,0.0,0.0,0.0,0.0,0.0,0.0,0.0,0.0,-0.0039884409889,-0.0110051293124,-0.0022827204358,0.0,0.0,0.0,0.0,0.0,0.0,0.0,0.0,0.0,6.01902703818,-0.0510489897128,7.6040763278,0.0,0.0,0.0,0.0,0.0,0.0,0.0,0.0,0.0
134040000000,135,134040000000,imu_link,-0.00153275482359,-0.370860964582,0.00906600344274,0.928642882487,0.0,0.0,0.0,0.0,0.0,0.0,0.0,0.0,0.0,-0.00325961291434,-0.0115419344056,-0.00236297640438,0.0,0.0,0.0,0.0,0.0,0.0,0.0,0.0,0.0,6.02174003967,-0.0509108988051,7.60065703189,0.0,0.0,0.0,0.0,0.0,0.0,0.0,0.0,0.0
134044000000,136,134044000000,imu_link,-0.00153578454779,-0.370883256858,0.00905961263118,0.928634036942,0.0,0.0,0.0,0.0,0.0,0.0,0.0,0.0,0.0,-0.00269964712819,-0.0119723841842,-0.0023825750417,0.0,0.0,0.0,0.0,0.0,0.0,0.0,0.0,0.0,6.02541790011,-0.0507999997207,7.59789172488,0.0,0.0,0.0,0.0,0.0,0.0,0.0,0.0,0.0
134048000000,137,134048000000,imu_link,-0.00153797612071,-0.370905799087,0.00905357550485,0.92862508883,0.0,0.0,0.0,0.0,0.0,0.0,0.0,0.0,0.0,-0.0022461022595,-0.0121115296183,-0.00237350843308,0.0,0.0,0.0,0.0,0.0,0.0,0.0,0.0,0.0,6.02919895682,-0.0507812508775,7.59257947751,0.0,0.0,0.0,0.0,0.0,0.0,0.0,0.0,0.0
134052000000,138,134052000000,imu_link,-0.00153947693674,-0.3709279335,0.00904786740134,0.928616300878,0.0,0.0,0.0,0.0,0.0,0.0,0.0,0.0,0.0,-0.00186238767811,-0.0118958535505,-0.00234925328786,0.0,0.0,0.0,0.0,0.0,0.0,0.0,0.0,0.0,6.03310356712,-0.0508081541957,7.58704994201,0.0,0.0,0.0,0.0,0.0,0.0,0.0,0.0,0.0
134056000000,139,134056000000,imu_link,-0.00154029401749,-0.370949422503,0.00904248247024,0.928607768086,0.0,0.0,0.0,0.0,0.0,0.0,0.0,0.0,0.0,-0.00148187077452,-0.0115522028744,-0.00232666749143,0.0,0.0,0.0,0.0,0.0,0.0,0.0,0.0,0.0,6.03486934792,-0.0507895863058,7.58022693607,0.0,0.0,0.0,0.0,0.0,0.0,0.0,0.0,0.0
134060000000,140,134060000000,imu_link,-0.00154062867281,-0.370970570013,0.00903733862535,0.928599369566,0.0,0.0,0.0,0.0,0.0,0.0,0.0,0.0,0.0,-0.0012115160052,-0.0113711100341,-0.00230455201891,0.0,0.0,0.0,0.0,0.0,0.0,0.0,0.0,0.0,6.03752073542,-0.0507008791947,7.57962073285,0.0,0.0,0.0,0.0,0.0,0.0,0.0,0.0,0.0
134064000000,141,134064000000,imu_link,-0.00154070736666,-0.37099207082,0.00903233922304,0.928590828329,0.0,0.0,0.0,0.0,0.0,0.0,0.0,0.0,0.0,-0.00106758756138,-0.0115628847671,-0.00228459172186,0.0,0.0,0.0,0.0,0.0,0.0,0.0,0.0,0.0,6.04055235096,-0.0506700874445,7.58272407824,0.0,0.0,0.0,0.0,0.0,0.0,0.0,0.0,0.0
134068000000,142,134068000000,imu_link,-0.00154068512732,-0.371014379674,0.00902747374575,0.928581962501,0.0,0.0,0.0,0.0,0.0,0.0,0.0,0.0,0.0,-0.000999781517078,-0.0119988268984,-0.00224029022894,0.0,0.0,0.0,0.0,0.0,0.0,0.0,0.0,0.0,6.04400108917,-0.0507682153945,7.58496223666,0.0,0.0,0.0,0.0,0.0,0.0,0.0,0.0,0.0
134072000000,143,134072000000,imu_link,-0.00154099292408,-0.371037618506,0.00902267760548,0.928572723207,0.0,0.0,0.0,0.0,0.0,0.0,0.0,0.0,0.0,-0.00114463715608,-0.0124984514991,-0.00214590427474,0.0,0.0,0.0,0.0,0.0,0.0,0.0,0.0,0.0,6.04677327677,-0.0508821622885,7.58338003277,0.0,0.0,0.0,0.0,0.0,0.0,0.0,0.0,0.0
134076000000,144,134076000000,imu_link,-0.00154206201631,-0.371061792701,0.00901787068466,0.928563108276,0.0,0.0,0.0,0.0,0.0,0.0,0.0,0.0,0.0,-0.0015046054237,-0.012998972747,-0.00200870098332,0.0,0.0,0.0,0.0,0.0,0.0,0.0,0.0,0.0,6.04915173797,-0.0510584018962,7.57988378917,0.0,0.0,0.0,0.0,0.0,0.0,0.0,0.0,0.0
134080000000,145,134080000000,imu_link,-0.00154396936838,-0.371086994645,0.00901300413235,0.928553081046,0.0,0.0,0.0,0.0,0.0,0.0,0.0,0.0,0.0,-0.00190980943711,-0.0135488062847,-0.00187979708564,0.0,0.0,0.0,0.0,0.0,0.0,0.0,0.0,0.0,6.05093711912,-0.0513352908433,7.57534382055,0.0,0.0,0.0,0.0,0.0,0.0,0.0,0.0,0.0
134084000000,146,134084000000,imu_link,-0.00154630157185,-0.37111356997,0.00900816457861,0.928542503123,0.0,0.0,0.0,0.0,0.0,0.0,0.0,0.0,0.0,-0.00210866284084,-0.0142867187952,-0.00178701239272,0.0,0.0,0.0,0.0,0.0,0.0,0.0,0.0,0.0,6.05383369136,-0.0517058696015,7.57529725713,0.0,0.0,0.0,0.0,0.0,0.0,0.0,0.0,0.0
134088000000,147,134088000000,imu_link,-0.00154847606633,-0.371141497694,0.00900347324356,0.92853138255,0.0,0.0,0.0,0.0,0.0,0.0,0.0,0.0,0.0,-0.00201445096643,-0.0150161158195,-0.0017460641561,0.0,0.0,0.0,0.0,0.0,0.0,0.0,0.0,0.0,6.05782877416,-0.0520432156966,7.57509037033,0.0,0.0,0.0,0.0,0.0,0.0,0.0,0.0,0.0
134092000000,148,134092000000,imu_link,-0.00155031587859,-0.371170438586,0.00899896201768,0.928519854781,0.0,0.0,0.0,0.0,0.0,0.0,0.0,0.0,0.0,-0.00183052279026,-0.0155637051136,-0.00172350422503,0.0,0.0,0.0,0.0,0.0,0.0,0.0,0.0,0.0,6.06078147761,-0.052236952285,7.56975223821,0.0,0.0,0.0,0.0,0.0,0.0,0.0,0.0,0.0
134096000000,149,134096000000,imu_link,-0.00155185692415,-0.371199791989,0.00899459447804,0.928508160135,0.0,0.0,0.0,0.0,0.0,0.0,0.0,0.0,0.0,-0.00166713677887,-0.0157876426283,-0.00171181203974,0.0,0.0,0.0,0.0,0.0,0.0,0.0,0.0,0.0,6.0641264268,-0.0523916161926,7.5633815838,0.0,0.0,0.0,0.0,0.0,0.0,0.0,0.0,0.0
134100000000,150,134100000000,imu_link,-0.00155324255264,-0.371229049073,0.00899032216078,0.928496502239,0.0,0.0,0.0,0.0,0.0,0.0,0.0,0.0,0.0,-0.00157684881662,-0.0157368782187,-0.00169654059363,0.0,0.0,0.0,0.0,0.0,0.0,0.0,0.0,0.0,6.06580007121,-0.0524748874361,7.55430439304,0.0,0.0,0.0,0.0,0.0,0.0,0.0,0.0,0.0
134104000000,151,134104000000,imu_link,-0.00155431677525,-0.371258017857,0.00898615616375,0.928484958022,0.0,0.0,0.0,0.0,0.0,0.0,0.0,0.0,0.0,-0.00141116035995,-0.0155834174178,-0.00170527018073,0.0,0.0,0.0,0.0,0.0,0.0,0.0,0.0,0.0,6.06707889861,-0.0525923284809,7.54712921723,0.0,0.0,0.0,0.0,0.0,0.0,0.0,0.0,0.0
134108000000,152,134108000000,imu_link,-0.00155463346957,-0.371286514189,0.00898215911935,0.928473601301,0.0,0.0,0.0,0.0,0.0,0.0,0.0,0.0,0.0,-0.00102585256586,-0.0153328154165,-0.00176792967914,0.0,0.0,0.0,0.0,0.0,0.0,0.0,0.0,0.0,6.06915979461,-0.0527400486261,7.5420269704,0.0,0.0,0.0,0.0,0.0,0.0,0.0,0.0,0.0
134112000000,153,134112000000,imu_link,-0.00155401093708,-0.371314387155,0.00897837432611,0.928462492369,0.0,0.0,0.0,0.0,0.0,0.0,0.0,0.0,0.0,-0.00054743371915,-0.0150018090388,-0.00184438428854,0.0,0.0,0.0,0.0,0.0,0.0,0.0,0.0,0.0,6.07096345884,-0.0527806934185,7.5365979285,0.0,0.0,0.0,0.0,0.0,0.0,0.0,0.0,0.0
134116000000,154,134116000000,imu_link,-0.00155245822699,-0.371341637475,0.00897481784811,0.928451630832,0.0,0.0,0.0,0.0,0.0,0.0,0.0,0.0,0.0,-7.02404469764e-05,-0.0146711794773,-0.00191171418844,0.0,0.0,0.0,0.0,0.0,0.0,0.0,0.0,0.0,6.07238332479,-0.0527944616853,7.53175343888,0.0,0.0,0.0,0.0,0.0,0.0,0.0,0.0,0.0
134120000000,155,134120000000,imu_link,-0.00155000217076,-0.371368468678,0.00897149974899,0.928440935201,0.0,0.0,0.0,0.0,0.0,0.0,0.0,0.0,0.0,0.000395385685184,-0.014450049259,-0.00196919673453,0.0,0.0,0.0,0.0,0.0,0.0,0.0,0.0,0.0,6.07502427112,-0.0528712802606,7.53121818465,0.0,0.0,0.0,0.0,0.0,0.0,0.0,0.0,0.0
134124000000,156,134124000000,imu_link,-0.00154669108791,-0.371395071276,0.00896837076249,0.928430329699,0.0,0.0,0.0,0.0,0.0,0.0,0.0,0.0,0.0,0.000828517092377,-0.014331172861,-0.00204039887015,0.0,0.0,0.0,0.0,0.0,0.0,0.0,0.0,0.0,6.07751732856,-0.0529399720719,7.53012467844,0.0,0.0,0.0,0.0,0.0,0.0,0.0,0.0,0.0
134128000000,157,134128000000,imu_link,-0.00154251814117,-0.371421547516,0.00896538980609,0.928419773844,0.0,0.0,0.0,0.0,0.0,0.0,0.0,0.0,0.0,0.0012567012109,-0.0142672752143,-0.00213185196555,0.0,0.0,0.0,0.0,0.0,0.0,0.0,0.0,0.0,6.07992575921,-0.0530271781989,7.52831372964,0.0,0.0,0.0,0.0,0.0,0.0,0.0,0.0,0.0
134132000000,158,134132000000,imu_link,-0.00153752333447,-0.371447797763,0.00896253195514,0.928409307676,0.0,0.0,0.0,0.0,0.0,0.0,0.0,0.0,0.0,0.00166216096388,-0.0141494905506,-0.00222756119076,0.0,0.0,0.0,0.0,0.0,0.0,0.0,0.0,0.0,6.08166981739,-0.0530934003615,7.52379538146,0.0,0.0,0.0,0.0,0.0,0.0,0.0,0.0,0.0
134136000000,159,134136000000,imu_link,-0.0015317653315,-0.371473729168,0.00895978686342,0.92839896836,0.0,0.0,0.0,0.0,0.0,0.0,0.0,0.0,0.0,0.00203890865242,-0.0139814296712,-0.00231728495842,0.0,0.0,0.0,0.0,0.0,0.0,0.0,0.0,0.0,6.08338141898,-0.0531842464433,7.51874892214,0.0,0.0,0.0,0.0,0.0,0.0,0.0,0.0,0.0
134140000000,160,134140000000,imu_link,-0.00152539085566,-0.371499136388,0.00895710848933,0.928388838285,0.0,0.0,0.0,0.0,0.0,0.0,0.0,0.0,0.0,0.00233997550347,-0.0137020523805,-0.00240135232344,0.0,0.0,0.0,0.0,0.0,0.0,0.0,0.0,0.0,6.08569364042,-0.0532758231794,7.51408150948,0.0,0.0,0.0,0.0,0.0,0.0,0.0,0.0,0.0
134144000000,161,134144000000,imu_link,-0.00151837774642,-0.371523835919,0.00895446245994,0.928378991293,0.0,0.0,0.0,0.0,0.0,0.0,0.0,0.0,0.0,0.00264581891195,-0.0133238493693,-0.00250569201962,0.0,0.0,0.0,0.0,0.0,0.0,0.0,0.0,0.0,6.08824273869,-0.0534015295555,7.51016698767,0.0,0.0,0.0,0.0,0.0,0.0,0.0,0.0,0.0
134148000000,162,134148000000,imu_link,-0.0015105858404,-0.371547758175,0.00895180694792,0.928369455916,0.0,0.0,0.0,0.0,0.0,0.0,0.0,0.0,0.0,0.00300928329647,-0.0129086397967,-0.00265556961199,0.0,0.0,0.0,0.0,0.0,0.0,0.0,0.0,0.0,6.09162398865,-0.0535087525596,7.50911918035,0.0,0.0,0.0,0.0,0.0,0.0,0.0,0.0,0.0
134152000000,163,134152000000,imu_link,-0.00150202497504,-0.371570968797,0.00894912559774,0.928360206072,0.0,0.0,0.0,0.0,0.0,0.0,0.0,0.0,0.0,0.00336482328847,-0.0125286884382,-0.00281115638419,0.0,0.0,0.0,0.0,0.0,0.0,0.0,0.0,0.0,6.09422712098,-0.0535273777318,7.50730310318,0.0,0.0,0.0,0.0,0.0,0.0,0.0,0.0,0.0
134156000000,164,134156000000,imu_link,-0.00149275064589,-0.371593860966,0.00894640454549,0.928351084468,0.0,0.0,0.0,0.0,0.0,0.0,0.0,0.0,0.0,0.00369014416353,-0.0123602057506,-0.00296247116299,0.0,0.0,0.0,0.0,0.0,0.0,0.0,0.0,0.0,6.09664518828,-0.0535421617882,7.50733746482,0.0,0.0,0.0,0.0,0.0,0.0,0.0,0.0,0.0
134160000000,165,134160000000,imu_link,-0.00148285878398,-0.371616819879,0.00894366257824,0.92834193658,0.0,0.0,0.0,0.0,0.0,0.0,0.0,0.0,0.0,0.00397258365315,-0.0123988173201,-0.00308684732397,0.0,0.0,0.0,0.0,0.0,0.0,0.0,0.0,0.0,6.09956374623,-0.0536608461643,7.50870686565,0.0,0.0,0.0,0.0,0.0,0.0,0.0,0.0,0.0
134164000000,166,134164000000,imu_link,-0.00147252224633,-0.371639985989,0.00894094270843,0.928332705465,0.0,0.0,0.0,0.0,0.0,0.0,0.0,0.0,0.0,0.00418210684688,-0.0125124612224,-0.00315899627513,0.0,0.0,0.0,0.0,0.0,0.0,0.0,0.0,0.0,6.10233414322,-0.0538425107977,7.50811634863,0.0,0.0,0.0,0.0,0.0,0.0,0.0,0.0,0.0
134168000000,167,134168000000,imu_link,-0.00146205045351,-0.371663383551,0.00893828211349,0.928323380535,0.0,0.0,0.0,0.0,0.0,0.0,0.0,0.0,0.0,0.00425479843376,-0.0126379743817,-0.00315636700482,0.0,0.0,0.0,0.0,0.0,0.0,0.0,0.0,0.0,6.10501639137,-0.0539972910735,7.50633815197,0.0,0.0,0.0,0.0,0.0,0.0,0.0,0.0,0.0
134172000000,168,134172000000,imu_link,-0.00145199605567,-0.371686948252,0.00893565272182,0.928313986923,0.0,0.0,0.0,0.0,0.0,0.0,0.0,0.0,0.0,0.00406606105819,-0.0127264744749,-0.00306413365997,0.0,0.0,0.0,0.0,0.0,0.0,0.0,0.0,0.0,6.10806375026,-0.0541466983193,7.50486781024,0.0,0.0,0.0,0.0,0.0,0.0,0.0,0.0,0.0
134176000000,169,134176000000,imu_link,-0.00144296892533,-0.37171070559,0.00893296881524,0.928304514294,0.0,0.0,0.0,0.0,0.0,0.0,0.0,0.0,0.0,0.0035781983812,-0.0128259443576,-0.00289831298779,0.0,0.0,0.0,0.0,0.0,0.0,0.0,0.0,0.0,6.11091877843,-0.0543318588877,7.5035743563,0.0,0.0,0.0,0.0,0.0,0.0,0.0,0.0,0.0
134180000000,170,134180000000,imu_link,-0.00143577961325,-0.371734639464,0.00893010263947,0.928294969084,0.0,0.0,0.0,0.0,0.0,0.0,0.0,0.0,0.0,0.00269045432542,-0.0129130331563,-0.00264114847674,0.0,0.0,0.0,0.0,0.0,0.0,0.0,0.0,0.0,6.11480730551,-0.0545756532514,7.50423544804,0.0,0.0,0.0,0.0,0.0,0.0,0.0,0.0,0.0
134184000000,171,134184000000,imu_link,-0.00143091241575,-0.371758495801,0.00892701051555,0.928285452742,0.0,0.0,0.0,0.0,0.0,0.0,0.0,0.0,0.0,0.00157102123804,-0.0128611481113,-0.00231448976049,0.0,0.0,0.0,0.0,0.0,0.0,0.0,0.0,0.0,6.1173369396,-0.0549972844844,7.49990703897,0.0,0.0,0.0,0.0,0.0,0.0,0.0,0.0,0.0
134188000000,172,134188000000,imu_link,-0.00142819117706,-0.37178191605,0.00892374262105,0.928276108701,0.0,0.0,0.0,0.0,0.0,0.0,0.0,0.0,0.0,0.000544387716592,-0.0126170096492,-0.00199764025057,0.0,0.0,0.0,0.0,0.0,0.0,0.0,0.0,0.0,6.12000504868,-0.0555951193356,7.49503518558,0.0,0.0,0.0,0.0,0.0,0.0,0.0,0.0,0.0
134192000000,173,134192000000,imu_link,-0.00142716474093,-0.371804561265,0.00892040233761,0.928267072477,0.0,0.0,0.0,0.0,0.0,0.0,0.0,0.0,0.0,-0.000252013178838,-0.0121924527594,-0.00171701023523,0.0,0.0,0.0,0.0,0.0,0.0,0.0,0.0,0.0,6.12329561075,-0.0561563630833,7.49202546098,0.0,0.0,0.0,0.0,0.0,0.0,0.0,0.0,0.0
134196000000,174,134196000000,imu_link,-0.00142703720973,-0.371826356186,0.00891711645522,0.928258374293,0.0,0.0,0.0,0.0,0.0,0.0,0.0,0.0,0.0,-0.000655078126895,-0.011730990313,-0.00152555337106,0.0,0.0,0.0,0.0,0.0,0.0,0.0,0.0,0.0,6.1264156299,-0.056652968693,7.49116067451,0.0,0.0,0.0,0.0,0.0,0.0,0.0,0.0,0.0
134200000000,175,134200000000,imu_link,-0.00142697618479,-0.371847484002,0.00891400063038,0.928249941004,0.0,0.0,0.0,0.0,0.0,0.0,0.0,0.0,0.0,-0.000651166350467,-0.0113719443315,-0.00143496536827,0.0,0.0,0.0,0.0,0.0,0.0,0.0,0.0,0.0,6.12965121456,-0.0570334780145,7.49248221359,0.0,0.0,0.0,0.0,0.0,0.0,0.0,0.0,0.0
134204000000,176,134204000000,imu_link,-0.00142652037688,-0.371868212399,0.00891110560199,0.928241665647,0.0,0.0,0.0,0.0,0.0,0.0,0.0,0.0,0.0,-0.00042499352296,-0.0111591181777,-0.00140630667858,0.0,0.0,0.0,0.0,0.0,0.0,0.0,0.0,0.0,6.13126776304,-0.0572449230727,7.49047294038,0.0,0.0,0.0,0.0,0.0,0.0,0.0,0.0,0.0
134208000000,177,134208000000,imu_link,-0.00142566116541,-0.371888660062,0.00890841037394,0.928233500921,0.0,0.0,0.0,0.0,0.0,0.0,0.0,0.0,0.0,-0.000199286086768,-0.0110101928776,-0.00138887434094,0.0,0.0,0.0,0.0,0.0,0.0,0.0,0.0,0.0,6.13359122453,-0.0573574371768,7.48892263853,0.0,0.0,0.0,0.0,0.0,0.0,0.0,0.0,0.0
134212000000,178,134212000000,imu_link,-0.00142469343435,-0.37190876207,0.00890586551299,0.92822547288,0.0,0.0,0.0,0.0,0.0,0.0,0.0,0.0,0.0,-0.000119323374768,-0.0108249441269,-0.00133962748096,0.0,0.0,0.0,0.0,0.0,0.0,0.0,0.0,0.0,6.13629525041,-0.0574571345277,7.48656040218,0.0,0.0,0.0,0.0,0.0,0.0,0.0,0.0,0.0
134216000000,179,134216000000,imu_link,-0.00142403646935,-0.371928535332,0.00890342745526,0.928217574551,0.0,0.0,0.0,0.0,0.0,0.0,0.0,0.0,0.0,-0.000242137044202,-0.0106469402103,-0.00123261385654,0.0,0.0,0.0,0.0,0.0,0.0,0.0,0.0,0.0,6.138325013,-0.0575486984863,7.48358356887,0.0,0.0,0.0,0.0,0.0,0.0,0.0,0.0,0.0
134220000000,180,134220000000,imu_link,-0.00142384312059,-0.37194840469,0.00890108712484,0.928209635571,0.0,0.0,0.0,0.0,0.0,0.0,0.0,0.0,0.0,-0.000439588366714,-0.0106971043771,-0.00110092915156,0.0,0.0,0.0,0.0,0.0,0.0,0.0,0.0,0.0,6.14034911619,-0.0577360983969,7.48359213727,0.0,0.0,0.0,0.0,0.0,0.0,0.0,0.0,0.0
134224000000,181,134224000000,imu_link,-0.00142395674042,-0.371969098527,0.00889887638198,0.928201363976,0.0,0.0,0.0,0.0,0.0,0.0,0.0,0.0,0.0,-0.000561860196939,-0.0111403331333,-0.000982805353719,0.0,0.0,0.0,0.0,0.0,0.0,0.0,0.0,0.0,6.14386598327,-0.0579981975863,7.48924369492,0.0,0.0,0.0,0.0,0.0,0.0,0.0,0.0,0.0
134228000000,182,134228000000,imu_link,-0.00142405842456,-0.371990926587,0.00889682906289,0.928192635732,0.0,0.0,0.0,0.0,0.0,0.0,0.0,0.0,0.0,-0.000531298327424,-0.0117518263894,-0.000907955828278,0.0,0.0,0.0,0.0,0.0,0.0,0.0,0.0,0.0,6.1458413721,-0.058264534045,7.48806687466,0.0,0.0,0.0,0.0,0.0,0.0,0.0,0.0,0.0
134232000000,183,134232000000,imu_link,-0.00142402336492,-0.372013872564,0.00889492249451,0.928183457691,0.0,0.0,0.0,0.0,0.0,0.0,0.0,0.0,0.0,-0.000446950270536,-0.0123550157716,-0.000866862775252,0.0,0.0,0.0,0.0,0.0,0.0,0.0,0.0,0.0,6.14796592053,-0.0584580051201,7.48454506929,0.0,0.0,0.0,0.0,0.0,0.0,0.0,0.0,0.0
134236000000,184,134236000000,imu_link,-0.00142377159287,-0.372037603485,0.00889312007039,0.928173963696,0.0,0.0,0.0,0.0,0.0,0.0,0.0,0.0,0.0,-0.00033072024687,-0.0127791095536,-0.000857993990521,0.0,0.0,0.0,0.0,0.0,0.0,0.0,0.0,0.0,6.1497048593,-0.0585755021809,7.47775716302,0.0,0.0,0.0,0.0,0.0,0.0,0.0,0.0,0.0
134240000000,185,134240000000,imu_link,-0.00142346043163,-0.372061684081,0.00889131782971,0.928164328913,0.0,0.0,0.0,0.0,0.0,0.0,0.0,0.0,0.0,-0.000304779452838,-0.0129678423689,-0.000868579271235,0.0,0.0,0.0,0.0,0.0,0.0,0.0,0.0,0.0,6.15236813999,-0.0586179337505,7.47246415613,0.0,0.0,0.0,0.0,0.0,0.0,0.0,0.0,0.0
134244000000,186,134244000000,imu_link,-0.00142350916552,-0.372086038882,0.00888941244805,0.928154583912,0.0,0.0,0.0,0.0,0.0,0.0,0.0,0.0,0.0,-0.000492285233724,-0.0131139268599,-0.000849198739389,0.0,0.0,0.0,0.0,0.0,0.0,0.0,0.0,0.0,6.15459975136,-0.0586240973964,7.46936015313,0.0,0.0,0.0,0.0,0.0,0.0,0.0,0.0,0.0
134248000000,187,134248000000,imu_link,-0.00142431276162,-0.372110812334,0.00888735751984,0.928144670595,0.0,0.0,0.0,0.0,0.0,0.0,0.0,0.0,0.0,-0.000872402320401,-0.0133360657532,-0.000777712908768,0.0,0.0,0.0,0.0,0.0,0.0,0.0,0.0,0.0,6.15673092483,-0.0587042185135,7.46788586699,0.0,0.0,0.0,0.0,0.0,0.0,0.0,0.0,0.0
134252000000,188,134252000000,imu_link,-0.00142608475019,-0.37213620353,0.00888514985191,0.928134508795,0.0,0.0,0.0,0.0,0.0,0.0,0.0,0.0,0.0,-0.00135314653199,-0.0136645628301,-0.000667756289697,0.0,0.0,0.0,0.0,0.0,0.0,0.0,0.0,0.0,6.15901577076,-0.0589372078904,7.46739360192,0.0,0.0,0.0,0.0,0.0,0.0,0.0,0.0,0.0
134256000000,189,134256000000,imu_link,-0.00142873975186,-0.372162174943,0.00888280107119,0.928124113516,0.0,0.0,0.0,0.0,0.0,0.0,0.0,0.0,0.0,-0.00179192472963,-0.0139732424198,-0.000568318006595,0.0,0.0,0.0,0.0,0.0,0.0,0.0,0.0,0.0,6.15973088664,-0.0592734642269,7.46161635652,0.0,0.0,0.0,0.0,0.0,0.0,0.0,0.0,0.0
134260000000,190,134260000000,imu_link,-0.00143199018148,-0.372188455651,0.00888035911179,0.92811359332,0.0,0.0,0.0,0.0,0.0,0.0,0.0,0.0,0.0,-0.00208704198058,-0.0141373078691,-0.000500426969572,0.0,0.0,0.0,0.0,0.0,0.0,0.0,0.0,0.0,6.1612194106,-0.0596123446138,7.45563328824,0.0,0.0,0.0,0.0,0.0,0.0,0.0,0.0,0.0
134264000000,191,134264000000,imu_link,-0.00143549639188,-0.372214829382,0.00887785228833,0.928103035162,0.0,0.0,0.0,0.0,0.0,0.0,0.0,0.0,0.0,-0.00221824983058,-0.0141863583457,-0.000482826292247,0.0,0.0,0.0,0.0,0.0,0.0,0.0,0.0,0.0,6.1632396744,-0.0598965206453,7.45151066824,0.0,0.0,0.0,0.0,0.0,0.0,0.0,0.0,0.0
134268000000,192,134268000000,imu_link,-0.00143924832138,-0.372241227003,0.00887527081399,0.928092466865,0.0,0.0,0.0,0.0,0.0,0.0,0.0,0.0,0.0,-0.00234628256344,-0.0141981871843,-0.000471710139689,0.0,0.0,0.0,0.0,0.0,0.0,0.0,0.0,0.0,6.16477351661,-0.0600535104618,7.44747124407,0.0,0.0,0.0,0.0,0.0,0.0,0.0,0.0,0.0
134272000000,193,134272000000,imu_link,-0.00144340534235,-0.372267795472,0.00887256146046,0.928081829737,0.0,0.0,0.0,0.0,0.0,0.0,0.0,0.0,0.0,-0.00255887237576,-0.0142883895093,-0.000455473626203,0.0,0.0,0.0,0.0,0.0,0.0,0.0,0.0,0.0,6.16717727534,-0.0601849913948,7.44655139366,0.0,0.0,0.0,0.0,0.0,0.0,0.0,0.0,0.0
134276000000,194,134276000000,imu_link,-0.00144822422509,-0.372294597992,0.00886965910677,0.928071098623,0.0,0.0,0.0,0.0,0.0,0.0,0.0,0.0,0.0,-0.00290303333964,-0.0144114173859,-0.000421590650306,0.0,0.0,0.0,0.0,0.0,0.0,0.0,0.0,0.0,6.16882116569,-0.0603363597935,7.44297375573,0.0,0.0,0.0,0.0,0.0,0.0,0.0,0.0,0.0
134280000000,195,134280000000,imu_link,-0.00145393360024,-0.372321342108,0.00886651027162,0.928060390968,0.0,0.0,0.0,0.0,0.0,0.0,0.0,0.0,0.0,-0.00336185933228,-0.0143758215852,-0.000370265795565,0.0,0.0,0.0,0.0,0.0,0.0,0.0,0.0,0.0,6.17035448998,-0.0605072710263,7.43645790812,0.0,0.0,0.0,0.0,0.0,0.0,0.0,0.0,0.0
134284000000,196,134284000000,imu_link,-0.00146063961025,-0.372347548082,0.00886308636343,0.928049899343,0.0,0.0,0.0,0.0,0.0,0.0,0.0,0.0,0.0,-0.00387299301314,-0.0140812726044,-0.000312940282086,0.0,0.0,0.0,0.0,0.0,0.0,0.0,0.0,0.0,6.17334517242,-0.0607008030156,7.43218415098,0.0,0.0,0.0,0.0,0.0,0.0,0.0,0.0,0.0
134288000000,197,134288000000,imu_link,-0.00146818305381,-0.372373038427,0.00885942831047,0.928039694852,0.0,0.0,0.0,0.0,0.0,0.0,0.0,0.0,0.0,-0.00430179365315,-0.0136918641902,-0.000266430950745,0.0,0.0,0.0,0.0,0.0,0.0,0.0,0.0,0.0,6.17453796847,-0.0608803606961,7.42656101779,0.0,0.0,0.0,0.0,0.0,0.0,0.0,0.0,0.0
134292000000,198,134292000000,imu_link,-0.00147618109017,-0.372397990962,0.00885562461704,0.928029705952,0.0,0.0,0.0,0.0,0.0,0.0,0.0,0.0,0.0,-0.00453730941618,-0.0134000485657,-0.000249932165234,0.0,0.0,0.0,0.0,0.0,0.0,0.0,0.0,0.0,6.17772607686,-0.0611076904971,7.42812128178,0.0,0.0,0.0,0.0,0.0,0.0,0.0,0.0,0.0
134296000000,199,134296000000,imu_link,-0.00148417256461,-0.372422747979,0.00885177952653,0.928019795058,0.0,0.0,0.0,0.0,0.0,0.0,0.0,0.0,0.0,-0.00454104939419,-0.0132947995363,-0.000270563935628,0.0,0.0,0.0,0.0,0.0,0.0,0.0,0.0,0.0,6.1796359429,-0.0613140682143,7.42819190499,0.0,0.0,0.0,0.0,0.0,0.0,0.0,0.0,0.0
134300000000,200,134300000000,imu_link,-0.00149188114384,-0.372447400877,0.00884793989106,0.928009925502,0.0,0.0,0.0,0.0,0.0,0.0,0.0,0.0,0.0,-0.00440827592422,-0.0132400454313,-0.000320816742463,0.0,0.0,0.0,0.0,0.0,0.0,0.0,0.0,0.0,6.18111895417,-0.0614385640861,7.42548601909,0.0,0.0,0.0,0.0,0.0,0.0,0.0,0.0,0.0
134304000000,201,134304000000,imu_link,-0.00149926906097,-0.372471781197,0.00884412722244,0.928000164772,0.0,0.0,0.0,0.0,0.0,0.0,0.0,0.0,0.0,-0.00425317820344,-0.0130947408834,-0.000368296992127,0.0,0.0,0.0,0.0,0.0,0.0,0.0,0.0,0.0,6.18275665732,-0.0614711033966,7.42070153166,0.0,0.0,0.0,0.0,0.0,0.0,0.0,0.0,0.0
134308000000,202,134308000000,imu_link,-0.00150653280349,-0.372495635816,0.00884033282069,0.92799061427,0.0,0.0,0.0,0.0,0.0,0.0,0.0,0.0,0.0,-0.00418967694595,-0.0128122263098,-0.000383482483827,0.0,0.0,0.0,0.0,0.0,0.0,0.0,0.0,0.0,6.18471472111,-0.061474547487,7.41642177384,0.0,0.0,0.0,0.0,0.0,0.0,0.0,0.0,0.0
134312000000,203,134312000000,imu_link,-0.00151389288962,-0.372518850182,0.00883652777635,0.927981319943,0.0,0.0,0.0,0.0,0.0,0.0,0.0,0.0,0.0,-0.00423333909899,-0.0124670060091,-0.000371126868526,0.0,0.0,0.0,0.0,0.0,0.0,0.0,0.0,0.0,6.18657037097,-0.0615033654575,7.41319972935,0.0,0.0,0.0,0.0,0.0,0.0,0.0,0.0,0.0
134316000000,204,134316000000,imu_link,-0.00152145013721,-0.372541504752,0.00883266128147,0.927972249866,0.0,0.0,0.0,0.0,0.0,0.0,0.0,0.0,0.0,-0.00433362284585,-0.0121645797325,-0.00036348321864,0.0,0.0,0.0,0.0,0.0,0.0,0.0,0.0,0.0,6.18822095541,-0.0615818096462,7.41117933669,0.0,0.0,0.0,0.0,0.0,0.0,0.0,0.0,0.0
134320000000,205,134320000000,imu_link,-0.00152895766667,-0.372563650603,0.00882875384469,0.927963383784,0.0,0.0,0.0,0.0,0.0,0.0,0.0,0.0,0.0,-0.00431577874146,-0.0118907311636,-0.00039225464164,0.0,0.0,0.0,0.0,0.0,0.0,0.0,0.0,0.0,6.18977801348,-0.0617641059323,7.40844835094,0.0,0.0,0.0,0.0,0.0,0.0,0.0,0.0,0.0
134324000000,206,134324000000,imu_link,-0.00153600318274,-0.372585383754,0.00882488029855,0.927954683158,0.0,0.0,0.0,0.0,0.0,0.0,0.0,0.0,0.0,-0.00409315147666,-0.011670489763,-0.000463009591306,0.0,0.0,0.0,0.0,0.0,0.0,0.0,0.0,0.0,6.19139723529,-0.0619401916492,7.40594187545,0.0,0.0,0.0,0.0,0.0,0.0,0.0,0.0,0.0
134328000000,207,134328000000,imu_link,-0.00154225156007,-0.37260663574,0.00882109503901,0.927946175565,0.0,0.0,0.0,0.0,0.0,0.0,0.0,0.0,0.0,-0.00370457865006,-0.0114148643929,-0.000571029939655,0.0,0.0,0.0,0.0,0.0,0.0,0.0,0.0,0.0,6.19399153216,-0.0619692246667,7.40425835886,0.0,0.0,0.0,0.0,0.0,0.0,0.0,0.0,0.0
134332000000,208,134332000000,imu_link,-0.00154748246713,-0.372627569467,0.00881745422311,0.927937795476,0.0,0.0,0.0,0.0,0.0,0.0,0.0,0.0,0.0,-0.00320408748524,-0.0112480456957,-0.000693887009099,0.0,0.0,0.0,0.0,0.0,0.0,0.0,0.0,0.0,6.19745252863,-0.0618684687092,7.40629257791,0.0,0.0,0.0,0.0,0.0,0.0,0.0,0.0,0.0
134336000000,209,134336000000,imu_link,-0.00155177765196,-0.372648402682,0.0088139321004,0.927929455598,0.0,0.0,0.0,0.0,0.0,0.0,0.0,0.0,0.0,-0.00274735305262,-0.0111981365259,-0.000813254520262,0.0,0.0,0.0,0.0,0.0,0.0,0.0,0.0,0.0,6.19915998885,-0.0617158938236,7.40495828462,0.0,0.0,0.0,0.0,0.0,0.0,0.0,0.0,0.0
134340000000,210,134340000000,imu_link,-0.00155535287994,-0.372669305202,0.00881050747185,0.927921087591,0.0,0.0,0.0,0.0,0.0,0.0,0.0,0.0,0.0,-0.00239548019445,-0.0112387814233,-0.000902095865708,0.0,0.0,0.0,0.0,0.0,0.0,0.0,0.0,0.0,6.201162157,-0.0615718637591,7.40379444016,0.0,0.0,0.0,0.0,0.0,0.0,0.0,0.0,0.0
134344000000,211,134344000000,imu_link,-0.00155854609883,-0.372690137417,0.00880716607722,0.927912747101,0.0,0.0,0.0,0.0,0.0,0.0,0.0,0.0,0.0,-0.00220240257669,-0.0112027825283,-0.000934726685308,0.0,0.0,0.0,0.0,0.0,0.0,0.0,0.0,0.0,6.20343117912,-0.0615184384983,7.40099270535,0.0,0.0,0.0,0.0,0.0,0.0,0.0,0.0,0.0
134348000000,212,134348000000,imu_link,-0.00156182760026,-0.372710759871,0.00880388463286,0.927904489582,0.0,0.0,0.0,0.0,0.0,0.0,0.0,0.0,0.0,-0.00223120203464,-0.0110896596741,-0.000890663270408,0.0,0.0,0.0,0.0,0.0,0.0,0.0,0.0,0.0,6.20611872606,-0.0615374469667,7.39906394493,0.0,0.0,0.0,0.0,0.0,0.0,0.0,0.0,0.0
134352000000,213,134352000000,imu_link,-0.00156556025559,-0.372731049506,0.00880064667351,0.927896364026,0.0,0.0,0.0,0.0,0.0,0.0,0.0,0.0,0.0,-0.00243084412283,-0.0109087029342,-0.000786734335235,0.0,0.0,0.0,0.0,0.0,0.0,0.0,0.0,0.0,6.20861801111,-0.0616328291904,7.39690415331,0.0,0.0,0.0,0.0,0.0,0.0,0.0,0.0,0.0
134356000000,214,134356000000,imu_link,-0.00156997246205,-0.372750910442,0.00879741799755,0.927888408909,0.0,0.0,0.0,0.0,0.0,0.0,0.0,0.0,0.0,-0.00274237070589,-0.0106750624443,-0.000656196826467,0.0,0.0,0.0,0.0,0.0,0.0,0.0,0.0,0.0,6.20917869325,-0.0617858785472,7.39089763579,0.0,0.0,0.0,0.0,0.0,0.0,0.0,0.0,0.0
134364000000,215,134364000000,imu_link,-0.00158079722034,-0.372789700616,0.00879098520014,0.927872867786,0.0,0.0,0.0,0.0,0.0,0.0,0.0,0.0,0.0,-0.00334240033391,-0.0103989054247,-0.000401405512041,0.0,0.0,0.0,0.0,0.0,0.0,0.0,0.0,0.0,6.21261885064,-0.0622259519938,7.38814452648,0.0,0.0,0.0,0.0,0.0,0.0,0.0,0.0,0.0
134368000000,216,134368000000,imu_link,-0.00158706878444,-0.372809548879,0.00878782439156,0.927864912377,0.0,0.0,0.0,0.0,0.0,0.0,0.0,0.0,0.0,-0.00359229636604,-0.0106611150845,-0.000278147104333,0.0,0.0,0.0,0.0,0.0,0.0,0.0,0.0,0.0,6.21581946089,-0.0624688840911,7.39250954846,0.0,0.0,0.0,0.0,0.0,0.0,0.0,0.0,0.0
134372000000,217,134372000000,imu_link,-0.00159375403225,-0.372830163786,0.00878469970107,0.927856647317,0.0,0.0,0.0,0.0,0.0,0.0,0.0,0.0,0.0,-0.00378109936259,-0.0110727167142,-0.000183525917924,0.0,0.0,0.0,0.0,0.0,0.0,0.0,0.0,0.0,6.21808010186,-0.0626373188401,7.39279551511,0.0,0.0,0.0,0.0,0.0,0.0,0.0,0.0,0.0
134376000000,218,134376000000,imu_link,-0.00160024710333,-0.37285137563,0.00878164286787,0.92784814148,0.0,0.0,0.0,0.0,0.0,0.0,0.0,0.0,0.0,-0.00368210734302,-0.0113954360596,-0.000187287741975,0.0,0.0,0.0,0.0,0.0,0.0,0.0,0.0,0.0,6.22010830878,-0.0628236138509,7.38928801297,0.0,0.0,0.0,0.0,0.0,0.0,0.0,0.0,0.0
134380000000,219,134380000000,imu_link,-0.00160581187606,-0.37287278483,0.00877870934569,0.927839556154,0.0,0.0,0.0,0.0,0.0,0.0,0.0,0.0,0.0,-0.00322938920285,-0.0115059872243,-0.000302948338209,0.0,0.0,0.0,0.0,0.0,0.0,0.0,0.0,0.0,6.22185149733,-0.0629574965296,7.38365351856,0.0,0.0,0.0,0.0,0.0,0.0,0.0,0.0,0.0
134384000000,220,134384000000,imu_link,-0.00160996314325,-0.372894123208,0.00877593038101,0.927830999666,0.0,0.0,0.0,0.0,0.0,0.0,0.0,0.0,0.0,-0.00254448686663,-0.0114740838579,-0.000494844649424,0.0,0.0,0.0,0.0,0.0,0.0,0.0,0.0,0.0,6.22415686304,-0.0629568556412,7.38042555483,0.0,0.0,0.0,0.0,0.0,0.0,0.0,0.0,0.0
134388000000,221,134388000000,imu_link,-0.00161265680719,-0.372915395874,0.00877330380673,0.927822470087,0.0,0.0,0.0,0.0,0.0,0.0,0.0,0.0,0.0,-0.00183955938505,-0.0114451004767,-0.000695979399814,0.0,0.0,0.0,0.0,0.0,0.0,0.0,0.0,0.0,6.2250319459,-0.0628457491799,7.37605465441,0.0,0.0,0.0,0.0,0.0,0.0,0.0,0.0,0.0
134392000000,222,134392000000,imu_link,-0.00161404694448,-0.372936648478,0.00877077660926,0.92781394932,0.0,0.0,0.0,0.0,0.0,0.0,0.0,0.0,0.0,-0.00121621404159,-0.0114399484227,-0.000892952439423,0.0,0.0,0.0,0.0,0.0,0.0,0.0,0.0,0.0,6.22657036786,-0.0627279716506,7.37346222214,0.0,0.0,0.0,0.0,0.0,0.0,0.0,0.0,0.0
134396000000,223,134396000000,imu_link,-0.00161411027255,-0.372957779905,0.00876834397958,0.927805478104,0.0,0.0,0.0,0.0,0.0,0.0,0.0,0.0,0.0,-0.000582492697197,-0.0113803889634,-0.00109660918568,0.0,0.0,0.0,0.0,0.0,0.0,0.0,0.0,0.0,6.2277511475,-0.0626703087699,7.3685694323,0.0,0.0,0.0,0.0,0.0,0.0,0.0,0.0,0.0
134400000000,224,134400000000,imu_link,-0.00161289615876,-0.372978580895,0.00876598026133,0.927797140732,0.0,0.0,0.0,0.0,0.0,0.0,0.0,0.0,0.0,2.45233228427e-05,-0.0112077952438,-0.00130317703302,0.0,0.0,0.0,0.0,0.0,0.0,0.0,0.0,0.0,6.22934491304,-0.0626087006726,7.36401183724,0.0,0.0,0.0,0.0,0.0,0.0,0.0,0.0,0.0
134404000000,225,134404000000,imu_link,-0.00161052672789,-0.372998737404,0.00876364041406,0.927789063692,0.0,0.0,0.0,0.0,0.0,0.0,0.0,0.0,0.0,0.000567959642818,-0.0108653553632,-0.00150817887611,0.0,0.0,0.0,0.0,0.0,0.0,0.0,0.0,0.0,6.23141789472,-0.0625520361763,7.35981749705,0.0,0.0,0.0,0.0,0.0,0.0,0.0,0.0,0.0
134408000000,226,134408000000,imu_link,-0.00160759155083,-0.373018251156,0.00876121483999,0.927781246345,0.0,0.0,0.0,0.0,0.0,0.0,0.0,0.0,0.0,0.000817443783297,-0.0105211614089,-0.00165407871654,0.0,0.0,0.0,0.0,0.0,0.0,0.0,0.0,0.0,6.2344676657,-0.0624447402799,7.36046179695,0.0,0.0,0.0,0.0,0.0,0.0,0.0,0.0,0.0
134412000000,227,134412000000,imu_link,-0.00160475892335,-0.3730376207,0.00875859308415,0.927773488163,0.0,0.0,0.0,0.0,0.0,0.0,0.0,0.0,0.0,0.000733961570322,-0.0104426229151,-0.00172610243868,0.0,0.0,0.0,0.0,0.0,0.0,0.0,0.0,0.0,6.23805608117,-0.0624423132483,7.36579866168,0.0,0.0,0.0,0.0,0.0,0.0,0.0,0.0,0.0
134416000000,228,134416000000,imu_link,-0.00160248453497,-0.373057424677,0.00875567000792,0.92776555669,0.0,0.0,0.0,0.0,0.0,0.0,0.0,0.0,0.0,0.000416758384519,-0.0106737860344,-0.00176134856107,0.0,0.0,0.0,0.0,0.0,0.0,0.0,0.0,0.0,6.24008559107,-0.0625258476349,7.36821878261,0.0,0.0,0.0,0.0,0.0,0.0,0.0,0.0,0.0
134420000000,229,134420000000,imu_link,-0.00160107841697,-0.373078306284,0.00875236523594,0.927757193468,0.0,0.0,0.0,0.0,0.0,0.0,0.0,0.0,0.0,-6.22781330576e-05,-0.0112501067232,-0.00177542660635,0.0,0.0,0.0,0.0,0.0,0.0,0.0,0.0,0.0,6.24358411228,-0.0626814581227,7.37440221125,0.0,0.0,0.0,0.0,0.0,0.0,0.0,0.0,0.0
134424000000,230,134424000000,imu_link,-0.00160068837646,-0.37310068978,0.00874865429555,0.92774822777,0.0,0.0,0.0,0.0,0.0,0.0,0.0,0.0,0.0,-0.000616435896743,-0.0120544146365,-0.00177286698134,0.0,0.0,0.0,0.0,0.0,0.0,0.0,0.0,0.0,6.24522567271,-0.0628513707679,7.37494461333,0.0,0.0,0.0,0.0,0.0,0.0,0.0,0.0,0.0
134428000000,231,134428000000,imu_link,-0.00160134040634,-0.373124668474,0.00874457529001,0.927738621535,0.0,0.0,0.0,0.0,0.0,0.0,0.0,0.0,0.0,-0.00117597861878,-0.0129090249451,-0.00174767907768,0.0,0.0,0.0,0.0,0.0,0.0,0.0,0.0,0.0,6.24598680018,-0.0630519823032,7.37080007046,0.0,0.0,0.0,0.0,0.0,0.0,0.0,0.0,0.0
134432000000,232,134432000000,imu_link,-0.00160290311409,-0.373150037074,0.00874016405124,0.927728457074,0.0,0.0,0.0,0.0,0.0,0.0,0.0,0.0,0.0,-0.0016669203677,-0.0136536562733,-0.00173056582071,0.0,0.0,0.0,0.0,0.0,0.0,0.0,0.0,0.0,6.24753923401,-0.0632795001923,7.36589786975,0.0,0.0,0.0,0.0,0.0,0.0,0.0,0.0,0.0
134436000000,233,134436000000,imu_link,-0.00160519252169,-0.373176494266,0.0087354553682,0.927717855441,0.0,0.0,0.0,0.0,0.0,0.0,0.0,0.0,0.0,-0.00206461371001,-0.0142367658212,-0.00173191751158,0.0,0.0,0.0,0.0,0.0,0.0,0.0,0.0,0.0,6.24782408334,-0.0635296717425,7.35787666857,0.0,0.0,0.0,0.0,0.0,0.0,0.0,0.0,0.0
134440000000,234,134440000000,imu_link,-0.00160810547884,-0.373203815243,0.00873048674139,0.927706906779,0.0,0.0,0.0,0.0,0.0,0.0,0.0,0.0,0.0,-0.00240640649367,-0.0146992603426,-0.00173532527406,0.0,0.0,0.0,0.0,0.0,0.0,0.0,0.0,0.0,6.24941340978,-0.063763541289,7.35321607082,0.0,0.0,0.0,0.0,0.0,0.0,0.0,0.0,0.0
134444000000,235,134444000000,imu_link,-0.0016115504418,-0.373231684997,0.00872531000162,0.927695737397,0.0,0.0,0.0,0.0,0.0,0.0,0.0,0.0,0.0,-0.00269458651315,-0.0149925091773,-0.00173206364638,0.0,0.0,0.0,0.0,0.0,0.0,0.0,0.0,0.0,6.25095105067,-0.0639694161742,7.34795010685,0.0,0.0,0.0,0.0,0.0,0.0,0.0,0.0,0.0
134448000000,236,134448000000,imu_link,-0.00161562478975,-0.373259702234,0.00871994421706,0.927684508342,0.0,0.0,0.0,0.0,0.0,0.0,0.0,0.0,0.0,-0.00302249565427,-0.0150691564078,-0.00170215695416,0.0,0.0,0.0,0.0,0.0,0.0,0.0,0.0,0.0,6.25340070406,-0.064135582673,7.3443699416,0.0,0.0,0.0,0.0,0.0,0.0,0.0,0.0,0.0
134452000000,237,134452000000,imu_link,-0.00162045044039,-0.373287418333,0.00871438298083,0.927673399955,0.0,0.0,0.0,0.0,0.0,0.0,0.0,0.0,0.0,-0.0034060482734,-0.0149035222924,-0.00165288304345,0.0,0.0,0.0,0.0,0.0,0.0,0.0,0.0,0.0,6.25475219346,-0.0642687121036,7.33819373337,0.0,0.0,0.0,0.0,0.0,0.0,0.0,0.0,0.0
134456000000,238,134456000000,imu_link,-0.00162594112678,-0.373314573703,0.0087086559161,0.927662516591,0.0,0.0,0.0,0.0,0.0,0.0,0.0,0.0,0.0,-0.00374284158029,-0.0145984043255,-0.00160620179715,0.0,0.0,0.0,0.0,0.0,0.0,0.0,0.0,0.0,6.25556891958,-0.0644695102492,7.3318487084,0.0,0.0,0.0,0.0,0.0,0.0,0.0,0.0,0.0
134460000000,239,134460000000,imu_link,-0.00163192526677,-0.373341067769,0.00870277737392,0.927651898938,0.0,0.0,0.0,0.0,0.0,0.0,0.0,0.0,0.0,-0.00399689960868,-0.0142398023368,-0.00158497443451,0.0,0.0,0.0,0.0,0.0,0.0,0.0,0.0,0.0,6.25658039477,-0.0646773670527,7.32712214131,0.0,0.0,0.0,0.0,0.0,0.0,0.0,0.0,0.0
134464000000,240,134464000000,imu_link,-0.00163802182652,-0.373366825488,0.00869679172564,0.927641577509,0.0,0.0,0.0,0.0,0.0,0.0,0.0,0.0,0.0,-0.00406559052759,-0.013842392709,-0.0016143557202,0.0,0.0,0.0,0.0,0.0,0.0,0.0,0.0,0.0,6.25887005247,-0.0648326964047,7.32567681969,0.0,0.0,0.0,0.0,0.0,0.0,0.0,0.0,0.0
134468000000,241,134468000000,imu_link,-0.00164388523069,-0.373392077326,0.00869074946331,0.927631459743,0.0,0.0,0.0,0.0,0.0,0.0,0.0,0.0,0.0,-0.00396565045285,-0.01357070158,-0.00168461205859,0.0,0.0,0.0,0.0,0.0,0.0,0.0,0.0,0.0,6.26084776153,-0.0648624353236,7.32611287719,0.0,0.0,0.0,0.0,0.0,0.0,0.0,0.0,0.0
134476000000,242,134476000000,imu_link,-0.00165356075967,-0.373442380496,0.00867881245115,0.927611304589,0.0,0.0,0.0,0.0,0.0,0.0,0.0,0.0,0.0,-0.00326370365805,-0.0135737588778,-0.00189530319926,0.0,0.0,0.0,0.0,0.0,0.0,0.0,0.0,0.0,6.2638295393,-0.0648800154716,7.32741573704,0.0,0.0,0.0,0.0,0.0,0.0,0.0,0.0,0.0
134480000000,243,134480000000,imu_link,-0.00165662301239,-0.373468123669,0.00867314275268,0.927600987924,0.0,0.0,0.0,0.0,0.0,0.0,0.0,0.0,0.0,-0.00259918266487,-0.0138481928677,-0.00203436647568,0.0,0.0,0.0,0.0,0.0,0.0,0.0,0.0,0.0,6.26704472653,-0.0648537379256,7.33019204139,0.0,0.0,0.0,0.0,0.0,0.0,0.0,0.0,0.0
134484000000,244,134484000000,imu_link,-0.00165772593332,-0.373494491254,0.00866777166764,0.92759041968,0.0,0.0,0.0,0.0,0.0,0.0,0.0,0.0,0.0,-0.00163759851512,-0.0141935184412,-0.00226116962071,0.0,0.0,0.0,0.0,0.0,0.0,0.0,0.0,0.0,6.26912519602,-0.0648348000396,7.32988420352,0.0,0.0,0.0,0.0,0.0,0.0,0.0,0.0,0.0
134488000000,245,134488000000,imu_link,-0.00165664033074,-0.373521553181,0.00866269346325,0.927579572109,0.0,0.0,0.0,0.0,0.0,0.0,0.0,0.0,0.0,-0.00057111785716,-0.0145774417099,-0.00253339866042,0.0,0.0,0.0,0.0,0.0,0.0,0.0,0.0,0.0,6.27039363342,-0.0646405555997,7.32716174579,0.0,0.0,0.0,0.0,0.0,0.0,0.0,0.0,0.0
134492000000,246,134492000000,imu_link,-0.00165361244975,-0.373549348346,0.0086578877797,0.927568429225,0.0,0.0,0.0,0.0,0.0,0.0,0.0,0.0,0.0,0.000377166711948,-0.0149813014665,-0.00276907595279,0.0,0.0,0.0,0.0,0.0,0.0,0.0,0.0,0.0,6.2722094823,-0.0643606900533,7.32561192046,0.0,0.0,0.0,0.0,0.0,0.0,0.0,0.0,0.0
134496000000,247,134496000000,imu_link,-0.00164932146813,-0.373577837175,0.0086533086852,0.927557006097,0.0,0.0,0.0,0.0,0.0,0.0,0.0,0.0,0.0,0.0010020594019,-0.01536100979,-0.002899263102,0.0,0.0,0.0,0.0,0.0,0.0,0.0,0.0,0.0,6.27387375023,-0.0640590114587,7.32333128968,0.0,0.0,0.0,0.0,0.0,0.0,0.0,0.0,0.0
134500000000,248,134500000000,imu_link,-0.00164429888855,-0.373606974772,0.00864892038744,0.92754532011,0.0,0.0,0.0,0.0,0.0,0.0,0.0,0.0,0.0,0.00137397376103,-0.0157143160202,-0.00294682778113,0.0,0.0,0.0,0.0,0.0,0.0,0.0,0.0,0.0,6.27537447154,-0.0638927450133,7.32070115831,0.0,0.0,0.0,0.0,0.0,0.0,0.0,0.0,0.0
134504000000,249,134504000000,imu_link,-0.00163904446212,-0.373636524326,0.00864467185548,0.927533466173,0.0,0.0,0.0,0.0,0.0,0.0,0.0,0.0,0.0,0.00150568715952,-0.0159378618884,-0.00292493041957,0.0,0.0,0.0,0.0,0.0,0.0,0.0,0.0,0.0,6.27812503116,-0.063867466796,7.31864179056,0.0,0.0,0.0,0.0,0.0,0.0,0.0,0.0,0.0
134508000000,250,134508000000,imu_link,-0.00163397826245,-0.373666223518,0.00864051330266,0.92752154964,0.0,0.0,0.0,0.0,0.0,0.0,0.0,0.0,0.0,0.00143450551463,-0.0160182126279,-0.00284788896523,0.0,0.0,0.0,0.0,0.0,0.0,0.0,0.0,0.0,6.27999856701,-0.0638754741148,7.31494061633,0.0,0.0,0.0,0.0,0.0,0.0,0.0,0.0,0.0
134512000000,251,134512000000,imu_link,-0.00162945403318,-0.373695847782,0.00863639468696,0.927509660821,0.0,0.0,0.0,0.0,0.0,0.0,0.0,0.0,0.0,0.00119096882052,-0.0159759778347,-0.00272816819523,0.0,0.0,0.0,0.0,0.0,0.0,0.0,0.0,0.0,6.28167237847,-0.0639212263992,7.31133382531,0.0,0.0,0.0,0.0,0.0,0.0,0.0,0.0,0.0
134516000000,252,134516000000,imu_link,-0.00162592290768,-0.373725263114,0.008632266582,0.927497853398,0.0,0.0,0.0,0.0,0.0,0.0,0.0,0.0,0.0,0.000729607632883,-0.015859579678,-0.00254719077011,0.0,0.0,0.0,0.0,0.0,0.0,0.0,0.0,0.0,6.2829720065,-0.0639894974551,7.3078008538,0.0,0.0,0.0,0.0,0.0,0.0,0.0,0.0,0.0
134520000000,253,134520000000,imu_link,-0.00162374411062,-0.373754516574,0.00862811188094,0.927486107972,0.0,0.0,0.0,0.0,0.0,0.0,0.0,0.0,0.0,9.8246014405e-05,-0.0157670680782,-0.00230696102009,0.0,0.0,0.0,0.0,0.0,0.0,0.0,0.0,0.0,6.28336946823,-0.0641259546711,7.3035078729,0.0,0.0,0.0,0.0,0.0,0.0,0.0,0.0,0.0
134524000000,254,134524000000,imu_link,-0.00162319518496,-0.373783640209,0.00862391701844,0.927474411294,0.0,0.0,0.0,0.0,0.0,0.0,0.0,0.0,0.0,-0.00066450113427,-0.015690688888,-0.00202110461336,0.0,0.0,0.0,0.0,0.0,0.0,0.0,0.0,0.0,6.28394621844,-0.0643500961318,7.29955047172,0.0,0.0,0.0,0.0,0.0,0.0,0.0,0.0,0.0
134528000000,255,134528000000,imu_link,-0.00162432244488,-0.373812574057,0.00861971367487,0.927462787173,0.0,0.0,0.0,0.0,0.0,0.0,0.0,0.0,0.0,-0.00144251855986,-0.0155818830248,-0.00171193105557,0.0,0.0,0.0,0.0,0.0,0.0,0.0,0.0,0.0,6.28594069135,-0.0647168501273,7.29809925785,0.0,0.0,0.0,0.0,0.0,0.0,0.0,0.0,0.0
134532000000,256,134532000000,imu_link,-0.00162696965525,-0.373841241743,0.0086155367906,0.927451266357,0.0,0.0,0.0,0.0,0.0,0.0,0.0,0.0,0.0,-0.00214119087144,-0.0154326177529,-0.00141580181833,0.0,0.0,0.0,0.0,0.0,0.0,0.0,0.0,0.0,6.28813518533,-0.0651406518071,7.29655333057,0.0,0.0,0.0,0.0,0.0,0.0,0.0,0.0,0.0
134536000000,257,134536000000,imu_link,-0.00163071814786,-0.373869788084,0.00861144593443,0.927439790668,0.0,0.0,0.0,0.0,0.0,0.0,0.0,0.0,0.0,-0.00263524380643,-0.0153632372177,-0.00117015170987,0.0,0.0,0.0,0.0,0.0,0.0,0.0,0.0,0.0,6.28960961725,-0.0655567552372,7.29550447151,0.0,0.0,0.0,0.0,0.0,0.0,0.0,0.0,0.0
134540000000,258,134540000000,imu_link,-0.00163504554721,-0.373898563749,0.00860749420717,0.927428219161,0.0,0.0,0.0,0.0,0.0,0.0,0.0,0.0,0.0,-0.00287875187138,-0.0154851124062,-0.0009971914086,0.0,0.0,0.0,0.0,0.0,0.0,0.0,0.0,0.0,6.2919166643,-0.0659172377608,7.29787251703,0.0,0.0,0.0,0.0,0.0,0.0,0.0,0.0,0.0
134544000000,259,134544000000,imu_link,-0.00163996316019,-0.373927992672,0.0086036755991,0.927416380912,0.0,0.0,0.0,0.0,0.0,0.0,0.0,0.0,0.0,-0.00313058523849,-0.015835472944,-0.000824508211571,0.0,0.0,0.0,0.0,0.0,0.0,0.0,0.0,0.0,6.29376446818,-0.0660979283502,7.29976777823,0.0,0.0,0.0,0.0,0.0,0.0,0.0,0.0,0.0
134548000000,260,134548000000,imu_link,-0.00164569064773,-0.373958248703,0.00859995615075,0.927404205664,0.0,0.0,0.0,0.0,0.0,0.0,0.0,0.0,0.0,-0.00349142582694,-0.01627861353,-0.000626338151483,0.0,0.0,0.0,0.0,0.0,0.0,0.0,0.0,0.0,6.29549514795,-0.0662590868867,7.29890168931,0.0,0.0,0.0,0.0,0.0,0.0,0.0,0.0,0.0
134552000000,261,134552000000,imu_link,-0.00165252213864,-0.373989227599,0.00859627440755,0.927391735394,0.0,0.0,0.0,0.0,0.0,0.0,0.0,0.0,0.0,-0.00399965550271,-0.0166642548095,-0.000401754826687,0.0,0.0,0.0,0.0,0.0,0.0,0.0,0.0,0.0,6.29762180584,-0.0663911580028,7.29667657691,0.0,0.0,0.0,0.0,0.0,0.0,0.0,0.0,0.0
134556000000,262,134556000000,imu_link,-0.00166045619454,-0.374020744029,0.00859261414453,0.927379044891,0.0,0.0,0.0,0.0,0.0,0.0,0.0,0.0,0.0,-0.00450938601852,-0.0169499682679,-0.000185118396447,0.0,0.0,0.0,0.0,0.0,0.0,0.0,0.0,0.0,6.29861364075,-0.0665691444891,7.29182397825,0.0,0.0,0.0,0.0,0.0,0.0,0.0,0.0,0.0
134560000000,263,134560000000,imu_link,-0.00166918009898,-0.374052652054,0.00858899942735,0.927366193269,0.0,0.0,0.0,0.0,0.0,0.0,0.0,0.0,0.0,-0.00486892914105,-0.017158321949,-1.59222911815e-05,0.0,0.0,0.0,0.0,0.0,0.0,0.0,0.0,0.0,6.29952882967,-0.0667548414225,7.28729869787,0.0,0.0,0.0,0.0,0.0,0.0,0.0,0.0,0.0
134564000000,264,134564000000,imu_link,-0.00167829094662,-0.374084866264,0.00858543901746,0.92735321556,0.0,0.0,0.0,0.0,0.0,0.0,0.0,0.0,0.0,-0.00503961141358,-0.0173222596226,8.19135917802e-05,0.0,0.0,0.0,0.0,0.0,0.0,0.0,0.0,0.0,6.30133867197,-0.0669369362629,7.28542094788,0.0,0.0,0.0,0.0,0.0,0.0,0.0,0.0,0.0
134568000000,265,134568000000,imu_link,-0.00168759365721,-0.374117196547,0.00858192195566,0.927340188869,0.0,0.0,0.0,0.0,0.0,0.0,0.0,0.0,0.0,-0.00512100520907,-0.0173844545315,0.000138012455998,0.0,0.0,0.0,0.0,0.0,0.0,0.0,0.0,0.0,6.3037556452,-0.0670333756916,7.2841126545,0.0,0.0,0.0,0.0,0.0,0.0,0.0,0.0,0.0
134572000000,266,134572000000,imu_link,-0.00169693083053,-0.374149457595,0.00857843948468,0.927327188312,0.0,0.0,0.0,0.0,0.0,0.0,0.0,0.0,0.0,-0.00513019491353,-0.0173473455449,0.000160444016344,0.0,0.0,0.0,0.0,0.0,0.0,0.0,0.0,0.0,6.30592327367,-0.0671543860214,7.28259454646,0.0,0.0,0.0,0.0,0.0,0.0,0.0,0.0,0.0
134576000000,267,134576000000,imu_link,-0.00170635781016,-0.374181531076,0.00857495312587,0.9273142619,0.0,0.0,0.0,0.0,0.0,0.0,0.0,0.0,0.0,-0.00517169470293,-0.0172461175654,0.000175282982801,0.0,0.0,0.0,0.0,0.0,0.0,0.0,0.0,0.0,6.30706214407,-0.0672173683041,7.27882926619,0.0,0.0,0.0,0.0,0.0,0.0,0.0,0.0,0.0
134580000000,268,134580000000,imu_link,-0.00171594976084,-0.374213356077,0.00857143691979,0.927301434335,0.0,0.0,0.0,0.0,0.0,0.0,0.0,0.0,0.0,-0.0052526191837,-0.017111682901,0.000192096838525,0.0,0.0,0.0,0.0,0.0,0.0,0.0,0.0,0.0,6.30818059187,-0.0672925697378,7.27572447332,0.0,0.0,0.0,0.0,0.0,0.0,0.0,0.0,0.0
134584000000,269,134584000000,imu_link,-0.00172564567279,-0.374244957819,0.00856789636617,0.927288695524,0.0,0.0,0.0,0.0,0.0,0.0,0.0,0.0,0.0,-0.0053043435042,-0.0169910949154,0.00020007111087,0.0,0.0,0.0,0.0,0.0,0.0,0.0,0.0,0.0,6.30961506616,-0.0673973598911,7.2737191263,0.0,0.0,0.0,0.0,0.0,0.0,0.0,0.0,0.0
134588000000,270,134588000000,imu_link,-0.00173521616984,-0.374276295302,0.00856433967138,0.927276062392,0.0,0.0,0.0,0.0,0.0,0.0,0.0,0.0,0.0,-0.00524799272236,-0.0168493216723,0.000168894678724,0.0,0.0,0.0,0.0,0.0,0.0,0.0,0.0,0.0,6.3119880632,-0.0675296639689,7.27324228234,0.0,0.0,0.0,0.0,0.0,0.0,0.0,0.0,0.0
134592000000,271,134592000000,imu_link,-0.00174435563613,-0.374307195238,0.00856077854783,0.927263605393,0.0,0.0,0.0,0.0,0.0,0.0,0.0,0.0,0.0,-0.00504695279166,-0.0166153390065,8.58044329444e-05,0.0,0.0,0.0,0.0,0.0,0.0,0.0,0.0,0.0,6.31414180474,-0.0676471571985,7.2714206538,0.0,0.0,0.0,0.0,0.0,0.0,0.0,0.0,0.0
134596000000,272,134596000000,imu_link,-0.00175291015484,-0.374337280829,0.00855723301984,0.927251476812,0.0,0.0,0.0,0.0,0.0,0.0,0.0,0.0,0.0,-0.00476906156877,-0.0161788352666,-1.71355203827e-05,0.0,0.0,0.0,0.0,0.0,0.0,0.0,0.0,0.0,6.31614389234,-0.0677132474553,7.26693376817,0.0,0.0,0.0,0.0,0.0,0.0,0.0,0.0,0.0
134600000000,273,134600000000,imu_link,-0.00176075695412,-0.374366183933,0.00855372216642,0.927239825449,0.0,0.0,0.0,0.0,0.0,0.0,0.0,0.0,0.0,-0.00442897697064,-0.0155443420724,-0.000134527815003,0.0,0.0,0.0,0.0,0.0,0.0,0.0,0.0,0.0,6.31798349621,-0.0676744518439,7.26280071593,0.0,0.0,0.0,0.0,0.0,0.0,0.0,0.0,0.0
134604000000,274,134604000000,imu_link,-0.00176772084929,-0.374393986978,0.00855028883191,0.927228618108,0.0,0.0,0.0,0.0,0.0,0.0,0.0,0.0,0.0,-0.00400003910236,-0.0149550637666,-0.000264783774492,0.0,0.0,0.0,0.0,0.0,0.0,0.0,0.0,0.0,6.31940809692,-0.0675455701986,7.26167319271,0.0,0.0,0.0,0.0,0.0,0.0,0.0,0.0,0.0
134608000000,275,134608000000,imu_link,-0.00177364395149,-0.374421008484,0.00854697062024,0.927217726257,0.0,0.0,0.0,0.0,0.0,0.0,0.0,0.0,0.0,-0.00349234190533,-0.0145382238401,-0.000406902495261,0.0,0.0,0.0,0.0,0.0,0.0,0.0,0.0,0.0,6.32145124937,-0.0674295631129,7.26382657452,0.0,0.0,0.0,0.0,0.0,0.0,0.0,0.0,0.0
134612000000,276,134612000000,imu_link,-0.00177839610668,-0.374447775334,0.00854379678574,0.9272069372,0.0,0.0,0.0,0.0,0.0,0.0,0.0,0.0,0.0,-0.00292127213372,-0.0144060508031,-0.000559394985633,0.0,0.0,0.0,0.0,0.0,0.0,0.0,0.0,0.0,6.32403501592,-0.0673121101156,7.26869574628,0.0,0.0,0.0,0.0,0.0,0.0,0.0,0.0,0.0
134616000000,277,134616000000,imu_link,-0.00178195410528,-0.37447457959,0.00854081726351,0.927196132607,0.0,0.0,0.0,0.0,0.0,0.0,0.0,0.0,0.0,-0.00233145070811,-0.0144315748778,-0.000692852680405,0.0,0.0,0.0,0.0,0.0,0.0,0.0,0.0,0.0,6.32556542227,-0.0671777437729,7.26942225148,0.0,0.0,0.0,0.0,0.0,0.0,0.0,0.0,0.0
134620000000,278,134620000000,imu_link,-0.00178465009414,-0.374501392936,0.0085380064729,0.927185323524,0.0,0.0,0.0,0.0,0.0,0.0,0.0,0.0,0.0,-0.00190027462885,-0.0144404614432,-0.000776018318294,0.0,0.0,0.0,0.0,0.0,0.0,0.0,0.0,0.0,6.32677922129,-0.0670268186227,7.2668158426,0.0,0.0,0.0,0.0,0.0,0.0,0.0,0.0,0.0
134624000000,279,134624000000,imu_link,-0.0017868664667,-0.37452820373,0.00853529606482,0.927174514555,0.0,0.0,0.0,0.0,0.0,0.0,0.0,0.0,0.0,-0.00165912033813,-0.0144413944411,-0.000819288408303,0.0,0.0,0.0,0.0,0.0,0.0,0.0,0.0,0.0,6.32877973028,-0.0669681108439,7.26605112372,0.0,0.0,0.0,0.0,0.0,0.0,0.0,0.0,0.0
134628000000,280,134628000000,imu_link,-0.00178893756313,-0.374554909097,0.00853262711936,0.92716374716,0.0,0.0,0.0,0.0,0.0,0.0,0.0,0.0,0.0,-0.00158352064275,-0.014385390867,-0.000827355109049,0.0,0.0,0.0,0.0,0.0,0.0,0.0,0.0,0.0,6.33138344769,-0.0669876291554,7.26595288901,0.0,0.0,0.0,0.0,0.0,0.0,0.0,0.0,0.0
134632000000,281,134632000000,imu_link,-0.0017911202963,-0.374581557063,0.0085299737886,0.927153001691,0.0,0.0,0.0,0.0,0.0,0.0,0.0,0.0,0.0,-0.0016320846295,-0.0143542125433,-0.000799251559703,0.0,0.0,0.0,0.0,0.0,0.0,0.0,0.0,0.0,6.3328162022,-0.0670534477517,7.26472462815,0.0,0.0,0.0,0.0,0.0,0.0,0.0,0.0,0.0
134636000000,282,134636000000,imu_link,-0.00179347976135,-0.37460838045,0.00852734428801,0.927142183878,0.0,0.0,0.0,0.0,0.0,0.0,0.0,0.0,0.0,-0.00171036316133,-0.0144483505727,-0.000754952765088,0.0,0.0,0.0,0.0,0.0,0.0,0.0,0.0,0.0,6.33402775271,-0.0671840201441,7.26474138877,0.0,0.0,0.0,0.0,0.0,0.0,0.0,0.0,0.0
134640000000,283,134640000000,imu_link,-0.00179608063783,-0.374635708659,0.00852470317999,0.927131160801,0.0,0.0,0.0,0.0,0.0,0.0,0.0,0.0,0.0,-0.00182678510336,-0.0147197787143,-0.000714693774041,0.0,0.0,0.0,0.0,0.0,0.0,0.0,0.0,0.0,6.33541218321,-0.0673415091078,7.26485769063,0.0,0.0,0.0,0.0,0.0,0.0,0.0,0.0,0.0
134644000000,284,134644000000,imu_link,-0.0017989504743,-0.374663748254,0.00852203697851,0.927119848999,0.0,0.0,0.0,0.0,0.0,0.0,0.0,0.0,0.0,-0.00195945762326,-0.0151024671429,-0.000675353437042,0.0,0.0,0.0,0.0,0.0,0.0,0.0,0.0,0.0,6.33690565292,-0.0674419819175,7.2642708356,0.0,0.0,0.0,0.0,0.0,0.0,0.0,0.0,0.0
134648000000,285,134648000000,imu_link,-0.00180220167403,-0.374692479339,0.00851935929927,0.927108256092,0.0,0.0,0.0,0.0,0.0,0.0,0.0,0.0,0.0,-0.00214159178624,-0.0154740385408,-0.000608656758526,0.0,0.0,0.0,0.0,0.0,0.0,0.0,0.0,0.0,6.33879718429,-0.0674870291613,7.26273411057,0.0,0.0,0.0,0.0,0.0,0.0,0.0,0.0,0.0
134652000000,286,134652000000,imu_link,-0.00180595899514,-0.374721553516,0.00851669995501,0.927096522302,0.0,0.0,0.0,0.0,0.0,0.0,0.0,0.0,0.0,-0.00237435987155,-0.0156573350287,-0.000505046606757,0.0,0.0,0.0,0.0,0.0,0.0,0.0,0.0,0.0,6.34150184305,-0.0675850781048,7.26052512529,0.0,0.0,0.0,0.0,0.0,0.0,0.0,0.0,0.0
134656000000,287,134656000000,imu_link,-0.00181026077026,-0.374750591162,0.00851406615962,0.927084800899,0.0,0.0,0.0,0.0,0.0,0.0,0.0,0.0,0.0,-0.00262178697045,-0.0156357846157,-0.000391213904241,0.0,0.0,0.0,0.0,0.0,0.0,0.0,0.0,0.0,6.34320726349,-0.0677174612895,7.25598808914,0.0,0.0,0.0,0.0,0.0,0.0,0.0,0.0,0.0
134660000000,288,134660000000,imu_link,-0.001815063571,-0.374779416496,0.00851144925264,0.927073163103,0.0,0.0,0.0,0.0,0.0,0.0,0.0,0.0,0.0,-0.0028498896282,-0.0155195856662,-0.000289669346838,0.0,0.0,0.0,0.0,0.0,0.0,0.0,0.0,0.0,6.34445010018,-0.0678583039928,7.25234948359,0.0,0.0,0.0,0.0,0.0,0.0,0.0,0.0,0.0
134664000000,289,134664000000,imu_link,-0.00182017391175,-0.374808051392,0.0085088312163,0.927061600634,0.0,0.0,0.0,0.0,0.0,0.0,0.0,0.0,0.0,-0.00299177849127,-0.015415885549,-0.000232710740536,0.0,0.0,0.0,0.0,0.0,0.0,0.0,0.0,0.0,6.34626294211,-0.0680841685986,7.25172062149,0.0,0.0,0.0,0.0,0.0,0.0,0.0,0.0,0.0
134668000000,290,134668000000,imu_link,-0.00182536143571,-0.374836645544,0.00850622845707,0.927050053282,0.0,0.0,0.0,0.0,0.0,0.0,0.0,0.0,0.0,-0.00302450518582,-0.015393851272,-0.000211192130311,0.0,0.0,0.0,0.0,0.0,0.0,0.0,0.0,0.0,6.3483401746,-0.0683150372016,7.25240743347,0.0,0.0,0.0,0.0,0.0,0.0,0.0,0.0,0.0
134672000000,291,134672000000,imu_link,-0.00183035583036,-0.374865454177,0.00850368500964,0.927038417976,0.0,0.0,0.0,0.0,0.0,0.0,0.0,0.0,0.0,-0.0029248612942,-0.0155106288558,-0.000219717265535,0.0,0.0,0.0,0.0,0.0,0.0,0.0,0.0,0.0,6.3505293277,-0.068504290698,7.25431657494,0.0,0.0,0.0,0.0,0.0,0.0,0.0,0.0,0.0
134676000000,292,134676000000,imu_link,-0.00183496421446,-0.374894577752,0.00850120240464,0.927026654437,0.0,0.0,0.0,0.0,0.0,0.0,0.0,0.0,0.0,-0.00273599056354,-0.0156823425503,-0.00026360964474,0.0,0.0,0.0,0.0,0.0,0.0,0.0,0.0,0.0,6.35114296995,-0.068604013322,7.25173959781,0.0,0.0,0.0,0.0,0.0,0.0,0.0,0.0,0.0
134680000000,293,134680000000,imu_link,-0.00183878694334,-0.374924061411,0.00849877519754,0.927014745221,0.0,0.0,0.0,0.0,0.0,0.0,0.0,0.0,0.0,-0.00236310894596,-0.0158799436873,-0.000384912078957,0.0,0.0,0.0,0.0,0.0,0.0,0.0,0.0,0.0,6.35314552318,-0.0687090244537,7.25195654264,0.0,0.0,0.0,0.0,0.0,0.0,0.0,0.0,0.0
134684000000,294,134684000000,imu_link,-0.00184129929145,-0.374953789975,0.00849639277711,0.927002738027,0.0,0.0,0.0,0.0,0.0,0.0,0.0,0.0,0.0,-0.00174847276885,-0.016017435072,-0.00060960858047,0.0,0.0,0.0,0.0,0.0,0.0,0.0,0.0,0.0,6.35556893069,-0.0687995733858,7.25129493067,0.0,0.0,0.0,0.0,0.0,0.0,0.0,0.0,0.0
134688000000,295,134688000000,imu_link,-0.00184216702255,-0.3749834387,0.00849405257548,0.926990764891,0.0,0.0,0.0,0.0,0.0,0.0,0.0,0.0,0.0,-0.000977904958795,-0.0159810701121,-0.000898438978671,0.0,0.0,0.0,0.0,0.0,0.0,0.0,0.0,0.0,6.35816445424,-0.0687531249941,7.24927921965,0.0,0.0,0.0,0.0,0.0,0.0,0.0,0.0,0.0
134692000000,296,134692000000,imu_link,-0.00184132929103,-0.375012615146,0.00849173741233,0.926978984866,0.0,0.0,0.0,0.0,0.0,0.0,0.0,0.0,0.0,-0.000180552750592,-0.0157332308586,-0.00120697902233,0.0,0.0,0.0,0.0,0.0,0.0,0.0,0.0,0.0,6.3601538308,-0.0685838143334,7.24568534028,0.0,0.0,0.0,0.0,0.0,0.0,0.0,0.0,0.0
134696000000,297,134696000000,imu_link,-0.00183901565118,-0.37504095864,0.00848944538973,0.926967543488,0.0,0.0,0.0,0.0,0.0,0.0,0.0,0.0,0.0,0.000511702638187,-0.0152899553934,-0.00147366672652,0.0,0.0,0.0,0.0,0.0,0.0,0.0,0.0,0.0,6.36151918873,-0.0683399829344,7.24141274091,0.0,0.0,0.0,0.0,0.0,0.0,0.0,0.0,0.0
134700000000,298,134700000000,imu_link,-0.00183556043292,-0.375068212355,0.00848719301693,0.92695654394,0.0,0.0,0.0,0.0,0.0,0.0,0.0,0.0,0.0,0.00105327293397,-0.0147068903229,-0.00167023239677,0.0,0.0,0.0,0.0,0.0,0.0,0.0,0.0,0.0,6.36325896405,-0.0681452529621,7.23882996468,0.0,0.0,0.0,0.0,0.0,0.0,0.0,0.0,0.0
134704000000,299,134704000000,imu_link,-0.00183105572654,-0.375094339797,0.00848505938721,0.926946000183,0.0,0.0,0.0,0.0,0.0,0.0,0.0,0.0,0.0,0.00156715401499,-0.0141039735847,-0.00181291289575,0.0,0.0,0.0,0.0,0.0,0.0,0.0,0.0,0.0,6.36525991268,-0.0680411078395,7.23820982118,0.0,0.0,0.0,0.0,0.0,0.0,0.0,0.0,0.0
134708000000,300,134708000000,imu_link,-0.00182559174836,-0.375119359594,0.00848309388193,0.926935904144,0.0,0.0,0.0,0.0,0.0,0.0,0.0,0.0,0.0,0.00204839096385,-0.013510865884,-0.00191578585058,0.0,0.0,0.0,0.0,0.0,0.0,0.0,0.0,0.0,6.36704672846,-0.0680290989556,7.23753331281,0.0,0.0,0.0,0.0,0.0,0.0,0.0,0.0,0.0
134712000000,301,134712000000,imu_link,-0.00181926875508,-0.375143527551,0.00848133732804,0.926926151813,0.0,0.0,0.0,0.0,0.0,0.0,0.0,0.0,0.0,0.0024896346523,-0.0130554335023,-0.0019807404747,0.0,0.0,0.0,0.0,0.0,0.0,0.0,0.0,0.0,6.36897079527,-0.0680647013363,7.23896917473,0.0,0.0,0.0,0.0,0.0,0.0,0.0,0.0,0.0
134716000000,302,134716000000,imu_link,-0.00181251689714,-0.375167366224,0.00847975042114,0.926916531267,0.0,0.0,0.0,0.0,0.0,0.0,0.0,0.0,0.0,0.00272173483308,-0.0128800762667,-0.00198281758346,0.0,0.0,0.0,0.0,0.0,0.0,0.0,0.0,0.0,6.37121199099,-0.0680858025211,7.24351415251,0.0,0.0,0.0,0.0,0.0,0.0,0.0,0.0,0.0
134720000000,303,134720000000,imu_link,-0.00180596050692,-0.375191364209,0.00847826506303,0.92690684416,0.0,0.0,0.0,0.0,0.0,0.0,0.0,0.0,0.0,0.00264945681325,-0.0129656599477,-0.0018989495705,0.0,0.0,0.0,0.0,0.0,0.0,0.0,0.0,0.0,6.37423209722,-0.068123485234,7.24930069752,0.0,0.0,0.0,0.0,0.0,0.0,0.0,0.0,0.0
134724000000,304,134724000000,imu_link,-0.00180014863038,-0.375215805244,0.00847680286342,0.926896975275,0.0,0.0,0.0,0.0,0.0,0.0,0.0,0.0,0.0,0.00230671154151,-0.0132019582205,-0.00174817861791,0.0,0.0,0.0,0.0,0.0,0.0,0.0,0.0,0.0,6.3758530679,-0.0682336168098,7.25054622298,0.0,0.0,0.0,0.0,0.0,0.0,0.0,0.0,0.0
134728000000,305,134728000000,imu_link,-0.0017953446265,-0.375240865202,0.0084753042181,0.926886853418,0.0,0.0,0.0,0.0,0.0,0.0,0.0,0.0,0.0,0.00182992604777,-0.0135319523377,-0.00157546933037,0.0,0.0,0.0,0.0,0.0,0.0,0.0,0.0,0.0,6.37735568984,-0.068462776647,7.25043517459,0.0,0.0,0.0,0.0,0.0,0.0,0.0,0.0,0.0
134732000000,306,134732000000,imu_link,-0.00179162143081,-0.375266582723,0.00847371921564,0.926876463218,0.0,0.0,0.0,0.0,0.0,0.0,0.0,0.0,0.0,0.00130980281669,-0.0138823847776,-0.00141216240961,0.0,0.0,0.0,0.0,0.0,0.0,0.0,0.0,0.0,6.37898726831,-0.068786775912,7.24894392585,0.0,0.0,0.0,0.0,0.0,0.0,0.0,0.0,0.0
134736000000,307,134736000000,imu_link,-0.00178890525443,-0.375292871237,0.0084720400352,0.92686583989,0.0,0.0,0.0,0.0,0.0,0.0,0.0,0.0,0.0,0.000822812592782,-0.0141863964202,-0.00126638151147,0.0,0.0,0.0,0.0,0.0,0.0,0.0,0.0,0.0,6.37938051528,-0.0690693014286,7.24413218499,0.0,0.0,0.0,0.0,0.0,0.0,0.0,0.0,0.0
134740000000,308,134740000000,imu_link,-0.00178708152732,-0.375319643338,0.00847027727009,0.926855018904,0.0,0.0,0.0,0.0,0.0,0.0,0.0,0.0,0.0,0.000391312573612,-0.0144437409476,-0.00113724773737,0.0,0.0,0.0,0.0,0.0,0.0,0.0,0.0,0.0,6.37901930216,-0.0692886837643,7.23801247783,0.0,0.0,0.0,0.0,0.0,0.0,0.0,0.0,0.0
134744000000,309,134744000000,imu_link,-0.00178585649947,-0.375346855988,0.00846846689189,0.926844017883,0.0,0.0,0.0,0.0,0.0,0.0,0.0,0.0,0.0,0.000102897153008,-0.0146791106431,-0.00104659233217,0.0,0.0,0.0,0.0,0.0,0.0,0.0,0.0,0.0,6.38041494144,-0.0695475502952,7.23608686422,0.0,0.0,0.0,0.0,0.0,0.0,0.0,0.0,0.0
134748000000,310,134748000000,imu_link,-0.0017847640886,-0.37537449609,0.0084666956359,0.926832842193,0.0,0.0,0.0,0.0,0.0,0.0,0.0,0.0,0.0,4.68158222471e-05,-0.0149094557677,-0.00100321565163,0.0,0.0,0.0,0.0,0.0,0.0,0.0,0.0,0.0,6.38204648918,-0.0698012638852,7.23477214547,0.0,0.0,0.0,0.0,0.0,0.0,0.0,0.0,0.0
134752000000,311,134752000000,imu_link,-0.00178334807656,-0.375402502937,0.00846508464329,0.926821516151,0.0,0.0,0.0,0.0,0.0,0.0,0.0,0.0,0.0,0.000225170580975,-0.0151091430822,-0.000989373568769,0.0,0.0,0.0,0.0,0.0,0.0,0.0,0.0,0.0,6.38515725266,-0.0700006575021,7.23614991914,0.0,0.0,0.0,0.0,0.0,0.0,0.0,0.0,0.0
134756000000,312,134756000000,imu_link,-0.00178146514508,-0.37543075802,0.00846368329681,0.926810087547,0.0,0.0,0.0,0.0,0.0,0.0,0.0,0.0,0.0,0.000479754788748,-0.0152455929315,-0.000979649903643,0.0,0.0,0.0,0.0,0.0,0.0,0.0,0.0,0.0,6.38548919311,-0.0701006430846,7.23151116912,0.0,0.0,0.0,0.0,0.0,0.0,0.0,0.0,0.0
134760000000,313,134760000000,imu_link,-0.00177912473899,-0.375458959272,0.00846248995208,0.926798678722,0.0,0.0,0.0,0.0,0.0,0.0,0.0,0.0,0.0,0.000731041384746,-0.0152190556434,-0.000969171612757,0.0,0.0,0.0,0.0,0.0,0.0,0.0,0.0,0.0,6.38594323759,-0.0702159692689,7.22587517972,0.0,0.0,0.0,0.0,0.0,0.0,0.0,0.0,0.0
134764000000,314,134764000000,imu_link,-0.00177667086658,-0.375486732963,0.00846144891379,0.926787440944,0.0,0.0,0.0,0.0,0.0,0.0,0.0,0.0,0.0,0.000814175278921,-0.0149894293683,-0.000920237288099,0.0,0.0,0.0,0.0,0.0,0.0,0.0,0.0,0.0,6.38796412286,-0.0702688882876,7.2229364298,0.0,0.0,0.0,0.0,0.0,0.0,0.0,0.0,0.0
134768000000,315,134768000000,imu_link,-0.00177460683206,-0.375513816539,0.00846047050774,0.926776480495,0.0,0.0,0.0,0.0,0.0,0.0,0.0,0.0,0.0,0.000648451694552,-0.0146159735121,-0.000818584666999,0.0,0.0,0.0,0.0,0.0,0.0,0.0,0.0,0.0,6.39031121744,-0.0703309262148,7.22170686686,0.0,0.0,0.0,0.0,0.0,0.0,0.0,0.0,0.0
134772000000,316,134772000000,imu_link,-0.00177349792977,-0.375540431036,0.00845943261428,0.926765707912,0.0,0.0,0.0,0.0,0.0,0.0,0.0,0.0,0.0,0.000196836481994,-0.0143592416383,-0.000667196266805,0.0,0.0,0.0,0.0,0.0,0.0,0.0,0.0,0.0,6.39204832418,-0.0704386025898,7.22304146195,0.0,0.0,0.0,0.0,0.0,0.0,0.0,0.0,0.0
134776000000,317,134776000000,imu_link,-0.00177384194919,-0.375566993921,0.0084582350646,0.926754954031,0.0,0.0,0.0,0.0,0.0,0.0,0.0,0.0,0.0,-0.000506166326906,-0.0143255272457,-0.000468396130343,0.0,0.0,0.0,0.0,0.0,0.0,0.0,0.0,0.0,6.39347625985,-0.0706536370684,7.22470945083,0.0,0.0,0.0,0.0,0.0,0.0,0.0,0.0,0.0
134780000000,318,134780000000,imu_link,-0.00177572233631,-0.375593939286,0.00845689666798,0.926744042593,0.0,0.0,0.0,0.0,0.0,0.0,0.0,0.0,0.0,-0.00124629053605,-0.0145257236996,-0.000244829833649,0.0,0.0,0.0,0.0,0.0,0.0,0.0,0.0,0.0,6.39497501958,-0.0709488020768,7.22684395199,0.0,0.0,0.0,0.0,0.0,0.0,0.0,0.0,0.0
134784000000,319,134784000000,imu_link,-0.00177872273498,-0.37562160633,0.00845549654089,0.926732836141,0.0,0.0,0.0,0.0,0.0,0.0,0.0,0.0,0.0,-0.00178017886171,-0.0149107420763,-6.24925337605e-05,0.0,0.0,0.0,0.0,0.0,0.0,0.0,0.0,0.0,6.39651739195,-0.071282874422,7.22832083726,0.0,0.0,0.0,0.0,0.0,0.0,0.0,0.0,0.0
134788000000,320,134788000000,imu_link,-0.00178213910096,-0.375650183033,0.00845410187328,0.926721259133,0.0,0.0,0.0,0.0,0.0,0.0,0.0,0.0,0.0,-0.00197607416161,-0.0154000874583,1.89179602522e-05,0.0,0.0,0.0,0.0,0.0,0.0,0.0,0.0,0.0,6.39911732997,-0.0716257697569,7.23085151453,0.0,0.0,0.0,0.0,0.0,0.0,0.0,0.0,0.0
134792000000,321,134792000000,imu_link,-0.00178545071916,-0.375679684854,0.00845273316959,0.926709306016,0.0,0.0,0.0,0.0,0.0,0.0,0.0,0.0,0.0,-0.00192690715007,-0.0158998596379,1.20398486083e-05,0.0,0.0,0.0,0.0,0.0,0.0,0.0,0.0,0.0,6.40030366243,-0.0718293474806,7.22902306869,0.0,0.0,0.0,0.0,0.0,0.0,0.0,0.0,0.0
134796000000,322,134796000000,imu_link,-0.00178848973441,-0.375710101632,0.0084513880702,0.926696981152,0.0,0.0,0.0,0.0,0.0,0.0,0.0,0.0,0.0,-0.00180036028509,-0.0163948113492,-2.74743501586e-05,0.0,0.0,0.0,0.0,0.0,0.0,0.0,0.0,0.0,6.40043517171,-0.071889191072,7.22468997591,0.0,0.0,0.0,0.0,0.0,0.0,0.0,0.0,0.0
134800000000,323,134800000000,imu_link,-0.00179126815788,-0.375741236326,0.00845005642082,0.926684364403,0.0,0.0,0.0,0.0,0.0,0.0,0.0,0.0,0.0,-0.00168038354205,-0.0167834022201,-6.96043678172e-05,0.0,0.0,0.0,0.0,0.0,0.0,0.0,0.0,0.0,6.40042735662,-0.0719292447279,7.21847926168,0.0,0.0,0.0,0.0,0.0,0.0,0.0,0.0,0.0
134804000000,324,134804000000,imu_link,-0.00179393565862,-0.37577291081,0.00844872769798,0.926671527725,0.0,0.0,0.0,0.0,0.0,0.0,0.0,0.0,0.0,-0.00163091615202,-0.0170752987118,-8.86417471667e-05,0.0,0.0,0.0,0.0,0.0,0.0,0.0,0.0,0.0,6.40081209011,-0.071979629973,7.21328961697,0.0,0.0,0.0,0.0,0.0,0.0,0.0,0.0,0.0
134808000000,325,134808000000,imu_link,-0.00179665192008,-0.375804897364,0.00844738726694,0.92665856323,0.0,0.0,0.0,0.0,0.0,0.0,0.0,0.0,0.0,-0.00165714148843,-0.0172436903262,-8.4645068672e-05,0.0,0.0,0.0,0.0,0.0,0.0,0.0,0.0,0.0,6.40216178393,-0.0720596726179,7.20985435162,0.0,0.0,0.0,0.0,0.0,0.0,0.0,0.0,0.0
134812000000,326,134812000000,imu_link,-0.00179958719661,-0.375836954711,0.00844600707456,0.926645568663,0.0,0.0,0.0,0.0,0.0,0.0,0.0,0.0,0.0,-0.00176641486921,-0.0172811812986,-6.18507759278e-05,0.0,0.0,0.0,0.0,0.0,0.0,0.0,0.0,0.0,6.40293634462,-0.0721434323267,7.20542497854,0.0,0.0,0.0,0.0,0.0,0.0,0.0,0.0,0.0
134816000000,327,134816000000,imu_link,-0.00180282427653,-0.375868757433,0.00844458069409,0.926632675912,0.0,0.0,0.0,0.0,0.0,0.0,0.0,0.0,0.0,-0.00191375994627,-0.0171427579104,-2.67371926282e-05,0.0,0.0,0.0,0.0,0.0,0.0,0.0,0.0,0.0,6.40406445331,-0.072265717801,7.20120524098,0.0,0.0,0.0,0.0,0.0,0.0,0.0,0.0,0.0
134820000000,328,134820000000,imu_link,-0.00180640048013,-0.375900107984,0.00844310876477,0.926619965061,0.0,0.0,0.0,0.0,0.0,0.0,0.0,0.0,0.0,-0.00207736852471,-0.0168976017923,1.55318366113e-05,0.0,0.0,0.0,0.0,0.0,0.0,0.0,0.0,0.0,6.40445692197,-0.072406630859,7.19663589119,0.0,0.0,0.0,0.0,0.0,0.0,0.0,0.0,0.0
134824000000,329,134824000000,imu_link,-0.00181012929642,-0.375930849075,0.008441623532,0.926607500044,0.0,0.0,0.0,0.0,0.0,0.0,0.0,0.0,0.0,-0.00214778098802,-0.0165683725184,3.75644399275e-05,0.0,0.0,0.0,0.0,0.0,0.0,0.0,0.0,0.0,6.4057430145,-0.0725600063802,7.19408507087,0.0,0.0,0.0,0.0,0.0,0.0,0.0,0.0,0.0
134828000000,330,134828000000,imu_link,-0.00181368521371,-0.375961053183,0.0084401507164,0.926595251926,0.0,0.0,0.0,0.0,0.0,0.0,0.0,0.0,0.0,-0.00206287942077,-0.0162795574639,1.03888432049e-05,0.0,0.0,0.0,0.0,0.0,0.0,0.0,0.0,0.0,6.40757936939,-0.0726670964087,7.19476028023,0.0,0.0,0.0,0.0,0.0,0.0,0.0,0.0,0.0
134832000000,331,134832000000,imu_link,-0.00181688370246,-0.375990653079,0.00843868727149,0.926583248439,0.0,0.0,0.0,0.0,0.0,0.0,0.0,0.0,0.0,-0.00189275045231,-0.0159551581024,-5.29437808095e-05,0.0,0.0,0.0,0.0,0.0,0.0,0.0,0.0,0.0,6.40909113283,-0.0727002899221,7.19339324378,0.0,0.0,0.0,0.0,0.0,0.0,0.0,0.0,0.0
134836000000,332,134836000000,imu_link,-0.0018197464746,-0.376019246889,0.00843721145838,0.926571652898,0.0,0.0,0.0,0.0,0.0,0.0,0.0,0.0,0.0,-0.00173492531063,-0.0154137605957,-0.000122594312511,0.0,0.0,0.0,0.0,0.0,0.0,0.0,0.0,0.0,6.41079627722,-0.0726850420522,7.18942720987,0.0,0.0,0.0,0.0,0.0,0.0,0.0,0.0,0.0
134840000000,333,134840000000,imu_link,-0.00182257677338,-0.376046467151,0.00843565136912,0.926560614608,0.0,0.0,0.0,0.0,0.0,0.0,0.0,0.0,0.0,-0.0017294240974,-0.0146727065676,-0.000168844628191,0.0,0.0,0.0,0.0,0.0,0.0,0.0,0.0,0.0,6.41201649626,-0.0726222067489,7.18494154233,0.0,0.0,0.0,0.0,0.0,0.0,0.0,0.0,0.0
134844000000,334,134844000000,imu_link,-0.00182586239891,-0.37607216871,0.00843390051162,0.926550192634,0.0,0.0,0.0,0.0,0.0,0.0,0.0,0.0,0.0,-0.00196926961632,-0.0138511460293,-0.000172827325501,0.0,0.0,0.0,0.0,0.0,0.0,0.0,0.0,0.0,6.41382664287,-0.0725964603141,7.18378084552,0.0,0.0,0.0,0.0,0.0,0.0,0.0,0.0,0.0
134848000000,335,134848000000,imu_link,-0.00182992628471,-0.376096432987,0.00843191034178,0.926540353871,0.0,0.0,0.0,0.0,0.0,0.0,0.0,0.0,0.0,-0.00236822419348,-0.0130721236074,-0.000138500993939,0.0,0.0,0.0,0.0,0.0,0.0,0.0,0.0,0.0,6.41438095569,-0.0726964592401,7.18183467359,0.0,0.0,0.0,0.0,0.0,0.0,0.0,0.0,0.0
134852000000,336,134852000000,imu_link,-0.0018347745314,-0.376119414413,0.0084297252783,0.926531035333,0.0,0.0,0.0,0.0,0.0,0.0,0.0,0.0,0.0,-0.00276236017164,-0.0123765044206,-8.23112194978e-05,0.0,0.0,0.0,0.0,0.0,0.0,0.0,0.0,0.0,6.41561160036,-0.0729456408209,7.18184344358,0.0,0.0,0.0,0.0,0.0,0.0,0.0,0.0,0.0
134856000000,337,134856000000,imu_link,-0.00184020138537,-0.376141458575,0.0084274588634,0.926522096195,0.0,0.0,0.0,0.0,0.0,0.0,0.0,0.0,0.0,-0.00304140940669,-0.011868439485,-1.1925096173e-05,0.0,0.0,0.0,0.0,0.0,0.0,0.0,0.0,0.0,6.41701955826,-0.0732164321308,7.18372765489,0.0,0.0,0.0,0.0,0.0,0.0,0.0,0.0,0.0
134860000000,338,134860000000,imu_link,-0.00184580881825,-0.376162804476,0.00842519953794,0.926513439477,0.0,0.0,0.0,0.0,0.0,0.0,0.0,0.0,0.0,-0.00312052912421,-0.0114910926728,2.47731976453e-05,0.0,0.0,0.0,0.0,0.0,0.0,0.0,0.0,0.0,6.41886630332,-0.0734755917668,7.18571074632,0.0,0.0,0.0,0.0,0.0,0.0,0.0,0.0,0.0
134864000000,339,134864000000,imu_link,-0.00185122079366,-0.376183833457,0.00842295862764,0.926504911048,0.0,0.0,0.0,0.0,0.0,0.0,0.0,0.0,0.0,-0.00302506513221,-0.0113209887435,-3.70570764929e-06,0.0,0.0,0.0,0.0,0.0,0.0,0.0,0.0,0.0,6.42117904201,-0.0736736021141,7.18965882257,0.0,0.0,0.0,0.0,0.0,0.0,0.0,0.0,0.0
134868000000,340,134868000000,imu_link,-0.00185614653997,-0.376204537265,0.00842070740255,0.92649651513,0.0,0.0,0.0,0.0,0.0,0.0,0.0,0.0,0.0,-0.00280026632387,-0.0111474660148,-0.000100196914548,0.0,0.0,0.0,0.0,0.0,0.0,0.0,0.0,0.0,6.42383596603,-0.0737544588531,7.19090424949,0.0,0.0,0.0,0.0,0.0,0.0,0.0,0.0,0.0
134872000000,341,134872000000,imu_link,-0.00186058547522,-0.376224663637,0.00841838712487,0.92648835473,0.0,0.0,0.0,0.0,0.0,0.0,0.0,0.0,0.0,-0.00258509110987,-0.0108376533888,-0.000224211382264,0.0,0.0,0.0,0.0,0.0,0.0,0.0,0.0,0.0,6.4255952935,-0.0737013276018,7.18842166131,0.0,0.0,0.0,0.0,0.0,0.0,0.0,0.0,0.0
134876000000,342,134876000000,imu_link,-0.00186457196585,-0.376243840339,0.0084159903048,0.926480581062,0.0,0.0,0.0,0.0,0.0,0.0,0.0,0.0,0.0,-0.00238554022303,-0.0103268087666,-0.000345523964837,0.0,0.0,0.0,0.0,0.0,0.0,0.0,0.0,0.0,6.42647808629,-0.0735903508937,7.18328803907,0.0,0.0,0.0,0.0,0.0,0.0,0.0,0.0,0.0
134880000000,343,134880000000,imu_link,-0.0018681296686,-0.376261990899,0.00841351035483,0.926473225269,0.0,0.0,0.0,0.0,0.0,0.0,0.0,0.0,0.0,-0.00219783937802,-0.00977457393179,-0.000465499242475,0.0,0.0,0.0,0.0,0.0,0.0,0.0,0.0,0.0,6.42676470159,-0.0735162482156,7.17970443224,0.0,0.0,0.0,0.0,0.0,0.0,0.0,0.0,0.0
134884000000,344,134884000000,imu_link,-0.001871376235,-0.376279420965,0.00841090316072,0.92646616345,0.0,0.0,0.0,0.0,0.0,0.0,0.0,0.0,0.0,-0.00207434266098,-0.00938669872124,-0.00058354146682,0.0,0.0,0.0,0.0,0.0,0.0,0.0,0.0,0.0,6.42791566554,-0.0734554735833,7.1810451628,0.0,0.0,0.0,0.0,0.0,0.0,0.0,0.0,0.0
134888000000,345,134888000000,imu_link,-0.00187446555667,-0.376296784919,0.00840816732614,0.926459129569,0.0,0.0,0.0,0.0,0.0,0.0,0.0,0.0,0.0,-0.0020253999088,-0.00935135839958,-0.000672771598772,0.0,0.0,0.0,0.0,0.0,0.0,0.0,0.0,0.0,6.4304375997,-0.0734278582565,7.18776548203,0.0,0.0,0.0,0.0,0.0,0.0,0.0,0.0,0.0
134892000000,346,134892000000,imu_link,-0.00187745269352,-0.3763146714,0.0084053232887,0.926451884234,0.0,0.0,0.0,0.0,0.0,0.0,0.0,0.0,0.0,-0.00200081800364,-0.00963352127748,-0.000741721030869,0.0,0.0,0.0,0.0,0.0,0.0,0.0,0.0,0.0,6.43310286696,-0.073482206345,7.19372579155,0.0,0.0,0.0,0.0,0.0,0.0,0.0,0.0,0.0
134896000000,347,134896000000,imu_link,-0.00188023962808,-0.376333247028,0.0084024093273,0.92644435958,0.0,0.0,0.0,0.0,0.0,0.0,0.0,0.0,0.0,-0.00192439426905,-0.0100060834074,-0.000811254192188,0.0,0.0,0.0,0.0,0.0,0.0,0.0,0.0,0.0,6.43278680105,-0.073585564426,7.19015478339,0.0,0.0,0.0,0.0,0.0,0.0,0.0,0.0,0.0
134900000000,348,134900000000,imu_link,-0.00188258061675,-0.376352244709,0.00839946989223,0.926436664159,0.0,0.0,0.0,0.0,0.0,0.0,0.0,0.0,0.0,-0.00172454921573,-0.010235570607,-0.000906645645209,0.0,0.0,0.0,0.0,0.0,0.0,0.0,0.0,0.0,6.43353300313,-0.0736825847461,7.18496557602,0.0,0.0,0.0,0.0,0.0,0.0,0.0,0.0,0.0
134904000000,349,134904000000,imu_link,-0.00188407904177,-0.376371049488,0.00839656819648,0.92642904801,0.0,0.0,0.0,0.0,0.0,0.0,0.0,0.0,0.0,-0.00132627188694,-0.0101348710936,-0.00104786580106,0.0,0.0,0.0,0.0,0.0,0.0,0.0,0.0,0.0,6.43623100644,-0.0737920907465,7.18103319233,0.0,0.0,0.0,0.0,0.0,0.0,0.0,0.0,0.0
134908000000,350,134908000000,imu_link,-0.00188464560532,-0.37638913745,0.00839373483791,0.926421723912,0.0,0.0,0.0,0.0,0.0,0.0,0.0,0.0,0.0,-0.000878475526985,-0.00975184817443,-0.0011921247145,0.0,0.0,0.0,0.0,0.0,0.0,0.0,0.0,0.0,6.43741791651,-0.0737836061324,7.1750365614,0.0,0.0,0.0,0.0,0.0,0.0,0.0,0.0,0.0
134912000000,351,134912000000,imu_link,-0.00188456029586,-0.376406321406,0.00839095964776,0.926414767496,0.0,0.0,0.0,0.0,0.0,0.0,0.0,0.0,0.0,-0.00056143341968,-0.00926669783284,-0.00128855067794,0.0,0.0,0.0,0.0,0.0,0.0,0.0,0.0,0.0,6.43772469928,-0.0736869747847,7.17022658697,0.0,0.0,0.0,0.0,0.0,0.0,0.0,0.0,0.0
134916000000,352,134916000000,imu_link,-0.00188432735961,-0.376422677464,0.00838819792727,0.926408147274,0.0,0.0,0.0,0.0,0.0,0.0,0.0,0.0,0.0,-0.000486726352733,-0.00882056861937,-0.00131072564583,0.0,0.0,0.0,0.0,0.0,0.0,0.0,0.0,0.0,6.43953189662,-0.073565738901,7.17076531763,0.0,0.0,0.0,0.0,0.0,0.0,0.0,0.0,0.0
134920000000,353,134920000000,imu_link,-0.00188451853597,-0.376438582094,0.00838540808471,0.926401709536,0.0,0.0,0.0,0.0,0.0,0.0,0.0,0.0,0.0,-0.000686404667116,-0.00857531446261,-0.00124426913517,0.0,0.0,0.0,0.0,0.0,0.0,0.0,0.0,0.0,6.44136832967,-0.0734481858672,7.17398227747,0.0,0.0,0.0,0.0,0.0,0.0,0.0,0.0,0.0
134924000000,354,134924000000,imu_link,-0.00188521420219,-0.37645433144,0.00838262587949,0.926395333479,0.0,0.0,0.0,0.0,0.0,0.0,0.0,0.0,0.0,-0.00091793812614,-0.0084896690824,-0.00114588907267,0.0,0.0,0.0,0.0,0.0,0.0,0.0,0.0,0.0,6.44234573054,-0.0735198316216,7.17459655101,0.0,0.0,0.0,0.0,0.0,0.0,0.0,0.0,0.0
134928000000,355,134928000000,imu_link,-0.00188635581038,-0.376470026489,0.00837989999314,0.926388977748,0.0,0.0,0.0,0.0,0.0,0.0,0.0,0.0,0.0,-0.00111364993069,-0.00845887724739,-0.00103589793689,0.0,0.0,0.0,0.0,0.0,0.0,0.0,0.0,0.0,6.44367697494,-0.073651113256,7.17437900882,0.0,0.0,0.0,0.0,0.0,0.0,0.0,0.0,0.0
134932000000,356,134932000000,imu_link,-0.00188778006381,-0.376485702154,0.00837727639691,0.926382628076,0.0,0.0,0.0,0.0,0.0,0.0,0.0,0.0,0.0,-0.00122522813253,-0.00844767006452,-0.000935321080074,0.0,0.0,0.0,0.0,0.0,0.0,0.0,0.0,0.0,6.4450926426,-0.0737852218023,7.17341140391,0.0,0.0,0.0,0.0,0.0,0.0,0.0,0.0,0.0
134936000000,357,134936000000,imu_link,-0.0018891895407,-0.376501289536,0.00837479985707,0.926376312666,0.0,0.0,0.0,0.0,0.0,0.0,0.0,0.0,0.0,-0.00119029932773,-0.00840052915327,-0.000870047602635,0.0,0.0,0.0,0.0,0.0,0.0,0.0,0.0,0.0,6.44636977294,-0.0739501936338,7.17126716921,0.0,0.0,0.0,0.0,0.0,0.0,0.0,0.0,0.0
134940000000,358,134940000000,imu_link,-0.00189015331673,-0.376516458105,0.00837250927004,0.926370166394,0.0,0.0,0.0,0.0,0.0,0.0,0.0,0.0,0.0,-0.000946936728426,-0.00817674160799,-0.000868132578047,0.0,0.0,0.0,0.0,0.0,0.0,0.0,0.0,0.0,6.44823330477,-0.0741363852751,7.168406013,0.0,0.0,0.0,0.0,0.0,0.0,0.0,0.0,0.0
134944000000,359,134944000000,imu_link,-0.00189051761532,-0.376530713293,0.00837043285382,0.926364390369,0.0,0.0,0.0,0.0,0.0,0.0,0.0,0.0,0.0,-0.000624774748345,-0.00768668759887,-0.000882475146243,0.0,0.0,0.0,0.0,0.0,0.0,0.0,0.0,0.0,6.44998110967,-0.0742361424115,7.16399452574,0.0,0.0,0.0,0.0,0.0,0.0,0.0,0.0,0.0
134948000000,360,134948000000,imu_link,-0.00189023129385,-0.376543792762,0.00836857215596,0.926359091367,0.0,0.0,0.0,0.0,0.0,0.0,0.0,0.0,0.0,-0.000277435275378,-0.0070552349904,-0.000905932545929,0.0,0.0,0.0,0.0,0.0,0.0,0.0,0.0,0.0,6.45090264068,-0.0742747945366,7.16018423644,0.0,0.0,0.0,0.0,0.0,0.0,0.0,0.0,0.0
134952000000,361,134952000000,imu_link,-0.00188932530033,-0.376555824982,0.00836690041102,0.926354217402,0.0,0.0,0.0,0.0,0.0,0.0,0.0,0.0,0.0,4.99423608112e-05,-0.00649291999632,-0.000935868958516,0.0,0.0,0.0,0.0,0.0,0.0,0.0,0.0,0.0,6.45171621596,-0.0742919014576,7.15956258654,0.0,0.0,0.0,0.0,0.0,0.0,0.0,0.0,0.0
134956000000,362,134956000000,imu_link,-0.00188766238629,-0.376567222805,0.00836545625938,0.926349600627,0.0,0.0,0.0,0.0,0.0,0.0,0.0,0.0,0.0,0.000446278346126,-0.0061540398295,-0.000973441010295,0.0,0.0,0.0,0.0,0.0,0.0,0.0,0.0,0.0,6.4530022747,-0.0743468339644,7.16184904455,0.0,0.0,0.0,0.0,0.0,0.0,0.0,0.0,0.0
134960000000,363,134960000000,imu_link,-0.00188494897778,-0.376578648492,0.00836430947162,0.926344971808,0.0,0.0,0.0,0.0,0.0,0.0,0.0,0.0,0.0,0.000988701739117,-0.00617388784816,-0.0010334763742,0.0,0.0,0.0,0.0,0.0,0.0,0.0,0.0,0.0,6.45552635653,-0.0743804466938,7.16828626535,0.0,0.0,0.0,0.0,0.0,0.0,0.0,0.0,0.0
134964000000,364,134964000000,imu_link,-0.00188084060825,-0.376590585826,0.00836351364588,0.926340134478,0.0,0.0,0.0,0.0,0.0,0.0,0.0,0.0,0.0,0.00169855539625,-0.00645629432576,-0.00113318688153,0.0,0.0,0.0,0.0,0.0,0.0,0.0,0.0,0.0,6.45836435977,-0.0743440234272,7.17402883692,0.0,0.0,0.0,0.0,0.0,0.0,0.0,0.0,0.0
134968000000,365,134968000000,imu_link,-0.0018752658219,-0.376603169079,0.00836304446396,0.926335034372,0.0,0.0,0.0,0.0,0.0,0.0,0.0,0.0,0.0,0.00243631307757,-0.00681138299413,-0.00125752319005,0.0,0.0,0.0,0.0,0.0,0.0,0.0,0.0,0.0,6.45947768683,-0.0742320837572,7.17342904562,0.0,0.0,0.0,0.0,0.0,0.0,0.0,0.0,0.0
134972000000,366,134972000000,imu_link,-0.00186838850139,-0.376616520249,0.00836283480635,0.926329622108,0.0,0.0,0.0,0.0,0.0,0.0,0.0,0.0,0.0,0.00308496967427,-0.00723152748572,-0.00138200393935,0.0,0.0,0.0,0.0,0.0,0.0,0.0,0.0,0.0,6.46081870794,-0.0740936803569,7.17290913337,0.0,0.0,0.0,0.0,0.0,0.0,0.0,0.0,0.0
134976000000,367,134976000000,imu_link,-0.00186030850948,-0.376630767432,0.00836283884582,0.926323845749,0.0,0.0,0.0,0.0,0.0,0.0,0.0,0.0,0.0,0.00367815893039,-0.00772031958666,-0.0015088145471,0.0,0.0,0.0,0.0,0.0,0.0,0.0,0.0,0.0,6.46156371347,-0.0739891479808,7.17130185928,0.0,0.0,0.0,0.0,0.0,0.0,0.0,0.0,0.0
134980000000,368,134980000000,imu_link,-0.00185105185944,-0.376646097183,0.00836303829355,0.926317629474,0.0,0.0,0.0,0.0,0.0,0.0,0.0,0.0,0.0,0.00425500469108,-0.00830966872562,-0.00163905919094,0.0,0.0,0.0,0.0,0.0,0.0,0.0,0.0,0.0,6.46249630102,-0.0739153766088,7.17044395861,0.0,0.0,0.0,0.0,0.0,0.0,0.0,0.0,0.0
134984000000,369,134984000000,imu_link,-0.00184047605455,-0.376662731629,0.00836344873045,0.926310883006,0.0,0.0,0.0,0.0,0.0,0.0,0.0,0.0,0.0,0.00489977070651,-0.00901950829429,-0.00178875547635,0.0,0.0,0.0,0.0,0.0,0.0,0.0,0.0,0.0,6.46469948571,-0.0739498703204,7.17281650851,0.0,0.0,0.0,0.0,0.0,0.0,0.0,0.0,0.0
134988000000,370,134988000000,imu_link,-0.00182874851351,-0.376680726832,0.00836404681079,0.926303583299,0.0,0.0,0.0,0.0,0.0,0.0,0.0,0.0,0.0,0.00546234328793,-0.00975893176918,-0.00191769416445,0.0,0.0,0.0,0.0,0.0,0.0,0.0,0.0,0.0,6.46622206716,-0.0739697311482,7.17243640775,0.0,0.0,0.0,0.0,0.0,0.0,0.0,0.0,0.0
134992000000,371,134992000000,imu_link,-0.00181631683933,-0.376699996896,0.00836479220791,0.926295764636,0.0,0.0,0.0,0.0,0.0,0.0,0.0,0.0,0.0,0.00581040349336,-0.0104502057121,-0.00198107624566,0.0,0.0,0.0,0.0,0.0,0.0,0.0,0.0,0.0,6.46797914695,-0.0739436233138,7.17129789578,0.0,0.0,0.0,0.0,0.0,0.0,0.0,0.0,0.0
134996000000,372,134996000000,imu_link,-0.0018040109889,-0.376720261904,0.00836561072734,0.926287539791,0.0,0.0,0.0,0.0,0.0,0.0,0.0,0.0,0.0,0.0057613709518,-0.010987056263,-0.00192271564307,0.0,0.0,0.0,0.0,0.0,0.0,0.0,0.0,0.0,6.47024285251,-0.0739221431071,7.16984675727,0.0,0.0,0.0,0.0,0.0,0.0,0.0,0.0,0.0
135000000000,373,135000000000,imu_link,-0.00179266936936,-0.376741294577,0.00836643498481,0.92627900012,0.0,0.0,0.0,0.0,0.0,0.0,0.0,0.0,0.0,0.00531237926727,-0.0113978684,-0.00173781103482,0.0,0.0,0.0,0.0,0.0,0.0,0.0,0.0,0.0,6.47225016871,-0.0740135211371,7.16848974148,0.0,0.0,0.0,0.0,0.0,0.0,0.0,0.0,0.0
135004000000,374,135004000000,imu_link,-0.00178285074235,-0.376763036301,0.00836723608654,0.926270168623,0.0,0.0,0.0,0.0,0.0,0.0,0.0,0.0,0.0,0.00459943171985,-0.0117748374231,-0.00146106306171,0.0,0.0,0.0,0.0,0.0,0.0,0.0,0.0,0.0,6.47345647864,-0.0742690805277,7.16671450625,0.0,0.0,0.0,0.0,0.0,0.0,0.0,0.0,0.0
135008000000,375,135008000000,imu_link,-0.00177460657058,-0.376785506018,0.00836800982047,0.926261037526,0.0,0.0,0.0,0.0,0.0,0.0,0.0,0.0,0.0,0.00386177796021,-0.0121618242685,-0.0011765353162,0.0,0.0,0.0,0.0,0.0,0.0,0.0,0.0,0.0,6.47426510609,-0.0746664670967,7.16453116785,0.0,0.0,0.0,0.0,0.0,0.0,0.0,0.0,0.0
135012000000,376,135012000000,imu_link,-0.00176765138867,-0.376808739688,0.00836876147181,0.926251592676,0.0,0.0,0.0,0.0,0.0,0.0,0.0,0.0,0.0,0.00325717243565,-0.0125693302497,-0.000943291205524,0.0,0.0,0.0,0.0,0.0,0.0,0.0,0.0,0.0,6.4750447685,-0.0750934294641,7.16278047919,0.0,0.0,0.0,0.0,0.0,0.0,0.0,0.0,0.0
135016000000,377,135016000000,imu_link,-0.00176150478588,-0.376832761749,0.00836950144118,0.926241824913,0.0,0.0,0.0,0.0,0.0,0.0,0.0,0.0,0.0,0.00287691332471,-0.0129918993303,-0.000795707204394,0.0,0.0,0.0,0.0,0.0,0.0,0.0,0.0,0.0,6.47574649755,-0.0754886653308,7.16086613601,0.0,0.0,0.0,0.0,0.0,0.0,0.0,0.0,0.0
135020000000,378,135020000000,imu_link,-0.00175586734053,-0.376857415237,0.00837023434739,0.926231798573,0.0,0.0,0.0,0.0,0.0,0.0,0.0,0.0,0.0,0.00263691094322,-0.0133309096133,-0.000702518738698,0.0,0.0,0.0,0.0,0.0,0.0,0.0,0.0,0.0,6.47661784628,-0.0757690889795,7.15766476259,0.0,0.0,0.0,0.0,0.0,0.0,0.0,0.0,0.0
135024000000,379,135024000000,imu_link,-0.00175079539471,-0.376882274366,0.00837092556097,0.926221687065,0.0,0.0,0.0,0.0,0.0,0.0,0.0,0.0,0.0,0.00236622763199,-0.013439789597,-0.000615095015202,0.0,0.0,0.0,0.0,0.0,0.0,0.0,0.0,0.0,6.47866209993,-0.0759490130629,7.1541931924,0.0,0.0,0.0,0.0,0.0,0.0,0.0,0.0,0.0
135028000000,380,135028000000,imu_link,-0.00174654296055,-0.376906953629,0.00837151797473,0.926211647293,0.0,0.0,0.0,0.0,0.0,0.0,0.0,0.0,0.0,0.00196890056606,-0.0133394573729,-0.00050656337129,0.0,0.0,0.0,0.0,0.0,0.0,0.0,0.0,0.0,6.47943068127,-0.0761244726342,7.14884688539,0.0,0.0,0.0,0.0,0.0,0.0,0.0,0.0,0.0
135032000000,381,135032000000,imu_link,-0.0017432581719,-0.376931283326,0.00837195713635,0.92620174856,0.0,0.0,0.0,0.0,0.0,0.0,0.0,0.0,0.0,0.00149348376111,-0.0131468077574,-0.000395464256364,0.0,0.0,0.0,0.0,0.0,0.0,0.0,0.0,0.0,6.48058940314,-0.0764088044486,7.14617455948,0.0,0.0,0.0,0.0,0.0,0.0,0.0,0.0,0.0
