%time,field.header.seq,field.header.stamp,field.header.frame_id,field.orientation.x,field.orientation.y,field.orientation.z,field.orientation.w,field.orientation_covariance0,field.orientation_covariance1,field.orientation_covariance2,field.orientation_covariance3,field.orientation_covariance4,field.orientation_covariance5,field.orientation_covariance6,field.orientation_covariance7,field.orientation_covariance8,field.angular_velocity.x,field.angular_velocity.y,field.angular_velocity.z,field.angular_velocity_covariance0,field.angular_velocity_covariance1,field.angular_velocity_covariance2,field.angular_velocity_covariance3,field.angular_velocity_covariance4,field.angular_velocity_covariance5,field.angular_velocity_covariance6,field.angular_velocity_covariance7,field.angular_velocity_covariance8,field.linear_acceleration.x,field.linear_acceleration.y,field.linear_acceleration.z,field.linear_acceleration_covariance0,field.linear_acceleration_covariance1,field.linear_acceleration_covariance2,field.linear_acceleration_covariance3,field.linear_acceleration_covariance4,field.linear_acceleration_covariance5,field.linear_acceleration_covariance6,field.linear_acceleration_covariance7,field.linear_acceleration_covariance8
20316000000,0,20316000000,imu_link,-0.000823319218177,-0.268943533559,-8.62365502423e-05,0.963155589957,0.0,0.0,0.0,0.0,0.0,0.0,0.0,0.0,0.0,0.00231279820887,-0.206365793442,-0.00059444705269,0.0,0.0,0.0,0.0,0.0,0.0,0.0,0.0,0.0,3.618096706,-0.0111267521503,9.19957526844,0.0,0.0,0.0,0.0,0.0,0.0,0.0,0.0,0.0
20320000000,1,20320000000,imu_link,-0.000816239952302,-0.269341383127,-8.54781455155e-05,0.963044415269,0.0,0.0,0.0,0.0,0.0,0.0,0.0,0.0,0.0,0.00348259002953,-0.206545399285,-0.000755302836824,0.0,0.0,0.0,0.0,0.0,0.0,0.0,0.0,0.0,3.62533901678,-0.0110902004454,9.19314209644,0.0,0.0,0.0,0.0,0.0,0.0,0.0,0.0,0.0
20324000000,2,20324000000,imu_link,-0.000806972757053,-0.269739173429,-8.44154434478e-05,0.96293308178,0.0,0.0,0.0,0.0,0.0,0.0,0.0,0.0,0.0,0.0045770392955,-0.206538277688,-0.000903409483082,0.0,0.0,0.0,0.0,0.0,0.0,0.0,0.0,0.0,3.63333521252,-0.0109467265978,9.18955807915,0.0,0.0,0.0,0.0,0.0,0.0,0.0,0.0,0.0
20328000000,3,20328000000,imu_link,-0.000796148957475,-0.270136354838,-8.31538809999e-05,0.962821743121,0.0,0.0,0.0,0.0,0.0,0.0,0.0,0.0,0.0,0.00535328469398,-0.206245827847,-0.00101735799404,0.0,0.0,0.0,0.0,0.0,0.0,0.0,0.0,0.0,3.64230041744,-0.0105385160013,9.18716731609,0.0,0.0,0.0,0.0,0.0,0.0,0.0,0.0,0.0
20332000000,4,20332000000,imu_link,-0.00078477103115,-0.270532876577,-8.18677033085e-05,0.962710413428,0.0,0.0,0.0,0.0,0.0,0.0,0.0,0.0,0.0,0.0056233482339,-0.205927030647,-0.00108008987203,0.0,0.0,0.0,0.0,0.0,0.0,0.0,0.0,0.0,3.64965054265,-0.00995833084424,9.182617428,0.0,0.0,0.0,0.0,0.0,0.0,0.0,0.0,0.0
20336000000,5,20336000000,imu_link,-0.000773709592829,-0.270928567736,-8.06700780017e-05,0.962599140894,0.0,0.0,0.0,0.0,0.0,0.0,0.0,0.0,0.0,0.00545901533316,-0.205519473897,-0.00107957657129,0.0,0.0,0.0,0.0,0.0,0.0,0.0,0.0,0.0,3.65773193221,-0.00948074071121,9.18148037106,0.0,0.0,0.0,0.0,0.0,0.0,0.0,0.0,0.0
20340000000,6,20340000000,imu_link,-0.000763711585097,-0.271323255815,-7.96542164945e-05,0.962487974602,0.0,0.0,0.0,0.0,0.0,0.0,0.0,0.0,0.0,0.00492256473816,-0.205022272057,-0.00102261020972,0.0,0.0,0.0,0.0,0.0,0.0,0.0,0.0,0.0,3.66636129643,-0.00925933221637,9.18077989497,0.0,0.0,0.0,0.0,0.0,0.0,0.0,0.0,0.0
20344000000,7,20344000000,imu_link,-0.00075543053167,-0.271717240182,-7.89238097521e-05,0.962376830812,0.0,0.0,0.0,0.0,0.0,0.0,0.0,0.0,0.0,0.00405754603608,-0.204680521335,-0.000926789161675,0.0,0.0,0.0,0.0,0.0,0.0,0.0,0.0,0.0,3.67436421139,-0.00954947991981,9.18137277484,0.0,0.0,0.0,0.0,0.0,0.0,0.0,0.0,0.0
20348000000,8,20348000000,imu_link,-0.000748870672993,-0.272110695714,-7.84243352262e-05,0.96226566099,0.0,0.0,0.0,0.0,0.0,0.0,0.0,0.0,0.0,0.00319792215524,-0.204429569411,-0.000803873193176,0.0,0.0,0.0,0.0,0.0,0.0,0.0,0.0,0.0,3.68111449436,-0.0104076480287,9.17793655619,0.0,0.0,0.0,0.0,0.0,0.0,0.0,0.0,0.0
20352000000,9,20352000000,imu_link,-0.00074371818479,-0.272503560997,-7.80773760243e-05,0.962154483454,0.0,0.0,0.0,0.0,0.0,0.0,0.0,0.0,0.0,0.00250001339811,-0.204146628835,-0.0006855523258,0.0,0.0,0.0,0.0,0.0,0.0,0.0,0.0,0.0,3.6876989307,-0.0110319665891,9.17236199756,0.0,0.0,0.0,0.0,0.0,0.0,0.0,0.0,0.0
20356000000,10,20356000000,imu_link,-0.000739633031854,-0.272895671866,-7.78478801822e-05,0.96204334578,0.0,0.0,0.0,0.0,0.0,0.0,0.0,0.0,0.0,0.00197052342609,-0.203778264028,-0.000596352844633,0.0,0.0,0.0,0.0,0.0,0.0,0.0,0.0,0.0,3.69419392855,-0.0111761637663,9.1677222701,0.0,0.0,0.0,0.0,0.0,0.0,0.0,0.0,0.0
20360000000,11,20360000000,imu_link,-0.000736697264298,-0.273286659153,-7.77660129318e-05,0.961932353733,0.0,0.0,0.0,0.0,0.0,0.0,0.0,0.0,0.0,0.00139751061939,-0.203217916038,-0.000510113054139,0.0,0.0,0.0,0.0,0.0,0.0,0.0,0.0,0.0,3.69972762044,-0.0110861559826,9.16176407872,0.0,0.0,0.0,0.0,0.0,0.0,0.0,0.0,0.0
20364000000,12,20364000000,imu_link,-0.000735269987546,-0.273676934968,-7.78583172934e-05,0.961821391207,0.0,0.0,0.0,0.0,0.0,0.0,0.0,0.0,0.0,0.000648161323104,-0.202871682935,-0.000387495274702,0.0,0.0,0.0,0.0,0.0,0.0,0.0,0.0,0.0,3.70566102584,-0.0108571151892,9.16310030585,0.0,0.0,0.0,0.0,0.0,0.0,0.0,0.0,0.0
20368000000,13,20368000000,imu_link,-0.000734977820178,-0.274066641594,-7.80107722018e-05,0.961710418831,0.0,0.0,0.0,0.0,0.0,0.0,0.0,0.0,0.0,9.40183462857e-05,-0.202599323878,-0.000260886806763,0.0,0.0,0.0,0.0,0.0,0.0,0.0,0.0,0.0,3.7131252342,-0.0111427147054,9.16137013592,0.0,0.0,0.0,0.0,0.0,0.0,0.0,0.0,0.0
20372000000,14,20372000000,imu_link,-0.000735328923942,-0.274456302728,-7.80710080229e-05,0.961599288212,0.0,0.0,0.0,0.0,0.0,0.0,0.0,0.0,0.0,-0.000202724792537,-0.202599191939,-0.000128382642126,0.0,0.0,0.0,0.0,0.0,0.0,0.0,0.0,0.0,3.72077969006,-0.0115862696114,9.16357052304,0.0,0.0,0.0,0.0,0.0,0.0,0.0,0.0,0.0
20376000000,15,20376000000,imu_link,-0.000736165761063,-0.27484605862,-7.80219649705e-05,0.96148795938,0.0,0.0,0.0,0.0,0.0,0.0,0.0,0.0,0.0,-0.000421338274242,-0.202672011413,-9.22767503744e-06,0.0,0.0,0.0,0.0,0.0,0.0,0.0,0.0,0.0,3.72937388294,-0.0118695843563,9.16003722159,0.0,0.0,0.0,0.0,0.0,0.0,0.0,0.0,0.0
20380000000,16,20380000000,imu_link,-0.000737464692317,-0.275235572005,-7.79204362154e-05,0.961376528722,0.0,0.0,0.0,0.0,0.0,0.0,0.0,0.0,0.0,-0.000636321461342,-0.202569458181,7.95921838468e-05,0.0,0.0,0.0,0.0,0.0,0.0,0.0,0.0,0.0,3.73756951773,-0.0121070700459,9.15334942339,0.0,0.0,0.0,0.0,0.0,0.0,0.0,0.0,0.0
20384000000,17,20384000000,imu_link,-0.000739289845757,-0.275624478139,-7.7843708706e-05,0.961265101021,0.0,0.0,0.0,0.0,0.0,0.0,0.0,0.0,0.0,-0.000892705971993,-0.202277163796,0.000140312081688,0.0,0.0,0.0,0.0,0.0,0.0,0.0,0.0,0.0,3.74565854556,-0.0121870291641,9.14876783088,0.0,0.0,0.0,0.0,0.0,0.0,0.0,0.0,0.0
20388000000,18,20388000000,imu_link,-0.000741824059272,-0.276012894459,-7.78421327076e-05,0.961153643145,0.0,0.0,0.0,0.0,0.0,0.0,0.0,0.0,0.0,-0.00124389037001,-0.20204590182,0.000202088863602,0.0,0.0,0.0,0.0,0.0,0.0,0.0,0.0,0.0,3.75300113593,-0.0120434087489,9.14509396122,0.0,0.0,0.0,0.0,0.0,0.0,0.0,0.0,0.0
20392000000,19,20392000000,imu_link,-0.000745124803742,-0.276401260633,-7.7922195296e-05,0.961042029173,0.0,0.0,0.0,0.0,0.0,0.0,0.0,0.0,0.0,-0.0016235939112,-0.202043344634,0.00026865399439,0.0,0.0,0.0,0.0,0.0,0.0,0.0,0.0,0.0,3.76086393094,-0.0121345233051,9.14596781316,0.0,0.0,0.0,0.0,0.0,0.0,0.0,0.0,0.0
20396000000,20,20396000000,imu_link,-0.00074895118053,-0.276790126106,-7.79970581531e-05,0.960930101037,0.0,0.0,0.0,0.0,0.0,0.0,0.0,0.0,0.0,-0.00187555029359,-0.202326708424,0.000343597038287,0.0,0.0,0.0,0.0,0.0,0.0,0.0,0.0,0.0,3.76873850617,-0.0125744710325,9.14462424886,0.0,0.0,0.0,0.0,0.0,0.0,0.0,0.0,0.0
20400000000,21,20400000000,imu_link,-0.000753143357015,-0.277179605715,-7.79971129153e-05,0.960817825015,0.0,0.0,0.0,0.0,0.0,0.0,0.0,0.0,0.0,-0.00204105753052,-0.202669967238,0.000429921046757,0.0,0.0,0.0,0.0,0.0,0.0,0.0,0.0,0.0,3.77598422111,-0.0127616879643,9.14165150948,0.0,0.0,0.0,0.0,0.0,0.0,0.0,0.0,0.0
20404000000,22,20404000000,imu_link,-0.000757506303225,-0.27756976558,-7.78293530875e-05,0.960705181293,0.0,0.0,0.0,0.0,0.0,0.0,0.0,0.0,0.0,-0.00209995138016,-0.203047797796,0.000533937117816,0.0,0.0,0.0,0.0,0.0,0.0,0.0,0.0,0.0,3.78311237294,-0.0127115460675,9.1418845463,0.0,0.0,0.0,0.0,0.0,0.0,0.0,0.0,0.0
20408000000,23,20408000000,imu_link,-0.000761893908953,-0.277960069104,-7.74360194494e-05,0.9605923243,0.0,0.0,0.0,0.0,0.0,0.0,0.0,0.0,0.0,-0.00208056559299,-0.20314648977,0.000645651748872,0.0,0.0,0.0,0.0,0.0,0.0,0.0,0.0,0.0,3.78982242579,-0.012648277204,9.14034190615,0.0,0.0,0.0,0.0,0.0,0.0,0.0,0.0,0.0
20412000000,24,20412000000,imu_link,-0.000766495592341,-0.278350208367,-7.68886471717e-05,0.960479342867,0.0,0.0,0.0,0.0,0.0,0.0,0.0,0.0,0.0,-0.00216203174804,-0.203084957758,0.000749446201944,0.0,0.0,0.0,0.0,0.0,0.0,0.0,0.0,0.0,3.79575778253,-0.0124438342308,9.13505114045,0.0,0.0,0.0,0.0,0.0,0.0,0.0,0.0,0.0
20416000000,25,20416000000,imu_link,-0.000770938301995,-0.278739934295,-7.61559586341e-05,0.96036630974,0.0,0.0,0.0,0.0,0.0,0.0,0.0,0.0,0.0,-0.00205993053784,-0.202893716878,0.000816473663888,0.0,0.0,0.0,0.0,0.0,0.0,0.0,0.0,0.0,3.80279813987,-0.01254528111,9.1291104749,0.0,0.0,0.0,0.0,0.0,0.0,0.0,0.0,0.0
20420000000,26,20420000000,imu_link,-0.000774672512456,-0.279129206053,-7.5174301496e-05,0.960253237724,0.0,0.0,0.0,0.0,0.0,0.0,0.0,0.0,0.0,-0.0016850546676,-0.202681121636,0.000837454271385,0.0,0.0,0.0,0.0,0.0,0.0,0.0,0.0,0.0,3.80999831445,-0.0126195838597,9.12695752498,0.0,0.0,0.0,0.0,0.0,0.0,0.0,0.0,0.0
20424000000,27,20424000000,imu_link,-0.000777806548356,-0.279518497266,-7.39712329762e-05,0.960139989393,0.0,0.0,0.0,0.0,0.0,0.0,0.0,0.0,0.0,-0.00136606122912,-0.202715132631,0.000859982484581,0.0,0.0,0.0,0.0,0.0,0.0,0.0,0.0,0.0,3.81954108682,-0.0124426672856,9.13049810451,0.0,0.0,0.0,0.0,0.0,0.0,0.0,0.0,0.0
20428000000,28,20428000000,imu_link,-0.000780490270838,-0.279908117114,-7.25885747817e-05,0.960026474395,0.0,0.0,0.0,0.0,0.0,0.0,0.0,0.0,0.0,-0.00112487148411,-0.202910222772,0.00088312496582,0.0,0.0,0.0,0.0,0.0,0.0,0.0,0.0,0.0,3.82809497111,-0.0123394068793,9.13192170215,0.0,0.0,0.0,0.0,0.0,0.0,0.0,0.0,0.0
20432000000,29,20432000000,imu_link,-0.00078274803877,-0.280298219972,-7.1044004208e-05,0.95991264714,0.0,0.0,0.0,0.0,0.0,0.0,0.0,0.0,0.0,-0.000897851674578,-0.203185823554,0.00090103115905,0.0,0.0,0.0,0.0,0.0,0.0,0.0,0.0,0.0,3.83519714238,-0.0123104108432,9.12813005195,0.0,0.0,0.0,0.0,0.0,0.0,0.0,0.0,0.0
20436000000,30,20436000000,imu_link,-0.000784187731718,-0.280688453819,-6.92752525057e-05,0.959798610201,0.0,0.0,0.0,0.0,0.0,0.0,0.0,0.0,0.0,-0.000473870004644,-0.203278138347,0.000893917113919,0.0,0.0,0.0,0.0,0.0,0.0,0.0,0.0,0.0,3.8430431338,-0.0123512312921,9.12491369394,0.0,0.0,0.0,0.0,0.0,0.0,0.0,0.0,0.0
20440000000,31,20440000000,imu_link,-0.000784429293962,-0.281077928228,-6.72528712954e-05,0.959684624453,0.0,0.0,0.0,0.0,0.0,0.0,0.0,0.0,0.0,0.000136701342166,-0.20290655759,0.000847782551529,0.0,0.0,0.0,0.0,0.0,0.0,0.0,0.0,0.0,3.85052753656,-0.0124884120962,9.11947078513,0.0,0.0,0.0,0.0,0.0,0.0,0.0,0.0,0.0
20444000000,32,20444000000,imu_link,-0.0007833149868,-0.281466245679,-6.50505437508e-05,0.959570807564,0.0,0.0,0.0,0.0,0.0,0.0,0.0,0.0,0.0,0.000812621704425,-0.202327694167,0.000744035379637,0.0,0.0,0.0,0.0,0.0,0.0,0.0,0.0,0.0,3.85805711504,-0.0126146119671,9.1180199968,0.0,0.0,0.0,0.0,0.0,0.0,0.0,0.0,0.0
20448000000,33,20448000000,imu_link,-0.00078094751673,-0.281853123714,-6.27787056657e-05,0.959457243879,0.0,0.0,0.0,0.0,0.0,0.0,0.0,0.0,0.0,0.00142370581282,-0.201601435211,0.000601595974668,0.0,0.0,0.0,0.0,0.0,0.0,0.0,0.0,0.0,3.86545230593,-0.0124655872688,9.11729283654,0.0,0.0,0.0,0.0,0.0,0.0,0.0,0.0,0.0
20452000000,34,20452000000,imu_link,-0.00077740445948,-0.282238921458,-6.04424933187e-05,0.959343829502,0.0,0.0,0.0,0.0,0.0,0.0,0.0,0.0,0.0,0.0019967651104,-0.201062135891,0.000467233191699,0.0,0.0,0.0,0.0,0.0,0.0,0.0,0.0,0.0,3.87269142159,-0.0121916676589,9.11716877009,0.0,0.0,0.0,0.0,0.0,0.0,0.0,0.0,0.0
20456000000,35,20456000000,imu_link,-0.000772701246247,-0.282624224174,-5.79888527289e-05,0.959230393326,0.0,0.0,0.0,0.0,0.0,0.0,0.0,0.0,0.0,0.00256980737529,-0.200827771439,0.000360031386059,0.0,0.0,0.0,0.0,0.0,0.0,0.0,0.0,0.0,3.87892115102,-0.0118120363098,9.11768119029,0.0,0.0,0.0,0.0,0.0,0.0,0.0,0.0,0.0
20460000000,36,20460000000,imu_link,-0.000766978711346,-0.283009791568,-5.5376871817e-05,0.959116711643,0.0,0.0,0.0,0.0,0.0,0.0,0.0,0.0,0.0,0.00308097780645,-0.200989439648,0.000291821931026,0.0,0.0,0.0,0.0,0.0,0.0,0.0,0.0,0.0,3.88466295912,-0.011441463618,9.11983534144,0.0,0.0,0.0,0.0,0.0,0.0,0.0,0.0,0.0
20464000000,37,20464000000,imu_link,-0.000760040999679,-0.283396689922,-5.24876787538e-05,0.959002469092,0.0,0.0,0.0,0.0,0.0,0.0,0.0,0.0,0.0,0.00370277467292,-0.201707151033,0.000252281931109,0.0,0.0,0.0,0.0,0.0,0.0,0.0,0.0,0.0,3.89281621101,-0.0113470802336,9.12827335195,0.0,0.0,0.0,0.0,0.0,0.0,0.0,0.0,0.0
20468000000,38,20468000000,imu_link,-0.000751961247366,-0.28378548827,-4.93389672044e-05,0.958887495365,0.0,0.0,0.0,0.0,0.0,0.0,0.0,0.0,0.0,0.00428692996483,-0.202721875861,0.000214154867802,0.0,0.0,0.0,0.0,0.0,0.0,0.0,0.0,0.0,3.90090697952,-0.0112124533784,9.12943467484,0.0,0.0,0.0,0.0,0.0,0.0,0.0,0.0,0.0
20472000000,39,20472000000,imu_link,-0.000743354051432,-0.28417657396,-4.60316129544e-05,0.958771672568,0.0,0.0,0.0,0.0,0.0,0.0,0.0,0.0,0.0,0.00456205698012,-0.20393905159,0.00021449375376,0.0,0.0,0.0,0.0,0.0,0.0,0.0,0.0,0.0,3.91035319409,-0.0109117377572,9.12815618599,0.0,0.0,0.0,0.0,0.0,0.0,0.0,0.0,0.0
20476000000,40,20476000000,imu_link,-0.000734664153335,-0.284569636208,-4.26347849017e-05,0.958655089487,0.0,0.0,0.0,0.0,0.0,0.0,0.0,0.0,0.0,0.00461417932559,-0.204994644577,0.000244883081713,0.0,0.0,0.0,0.0,0.0,0.0,0.0,0.0,0.0,3.91870206457,-0.0107197559806,9.12045643491,0.0,0.0,0.0,0.0,0.0,0.0,0.0,0.0,0.0
20480000000,41,20480000000,imu_link,-0.000725863594506,-0.284963623431,-3.91146738816e-05,0.958538056059,0.0,0.0,0.0,0.0,0.0,0.0,0.0,0.0,0.0,0.00468461765613,-0.205502131141,0.00028788129224,0.0,0.0,0.0,0.0,0.0,0.0,0.0,0.0,0.0,3.92835406262,-0.0107348389405,9.11689783364,0.0,0.0,0.0,0.0,0.0,0.0,0.0,0.0,0.0
20484000000,42,20484000000,imu_link,-0.000716599464999,-0.285357731968,-3.54079268972e-05,0.95842081052,0.0,0.0,0.0,0.0,0.0,0.0,0.0,0.0,0.0,0.00493331036668,-0.205590553768,0.000311231564474,0.0,0.0,0.0,0.0,0.0,0.0,0.0,0.0,0.0,3.93742966753,-0.0107581787162,9.11497859636,0.0,0.0,0.0,0.0,0.0,0.0,0.0,0.0,0.0
20488000000,43,20488000000,imu_link,-0.000706864285948,-0.285751634068,-3.15673305272e-05,0.958303450361,0.0,0.0,0.0,0.0,0.0,0.0,0.0,0.0,0.0,0.00517809498569,-0.205508020423,0.000308236704762,0.0,0.0,0.0,0.0,0.0,0.0,0.0,0.0,0.0,3.94495993579,-0.0109655386907,9.11120233655,0.0,0.0,0.0,0.0,0.0,0.0,0.0,0.0,0.0
20492000000,44,20492000000,imu_link,-0.000697118195683,-0.286145388941,-2.77353099975e-05,0.958185957758,0.0,0.0,0.0,0.0,0.0,0.0,0.0,0.0,0.0,0.00518204869893,-0.205456395861,0.000302618571531,0.0,0.0,0.0,0.0,0.0,0.0,0.0,0.0,0.0,3.9515643755,-0.011250876758,9.10775322576,0.0,0.0,0.0,0.0,0.0,0.0,0.0,0.0,0.0
20496000000,45,20496000000,imu_link,-0.000688011075676,-0.286539314648,-2.40701312571e-05,0.958068237247,0.0,0.0,0.0,0.0,0.0,0.0,0.0,0.0,0.0,0.00485197493245,-0.205570800122,0.000314042332352,0.0,0.0,0.0,0.0,0.0,0.0,0.0,0.0,0.0,3.95723355927,-0.0115319190277,9.10454589176,0.0,0.0,0.0,0.0,0.0,0.0,0.0,0.0,0.0
20500000000,46,20500000000,imu_link,-0.000680277929785,-0.286933249026,-2.07705316829e-05,0.957950336601,0.0,0.0,0.0,0.0,0.0,0.0,0.0,0.0,0.0,0.00414135612725,-0.205600651949,0.000335761091006,0.0,0.0,0.0,0.0,0.0,0.0,0.0,0.0,0.0,3.96259666018,-0.0116348843446,9.10180020808,0.0,0.0,0.0,0.0,0.0,0.0,0.0,0.0,0.0
20504000000,47,20504000000,imu_link,-0.00067432272829,-0.28732725969,-1.795109864e-05,0.957832235209,0.0,0.0,0.0,0.0,0.0,0.0,0.0,0.0,0.0,0.00322080947282,-0.205665846685,0.000360820896279,0.0,0.0,0.0,0.0,0.0,0.0,0.0,0.0,0.0,3.96764259791,-0.0115173234986,9.10176428641,0.0,0.0,0.0,0.0,0.0,0.0,0.0,0.0,0.0
20508000000,48,20508000000,imu_link,-0.000670311901371,-0.287721119985,-1.56253750051e-05,0.957714000917,0.0,0.0,0.0,0.0,0.0,0.0,0.0,0.0,0.0,0.00221864282087,-0.20561277644,0.000403760922039,0.0,0.0,0.0,0.0,0.0,0.0,0.0,0.0,0.0,3.97317042085,-0.0115084356594,9.10034655228,0.0,0.0,0.0,0.0,0.0,0.0,0.0,0.0,0.0
20512000000,49,20512000000,imu_link,-0.00066768879314,-0.288114818462,-1.36648962551e-05,0.957595637724,0.0,0.0,0.0,0.0,0.0,0.0,0.0,0.0,0.0,0.00150153515165,-0.205553721207,0.000428552068745,0.0,0.0,0.0,0.0,0.0,0.0,0.0,0.0,0.0,3.97985076141,-0.0117932886302,9.10072966506,0.0,0.0,0.0,0.0,0.0,0.0,0.0,0.0,0.0
20516000000,50,20516000000,imu_link,-0.000665831361843,-0.288508283369,-1.19108781434e-05,0.95747716785,0.0,0.0,0.0,0.0,0.0,0.0,0.0,0.0,0.0,0.00110515127719,-0.205457192506,0.000440077849074,0.0,0.0,0.0,0.0,0.0,0.0,0.0,0.0,0.0,3.98704346173,-0.0122168008791,9.09976049777,0.0,0.0,0.0,0.0,0.0,0.0,0.0,0.0,0.0
20520000000,51,20520000000,imu_link,-0.00066444543086,-0.288900911911,-1.02485681646e-05,0.95735877366,0.0,0.0,0.0,0.0,0.0,0.0,0.0,0.0,0.0,0.00086621680094,-0.205045846691,0.000464468392416,0.0,0.0,0.0,0.0,0.0,0.0,0.0,0.0,0.0,3.99548403276,-0.0124624163548,9.09468166782,0.0,0.0,0.0,0.0,0.0,0.0,0.0,0.0,0.0
20524000000,52,20524000000,imu_link,-0.000663480266574,-0.289292561933,-8.66684321951e-06,0.957240499211,0.0,0.0,0.0,0.0,0.0,0.0,0.0,0.0,0.0,0.000653198660346,-0.204560128103,0.000486999640673,0.0,0.0,0.0,0.0,0.0,0.0,0.0,0.0,0.0,4.00481311549,-0.0125990548838,9.09310052863,0.0,0.0,0.0,0.0,0.0,0.0,0.0,0.0,0.0
20528000000,53,20528000000,imu_link,-0.000662868852619,-0.289683010651,-7.14420964112e-06,0.957122413223,0.0,0.0,0.0,0.0,0.0,0.0,0.0,0.0,0.0,0.000475396540966,-0.20395788141,0.000510285324955,0.0,0.0,0.0,0.0,0.0,0.0,0.0,0.0,0.0,4.01383804139,-0.0126267616699,9.09088652723,0.0,0.0,0.0,0.0,0.0,0.0,0.0,0.0,0.0
20532000000,54,20532000000,imu_link,-0.000662331534335,-0.29007277017,-5.60453996873e-06,0.957004362211,0.0,0.0,0.0,0.0,0.0,0.0,0.0,0.0,0.0,0.000442413888549,-0.203622997019,0.000529398817987,0.0,0.0,0.0,0.0,0.0,0.0,0.0,0.0,0.0,4.02224722295,-0.0125391777018,9.09056500183,0.0,0.0,0.0,0.0,0.0,0.0,0.0,0.0,0.0
20536000000,55,20536000000,imu_link,-0.00066165683262,-0.290462178589,-4.03802474141e-06,0.956886244547,0.0,0.0,0.0,0.0,0.0,0.0,0.0,0.0,0.0,0.000512022691002,-0.20346467093,0.000522434962876,0.0,0.0,0.0,0.0,0.0,0.0,0.0,0.0,0.0,4.03027286615,-0.0124792328041,9.08863243662,0.0,0.0,0.0,0.0,0.0,0.0,0.0,0.0,0.0
20540000000,56,20540000000,imu_link,-0.000660840515111,-0.290851230052,-2.50359538916e-06,0.956768062417,0.0,0.0,0.0,0.0,0.0,0.0,0.0,0.0,0.0,0.000575095884663,-0.203303238813,0.000486634638846,0.0,0.0,0.0,0.0,0.0,0.0,0.0,0.0,0.0,4.03783062686,-0.0126156259682,9.084800956,0.0,0.0,0.0,0.0,0.0,0.0,0.0,0.0,0.0
20544000000,57,20544000000,imu_link,-0.000660030292305,-0.291240345268,-1.0709629787e-06,0.95664968805,0.0,0.0,0.0,0.0,0.0,0.0,0.0,0.0,0.0,0.000557312952407,-0.203361659928,0.000438801623505,0.0,0.0,0.0,0.0,0.0,0.0,0.0,0.0,0.0,4.04515070607,-0.0129475127188,9.08486697376,0.0,0.0,0.0,0.0,0.0,0.0,0.0,0.0,0.0
20548000000,58,20548000000,imu_link,-0.000659459385179,-0.291629596963,2.23813114027e-07,0.956531098966,0.0,0.0,0.0,0.0,0.0,0.0,0.0,0.0,0.0,0.000422696857824,-0.203458163318,0.000407665554776,0.0,0.0,0.0,0.0,0.0,0.0,0.0,0.0,0.0,4.05148679412,-0.0132087920718,9.08252800615,0.0,0.0,0.0,0.0,0.0,0.0,0.0,0.0,0.0
20552000000,59,20552000000,imu_link,-0.000659348607867,-0.292019499704,1.34302809111e-06,0.956412137653,0.0,0.0,0.0,0.0,0.0,0.0,0.0,0.0,0.0,0.000176910383627,-0.203823754467,0.000390579828567,0.0,0.0,0.0,0.0,0.0,0.0,0.0,0.0,0.0,4.0571099477,-0.0132755082792,9.08330521589,0.0,0.0,0.0,0.0,0.0,0.0,0.0,0.0,0.0
20556000000,60,20556000000,imu_link,-0.000660012812003,-0.292409990194,2.1923109547e-06,0.956292822316,0.0,0.0,0.0,0.0,0.0,0.0,0.0,0.0,0.0,-0.000233220310347,-0.204156421184,0.000374457971966,0.0,0.0,0.0,0.0,0.0,0.0,0.0,0.0,0.0,4.06163557742,-0.0132324695366,9.08089623108,0.0,0.0,0.0,0.0,0.0,0.0,0.0,0.0,0.0
20560000000,61,20560000000,imu_link,-0.000661670107782,-0.292801094453,2.68568775039e-06,0.956173143982,0.0,0.0,0.0,0.0,0.0,0.0,0.0,0.0,0.0,-0.000760219268316,-0.204502845752,0.000349275570073,0.0,0.0,0.0,0.0,0.0,0.0,0.0,0.0,0.0,4.0661707963,-0.0130777437528,9.07795919385,0.0,0.0,0.0,0.0,0.0,0.0,0.0,0.0,0.0
20564000000,62,20564000000,imu_link,-0.000664148857314,-0.293193355247,2.89315598321e-06,0.956052935426,0.0,0.0,0.0,0.0,0.0,0.0,0.0,0.0,0.0,-0.00119497945348,-0.205133299581,0.000332465892335,0.0,0.0,0.0,0.0,0.0,0.0,0.0,0.0,0.0,4.07308307097,-0.0131966751341,9.08332275971,0.0,0.0,0.0,0.0,0.0,0.0,0.0,0.0,0.0
20568000000,63,20568000000,imu_link,-0.000667734513331,-0.293586778624,2.85568956198e-06,0.955932192961,0.0,0.0,0.0,0.0,0.0,0.0,0.0,0.0,0.0,-0.00176019568511,-0.205767231029,0.000377264170621,0.0,0.0,0.0,0.0,0.0,0.0,0.0,0.0,0.0,4.08202941748,-0.0131402360393,9.08561996631,0.0,0.0,0.0,0.0,0.0,0.0,0.0,0.0,0.0
20572000000,64,20572000000,imu_link,-0.000672383729548,-0.293981355255,2.66755519808e-06,0.955810917836,0.0,0.0,0.0,0.0,0.0,0.0,0.0,0.0,0.0,-0.00229083799057,-0.206396586981,0.000460989342535,0.0,0.0,0.0,0.0,0.0,0.0,0.0,0.0,0.0,4.08881738168,-0.0132097679209,9.08062603369,0.0,0.0,0.0,0.0,0.0,0.0,0.0,0.0,0.0
20576000000,65,20576000000,imu_link,-0.000677552980642,-0.294376687757,2.52768216313e-06,0.955689231194,0.0,0.0,0.0,0.0,0.0,0.0,0.0,0.0,0.0,-0.00253241090965,-0.206818326459,0.000560240413943,0.0,0.0,0.0,0.0,0.0,0.0,0.0,0.0,0.0,4.09602193033,-0.0134091129072,9.07506899815,0.0,0.0,0.0,0.0,0.0,0.0,0.0,0.0,0.0
20580000000,66,20580000000,imu_link,-0.000682422584343,-0.294772149718,2.62773997965e-06,0.955567325751,0.0,0.0,0.0,0.0,0.0,0.0,0.0,0.0,0.0,-0.0023539852651,-0.206912474516,0.000630741900847,0.0,0.0,0.0,0.0,0.0,0.0,0.0,0.0,0.0,4.10433911749,-0.0135641017486,9.07266968632,0.0,0.0,0.0,0.0,0.0,0.0,0.0,0.0,0.0
20584000000,67,20584000000,imu_link,-0.000686307753537,-0.295167741722,3.05521366912e-06,0.955445201578,0.0,0.0,0.0,0.0,0.0,0.0,0.0,0.0,0.0,-0.00183545675981,-0.20700695787,0.000642039834109,0.0,0.0,0.0,0.0,0.0,0.0,0.0,0.0,0.0,4.1133120875,-0.0135769915278,9.07160866014,0.0,0.0,0.0,0.0,0.0,0.0,0.0,0.0,0.0
20588000000,68,20588000000,imu_link,-0.000688592545671,-0.29556327755,3.83169167809e-06,0.9553229165,0.0,0.0,0.0,0.0,0.0,0.0,0.0,0.0,0.0,-0.00101946811981,-0.207003990249,0.000572596761109,0.0,0.0,0.0,0.0,0.0,0.0,0.0,0.0,0.0,4.12182637105,-0.0137050690146,9.06845709706,0.0,0.0,0.0,0.0,0.0,0.0,0.0,0.0,0.0
20592000000,69,20592000000,imu_link,-0.000689192255333,-0.295958849649,4.89255993229e-06,0.955200441952,0.0,0.0,0.0,0.0,0.0,0.0,0.0,0.0,0.0,-0.000172606742882,-0.207049417026,0.000459402636291,0.0,0.0,0.0,0.0,0.0,0.0,0.0,0.0,0.0,4.12917457984,-0.0136664889859,9.06375971821,0.0,0.0,0.0,0.0,0.0,0.0,0.0,0.0,0.0
20596000000,70,20596000000,imu_link,-0.000688521241606,-0.296354186033,6.12636158201e-06,0.955077861916,0.0,0.0,0.0,0.0,0.0,0.0,0.0,0.0,0.0,0.000459845893019,-0.206952512078,0.000354036223536,0.0,0.0,0.0,0.0,0.0,0.0,0.0,0.0,0.0,4.13595157207,-0.0134106729191,9.05825811095,0.0,0.0,0.0,0.0,0.0,0.0,0.0,0.0,0.0
20600000000,71,20600000000,imu_link,-0.000687294494304,-0.296748936584,7.43889741979e-06,0.954955284925,0.0,0.0,0.0,0.0,0.0,0.0,0.0,0.0,0.0,0.000736899779747,-0.20667233159,0.000309489543899,0.0,0.0,0.0,0.0,0.0,0.0,0.0,0.0,0.0,4.14194890829,-0.0130420680599,9.05423230276,0.0,0.0,0.0,0.0,0.0,0.0,0.0,0.0,0.0
20604000000,72,20604000000,imu_link,-0.000686255496091,-0.297143154203,8.69600181712e-06,0.954832694711,0.0,0.0,0.0,0.0,0.0,0.0,0.0,0.0,0.0,0.000639026606417,-0.206419810401,0.000311062631706,0.0,0.0,0.0,0.0,0.0,0.0,0.0,0.0,0.0,4.14670838348,-0.0127895578531,9.05141396287,0.0,0.0,0.0,0.0,0.0,0.0,0.0,0.0,0.0
20608000000,73,20608000000,imu_link,-0.000685331139899,-0.297536639928,9.90095317583e-06,0.954710153986,0.0,0.0,0.0,0.0,0.0,0.0,0.0,0.0,0.0,0.0005765663302,-0.20606302113,0.000303447381539,0.0,0.0,0.0,0.0,0.0,0.0,0.0,0.0,0.0,4.15212863457,-0.0128164565792,9.04864055221,0.0,0.0,0.0,0.0,0.0,0.0,0.0,0.0,0.0
20612000000,74,20612000000,imu_link,-0.000684154002111,-0.29792934672,1.10880651572e-05,0.95458767862,0.0,0.0,0.0,0.0,0.0,0.0,0.0,0.0,0.0,0.000694605236646,-0.205681465489,0.000257592356525,0.0,0.0,0.0,0.0,0.0,0.0,0.0,0.0,0.0,4.15752872464,-0.0130355592091,9.04437406343,0.0,0.0,0.0,0.0,0.0,0.0,0.0,0.0,0.0
20616000000,75,20616000000,imu_link,-0.0006830208961,-0.298320929247,1.21238910958e-05,0.954465377323,0.0,0.0,0.0,0.0,0.0,0.0,0.0,0.0,0.0,0.000651118638458,-0.205118878295,0.000192327254444,0.0,0.0,0.0,0.0,0.0,0.0,0.0,0.0,0.0,4.1647118678,-0.0128422029939,9.03981809405,0.0,0.0,0.0,0.0,0.0,0.0,0.0,0.0,0.0
20620000000,76,20620000000,imu_link,-0.000682003796661,-0.298710915952,1.29159475829e-05,0.954343399094,0.0,0.0,0.0,0.0,0.0,0.0,0.0,0.0,0.0,0.000559515742288,-0.204309026873,9.38391208475e-05,0.0,0.0,0.0,0.0,0.0,0.0,0.0,0.0,0.0,4.17203851662,-0.0127247905016,9.03668253747,0.0,0.0,0.0,0.0,0.0,0.0,0.0,0.0,0.0
20624000000,77,20624000000,imu_link,-0.000680889994819,-0.299099380835,1.35256375447e-05,0.954221722971,0.0,0.0,0.0,0.0,0.0,0.0,0.0,0.0,0.0,0.000578534804265,-0.203537673719,-7.10707101171e-06,0.0,0.0,0.0,0.0,0.0,0.0,0.0,0.0,0.0,4.17961099,-0.0127046716431,9.03507662182,0.0,0.0,0.0,0.0,0.0,0.0,0.0,0.0,0.0
20628000000,78,20628000000,imu_link,-0.000679622707323,-0.299486499951,1.40235710356e-05,0.954100295705,0.0,0.0,0.0,0.0,0.0,0.0,0.0,0.0,0.0,0.000635145158743,-0.202858339444,-8.29245582691e-05,0.0,0.0,0.0,0.0,0.0,0.0,0.0,0.0,0.0,4.18625161652,-0.012548574913,9.03241449093,0.0,0.0,0.0,0.0,0.0,0.0,0.0,0.0,0.0
20632000000,79,20632000000,imu_link,-0.000678127113356,-0.29987257832,1.44837415298e-05,0.9539790232,0.0,0.0,0.0,0.0,0.0,0.0,0.0,0.0,0.0,0.000738463936196,-0.202338665418,-0.000134774186362,0.0,0.0,0.0,0.0,0.0,0.0,0.0,0.0,0.0,4.19187048694,-0.0125025233588,9.02765127805,0.0,0.0,0.0,0.0,0.0,0.0,0.0,0.0,0.0
20636000000,80,20636000000,imu_link,-0.0006763121114,-0.30025788348,1.49678381185e-05,0.953857822626,0.0,0.0,0.0,0.0,0.0,0.0,0.0,0.0,0.0,0.000894435588099,-0.20195907852,-0.000170990896092,0.0,0.0,0.0,0.0,0.0,0.0,0.0,0.0,0.0,4.1978085106,-0.012763043765,9.02464839772,0.0,0.0,0.0,0.0,0.0,0.0,0.0,0.0,0.0
20640000000,81,20640000000,imu_link,-0.000674231252284,-0.30064249956,1.54865861399e-05,0.95373666839,0.0,0.0,0.0,0.0,0.0,0.0,0.0,0.0,0.0,0.00102645357337,-0.201623492736,-0.000194144811543,0.0,0.0,0.0,0.0,0.0,0.0,0.0,0.0,0.0,4.20444179158,-0.0129398881953,9.02167612521,0.0,0.0,0.0,0.0,0.0,0.0,0.0,0.0,0.0
20644000000,82,20644000000,imu_link,-0.000672313009371,-0.301026645881,1.59953796615e-05,0.953615491804,0.0,0.0,0.0,0.0,0.0,0.0,0.0,0.0,0.0,0.000947406779081,-0.201402834623,-0.000174288588703,0.0,0.0,0.0,0.0,0.0,0.0,0.0,0.0,0.0,4.21174775708,-0.0128303663327,9.02392047547,0.0,0.0,0.0,0.0,0.0,0.0,0.0,0.0,0.0
20648000000,83,20648000000,imu_link,-0.000671132455203,-0.301410387653,1.64208174744e-05,0.953494272414,0.0,0.0,0.0,0.0,0.0,0.0,0.0,0.0,0.0,0.000583113744027,-0.201216351201,-0.000102864912196,0.0,0.0,0.0,0.0,0.0,0.0,0.0,0.0,0.0,4.21834081919,-0.0125268411489,9.02459039012,0.0,0.0,0.0,0.0,0.0,0.0,0.0,0.0,0.0
20652000000,84,20652000000,imu_link,-0.000671108854205,-0.301793944203,1.66948350966e-05,0.953372940972,0.0,0.0,0.0,0.0,0.0,0.0,0.0,0.0,0.0,8.68369715671e-06,-0.201144873853,-6.32120238522e-07,0.0,0.0,0.0,0.0,0.0,0.0,0.0,0.0,0.0,4.22348775623,-0.0124098245833,9.02241273725,0.0,0.0,0.0,0.0,0.0,0.0,0.0,0.0,0.0
20656000000,85,20656000000,imu_link,-0.00067202524756,-0.302177323975,1.68420710841e-05,0.953251495133,0.0,0.0,0.0,0.0,0.0,0.0,0.0,0.0,0.0,-0.000458566806294,-0.20107781777,8.08353715948e-05,0.0,0.0,0.0,0.0,0.0,0.0,0.0,0.0,0.0,4.22910843417,-0.0125647476564,9.01773266249,0.0,0.0,0.0,0.0,0.0,0.0,0.0,0.0,0.0
20660000000,86,20660000000,imu_link,-0.000672936750898,-0.302560954406,1.69945019261e-05,0.953129800046,0.0,0.0,0.0,0.0,0.0,0.0,0.0,0.0,0.0,-0.000455537075536,-0.201234948494,8.24904214956e-05,0.0,0.0,0.0,0.0,0.0,0.0,0.0,0.0,0.0,4.23665907689,-0.0131644092302,9.02073583526,0.0,0.0,0.0,0.0,0.0,0.0,0.0,0.0,0.0
20664000000,87,20664000000,imu_link,-0.000673599197125,-0.30294526792,1.71413156435e-05,0.953007718025,0.0,0.0,0.0,0.0,0.0,0.0,0.0,0.0,0.0,-0.00033783094591,-0.201619018009,4.1909467114e-05,0.0,0.0,0.0,0.0,0.0,0.0,0.0,0.0,0.0,4.24597103761,-0.0133727283568,9.02357623461,0.0,0.0,0.0,0.0,0.0,0.0,0.0,0.0,0.0
20668000000,88,20668000000,imu_link,-0.000674179828444,-0.303330436689,1.71933166539e-05,0.952885193171,0.0,0.0,0.0,0.0,0.0,0.0,0.0,0.0,0.0,-0.000313363831004,-0.202093596146,-1.59461321011e-05,0.0,0.0,0.0,0.0,0.0,0.0,0.0,0.0,0.0,4.25379247149,-0.0133811501158,9.0214444691,0.0,0.0,0.0,0.0,0.0,0.0,0.0,0.0,0.0
20672000000,89,20672000000,imu_link,-0.00067510091709,-0.303716659794,1.70194255946e-05,0.952762160517,0.0,0.0,0.0,0.0,0.0,0.0,0.0,0.0,0.0,-0.000510012428529,-0.202672863533,-7.22862468233e-05,0.0,0.0,0.0,0.0,0.0,0.0,0.0,0.0,0.0,4.25988197099,-0.0131945044534,9.01451517413,0.0,0.0,0.0,0.0,0.0,0.0,0.0,0.0,0.0
20676000000,90,20676000000,imu_link,-0.000676769389055,-0.30410382157,1.65334111868e-05,0.952638655218,0.0,0.0,0.0,0.0,0.0,0.0,0.0,0.0,0.0,-0.000913617794706,-0.20319169236,-0.000107792352006,0.0,0.0,0.0,0.0,0.0,0.0,0.0,0.0,0.0,4.26616318101,-0.0128508188321,9.0086486003,0.0,0.0,0.0,0.0,0.0,0.0,0.0,0.0,0.0
20680000000,91,20680000000,imu_link,-0.000679254150097,-0.304491405091,1.57901847893e-05,0.952514841139,0.0,0.0,0.0,0.0,0.0,0.0,0.0,0.0,0.0,-0.00134164964192,-0.203439433804,-0.000106329238978,0.0,0.0,0.0,0.0,0.0,0.0,0.0,0.0,0.0,4.27376191273,-0.0127699699361,9.00296596729,0.0,0.0,0.0,0.0,0.0,0.0,0.0,0.0,0.0
20684000000,92,20684000000,imu_link,-0.000682400117882,-0.304879264852,1.49090272115e-05,0.952390764325,0.0,0.0,0.0,0.0,0.0,0.0,0.0,0.0,0.0,-0.00167764512995,-0.203610943972,-7.14458438293e-05,0.0,0.0,0.0,0.0,0.0,0.0,0.0,0.0,0.0,4.28064672122,-0.0130567037873,8.99851733708,0.0,0.0,0.0,0.0,0.0,0.0,0.0,0.0,0.0
20688000000,93,20688000000,imu_link,-0.000685776150554,-0.305267238091,1.40676374105e-05,0.952266476813,0.0,0.0,0.0,0.0,0.0,0.0,0.0,0.0,0.0,-0.00178121152676,-0.203697112267,-1.74747487813e-05,0.0,0.0,0.0,0.0,0.0,0.0,0.0,0.0,0.0,4.28684311673,-0.0135185784957,8.99381229668,0.0,0.0,0.0,0.0,0.0,0.0,0.0,0.0,0.0
20692000000,94,20692000000,imu_link,-0.000689231873644,-0.305655920892,1.33451666351e-05,0.952141787133,0.0,0.0,0.0,0.0,0.0,0.0,0.0,0.0,0.0,-0.00180114663344,-0.204096382959,5.10695228032e-05,0.0,0.0,0.0,0.0,0.0,0.0,0.0,0.0,0.0,4.29272348465,-0.013698786866,8.99472070667,0.0,0.0,0.0,0.0,0.0,0.0,0.0,0.0,0.0
20696000000,95,20696000000,imu_link,-0.000693053842351,-0.306045868381,1.26322701182e-05,0.952016515594,0.0,0.0,0.0,0.0,0.0,0.0,0.0,0.0,0.0,-0.00197425126982,-0.204787389166,0.000111168175638,0.0,0.0,0.0,0.0,0.0,0.0,0.0,0.0,0.0,4.29893563256,-0.0135511096242,8.99543274598,0.0,0.0,0.0,0.0,0.0,0.0,0.0,0.0,0.0
20700000000,96,20700000000,imu_link,-0.00069767126235,-0.30643716456,1.17782504727e-05,0.951890633052,0.0,0.0,0.0,0.0,0.0,0.0,0.0,0.0,0.0,-0.00237470801128,-0.205522820662,0.000165251197998,0.0,0.0,0.0,0.0,0.0,0.0,0.0,0.0,0.0,4.30391379078,-0.0133331165728,8.99269565798,0.0,0.0,0.0,0.0,0.0,0.0,0.0,0.0,0.0
20704000000,97,20704000000,imu_link,-0.000702715325049,-0.306829523831,1.08188289952e-05,0.951764229933,0.0,0.0,0.0,0.0,0.0,0.0,0.0,0.0,0.0,-0.00259410400128,-0.206108517152,0.000180087502033,0.0,0.0,0.0,0.0,0.0,0.0,0.0,0.0,0.0,4.3095294379,-0.0132770479192,8.98863797801,0.0,0.0,0.0,0.0,0.0,0.0,0.0,0.0,0.0
20708000000,98,20708000000,imu_link,-0.000707319572471,-0.307221622256,9.89997693646e-06,0.951637732763,0.0,0.0,0.0,0.0,0.0,0.0,0.0,0.0,0.0,-0.00237861144576,-0.205998830867,0.000132011761658,0.0,0.0,0.0,0.0,0.0,0.0,0.0,0.0,0.0,4.31754964646,-0.0135327210303,8.98731315171,0.0,0.0,0.0,0.0,0.0,0.0,0.0,0.0,0.0
20712000000,99,20712000000,imu_link,-0.000711200911269,-0.307612073492,9.04632640674e-06,0.951511590236,0.0,0.0,0.0,0.0,0.0,0.0,0.0,0.0,0.0,-0.00202448861574,-0.205160616562,5.2570081446e-05,0.0,0.0,0.0,0.0,0.0,0.0,0.0,0.0,0.0,4.32581770589,-0.0134023194398,8.98100045918,0.0,0.0,0.0,0.0,0.0,0.0,0.0,0.0,0.0
20716000000,100,20716000000,imu_link,-0.000714184184331,-0.307999808628,8.29671853317e-06,0.951386150707,0.0,0.0,0.0,0.0,0.0,0.0,0.0,0.0,0.0,-0.00158096393809,-0.203760331621,-3.50962942099e-05,0.0,0.0,0.0,0.0,0.0,0.0,0.0,0.0,0.0,4.33286191919,-0.0134032144783,8.97317432483,0.0,0.0,0.0,0.0,0.0,0.0,0.0,0.0,0.0
20720000000,101,20720000000,imu_link,-0.000716189219528,-0.308384377491,7.67361234997e-06,0.951261563784,0.0,0.0,0.0,0.0,0.0,0.0,0.0,0.0,0.0,-0.00109582407617,-0.20212290489,-0.000124441746624,0.0,0.0,0.0,0.0,0.0,0.0,0.0,0.0,0.0,4.33912139257,-0.0133856063177,8.96687547159,0.0,0.0,0.0,0.0,0.0,0.0,0.0,0.0,0.0
20724000000,102,20724000000,imu_link,-0.000717560570529,-0.308766590051,7.11803963426e-06,0.951137570452,0.0,0.0,0.0,0.0,0.0,0.0,0.0,0.0,0.0,-0.000783789604801,-0.200910674155,-0.000189188407204,0.0,0.0,0.0,0.0,0.0,0.0,0.0,0.0,0.0,4.34692749608,-0.0131610046782,8.97257647047,0.0,0.0,0.0,0.0,0.0,0.0,0.0,0.0,0.0
20728000000,103,20728000000,imu_link,-0.00071892999541,-0.309147213932,6.46063119518e-06,0.951013923776,0.0,0.0,0.0,0.0,0.0,0.0,0.0,0.0,0.0,-0.000798465309397,-0.200101593061,-0.000237346909942,0.0,0.0,0.0,0.0,0.0,0.0,0.0,0.0,0.0,4.35420148744,-0.0130133290808,8.97562524452,0.0,0.0,0.0,0.0,0.0,0.0,0.0,0.0,0.0
20732000000,104,20732000000,imu_link,-0.000720522098702,-0.309527054565,5.58742382302e-06,0.950890363454,0.0,0.0,0.0,0.0,0.0,0.0,0.0,0.0,0.0,-0.00093767370336,-0.199715727058,-0.000305259333977,0.0,0.0,0.0,0.0,0.0,0.0,0.0,0.0,0.0,4.35994391274,-0.0130833369572,8.97400472215,0.0,0.0,0.0,0.0,0.0,0.0,0.0,0.0,0.0
20736000000,105,20736000000,imu_link,-0.000721749171332,-0.309906319861,4.688090883e-06,0.950766823131,0.0,0.0,0.0,0.0,0.0,0.0,0.0,0.0,0.0,-0.000768156092869,-0.199439082132,-0.000373966831876,0.0,0.0,0.0,0.0,0.0,0.0,0.0,0.0,0.0,4.36671761007,-0.0133789294048,8.97118452729,0.0,0.0,0.0,0.0,0.0,0.0,0.0,0.0,0.0
20740000000,106,20740000000,imu_link,-0.000721904174652,-0.310284814195,3.95989228852e-06,0.950643367893,0.0,0.0,0.0,0.0,0.0,0.0,0.0,0.0,0.0,-0.000231961764731,-0.199059459637,-0.000458454915452,0.0,0.0,0.0,0.0,0.0,0.0,0.0,0.0,0.0,4.37262548246,-0.0132766420448,8.96689353263,0.0,0.0,0.0,0.0,0.0,0.0,0.0,0.0,0.0
20744000000,107,20744000000,imu_link,-0.000720676136748,-0.310662669023,3.50490946628e-06,0.950519955966,0.0,0.0,0.0,0.0,0.0,0.0,0.0,0.0,0.0,0.000467832026366,-0.198748870293,-0.000542927140347,0.0,0.0,0.0,0.0,0.0,0.0,0.0,0.0,0.0,4.37798084402,-0.0129648631022,8.96609792301,0.0,0.0,0.0,0.0,0.0,0.0,0.0,0.0,0.0
20748000000,108,20748000000,imu_link,-0.000718339257413,-0.311039948486,3.27797197212e-06,0.950396566926,0.0,0.0,0.0,0.0,0.0,0.0,0.0,0.0,0.0,0.0010302518651,-0.198471951505,-0.000606576861194,0.0,0.0,0.0,0.0,0.0,0.0,0.0,0.0,0.0,4.38214079797,-0.0125317406176,8.96383377659,0.0,0.0,0.0,0.0,0.0,0.0,0.0,0.0,0.0
20752000000,109,20752000000,imu_link,-0.000715501699244,-0.311417072414,3.09870138584e-06,0.950273063418,0.0,0.0,0.0,0.0,0.0,0.0,0.0,0.0,0.0,0.00127554590455,-0.198415861485,-0.000661735140956,0.0,0.0,0.0,0.0,0.0,0.0,0.0,0.0,0.0,4.38821236295,-0.0121502970205,8.96377274399,0.0,0.0,0.0,0.0,0.0,0.0,0.0,0.0,0.0
20756000000,110,20756000000,imu_link,-0.000712667994657,-0.311794465147,2.77826178149e-06,0.950149305952,0.0,0.0,0.0,0.0,0.0,0.0,0.0,0.0,0.0,0.00125164243409,-0.198583073607,-0.000728305440187,0.0,0.0,0.0,0.0,0.0,0.0,0.0,0.0,0.0,4.39502655151,-0.0120990872363,8.96328653132,0.0,0.0,0.0,0.0,0.0,0.0,0.0,0.0,0.0
20760000000,111,20760000000,imu_link,-0.000710456131232,-0.312172433389,2.13133358242e-06,0.950025192866,0.0,0.0,0.0,0.0,0.0,0.0,0.0,0.0,0.0,0.000905195245273,-0.198911806389,-0.000786673163944,0.0,0.0,0.0,0.0,0.0,0.0,0.0,0.0,0.0,4.40395497732,-0.0119280665151,8.96297441513,0.0,0.0,0.0,0.0,0.0,0.0,0.0,0.0,0.0
20764000000,112,20764000000,imu_link,-0.000708833853105,-0.312551667279,1.17094453204e-06,0.949900496281,0.0,0.0,0.0,0.0,0.0,0.0,0.0,0.0,0.0,0.000575999234392,-0.199603969323,-0.00084399385512,0.0,0.0,0.0,0.0,0.0,0.0,0.0,0.0,0.0,4.4121495152,-0.0120176200625,8.96329133519,0.0,0.0,0.0,0.0,0.0,0.0,0.0,0.0,0.0
20768000000,113,20768000000,imu_link,-0.000707365543611,-0.312932205563,1.54357584411e-08,0.949775202011,0.0,0.0,0.0,0.0,0.0,0.0,0.0,0.0,0.0,0.000472166694888,-0.200316826573,-0.000913066395184,0.0,0.0,0.0,0.0,0.0,0.0,0.0,0.0,0.0,4.41981595847,-0.0121517944614,8.96013089625,0.0,0.0,0.0,0.0,0.0,0.0,0.0,0.0,0.0
20772000000,114,20772000000,imu_link,-0.000705415115324,-0.313314135247,-1.19722815329e-06,0.94964928002,0.0,0.0,0.0,0.0,0.0,0.0,0.0,0.0,0.0,0.000691954083246,-0.201075782027,-0.0010161360283,0.0,0.0,0.0,0.0,0.0,0.0,0.0,0.0,0.0,4.4270959472,-0.012284587164,8.95808648959,0.0,0.0,0.0,0.0,0.0,0.0,0.0,0.0,0.0
20776000000,115,20776000000,imu_link,-0.000702654751741,-0.313697363263,-2.43070492571e-06,0.949522759365,0.0,0.0,0.0,0.0,0.0,0.0,0.0,0.0,0.0,0.00107306049255,-0.201786039221,-0.00115335887748,0.0,0.0,0.0,0.0,0.0,0.0,0.0,0.0,0.0,4.43309801411,-0.012466106022,8.95189187614,0.0,0.0,0.0,0.0,0.0,0.0,0.0,0.0,0.0
20780000000,116,20780000000,imu_link,-0.000699120825732,-0.314081395869,-3.6942974309e-06,0.949395801542,0.0,0.0,0.0,0.0,0.0,0.0,0.0,0.0,0.0,0.00143544186245,-0.202236585407,-0.00128927212825,0.0,0.0,0.0,0.0,0.0,0.0,0.0,0.0,0.0,4.43952960297,-0.0127026718408,8.94752746617,0.0,0.0,0.0,0.0,0.0,0.0,0.0,0.0,0.0
20784000000,117,20784000000,imu_link,-0.000695350552574,-0.314465976945,-5.06429197452e-06,0.949268489842,0.0,0.0,0.0,0.0,0.0,0.0,0.0,0.0,0.0,0.00153080322776,-0.202552478256,-0.00137708945828,0.0,0.0,0.0,0.0,0.0,0.0,0.0,0.0,0.0,4.44555999806,-0.0127561087607,8.94674113366,0.0,0.0,0.0,0.0,0.0,0.0,0.0,0.0,0.0
20788000000,118,20788000000,imu_link,-0.00069209065325,-0.31485082329,-6.64914533562e-06,0.949140916851,0.0,0.0,0.0,0.0,0.0,0.0,0.0,0.0,0.0,0.00125468923927,-0.20271939432,-0.00139891409889,0.0,0.0,0.0,0.0,0.0,0.0,0.0,0.0,0.0,4.45005432769,-0.0123321040692,8.94235961646,0.0,0.0,0.0,0.0,0.0,0.0,0.0,0.0,0.0
20792000000,119,20792000000,imu_link,-0.000689808111348,-0.315236073884,-8.47380390978e-06,0.94901303564,0.0,0.0,0.0,0.0,0.0,0.0,0.0,0.0,0.0,0.000753007490288,-0.202959680831,-0.00135899858452,0.0,0.0,0.0,0.0,0.0,0.0,0.0,0.0,0.0,4.45464239825,-0.0120412689997,8.94116851025,0.0,0.0,0.0,0.0,0.0,0.0,0.0,0.0,0.0
20796000000,120,20796000000,imu_link,-0.000688823106158,-0.315621801596,-1.05594601841e-05,0.948884821129,0.0,0.0,0.0,0.0,0.0,0.0,0.0,0.0,0.0,9.60669280108e-05,-0.203238526638,-0.00127849447077,0.0,0.0,0.0,0.0,0.0,0.0,0.0,0.0,0.0,4.45897764284,-0.0118798140519,8.9376161459,0.0,0.0,0.0,0.0,0.0,0.0,0.0,0.0,0.0
20800000000,121,20800000000,imu_link,-0.000688365319166,-0.316007829223,-1.26522470501e-05,0.948756332186,0.0,0.0,0.0,0.0,0.0,0.0,0.0,0.0,0.0,-0.000155285983954,-0.203424127009,-0.00119878148359,0.0,0.0,0.0,0.0,0.0,0.0,0.0,0.0,0.0,4.46433348867,-0.012145134107,8.93176221192,0.0,0.0,0.0,0.0,0.0,0.0,0.0,0.0,0.0
20804000000,122,20804000000,imu_link,-0.000687173651845,-0.316394141159,-1.43934358958e-05,0.94862757446,0.0,0.0,0.0,0.0,0.0,0.0,0.0,0.0,0.0,0.000248314005718,-0.203601582525,-0.0011480465751,0.0,0.0,0.0,0.0,0.0,0.0,0.0,0.0,0.0,4.47182581348,-0.0125939554074,8.933668993,0.0,0.0,0.0,0.0,0.0,0.0,0.0,0.0,0.0
20808000000,123,20808000000,imu_link,-0.000684553949499,-0.316780062163,-1.55796673449e-05,0.948498773515,0.0,0.0,0.0,0.0,0.0,0.0,0.0,0.0,0.0,0.00101342574159,-0.203423175891,-0.00111059957717,0.0,0.0,0.0,0.0,0.0,0.0,0.0,0.0,0.0,4.48123671011,-0.0126252160007,8.93179381635,0.0,0.0,0.0,0.0,0.0,0.0,0.0,0.0,0.0
20812000000,124,20812000000,imu_link,-0.000680464888573,-0.317165345935,-1.62030103909e-05,0.948370012202,0.0,0.0,0.0,0.0,0.0,0.0,0.0,0.0,0.0,0.00179943272418,-0.203114872334,-0.00107616342617,0.0,0.0,0.0,0.0,0.0,0.0,0.0,0.0,0.0,4.48913882814,-0.0123724537516,8.92566891181,0.0,0.0,0.0,0.0,0.0,0.0,0.0,0.0,0.0
20816000000,125,20816000000,imu_link,-0.000675180077627,-0.317549588007,-1.63289980135e-05,0.948241426548,0.0,0.0,0.0,0.0,0.0,0.0,0.0,0.0,0.0,0.00244536278547,-0.202593217124,-0.00102959432892,0.0,0.0,0.0,0.0,0.0,0.0,0.0,0.0,0.0,4.49655650986,-0.011976759045,8.91889222357,0.0,0.0,0.0,0.0,0.0,0.0,0.0,0.0,0.0
20820000000,126,20820000000,imu_link,-0.000669153097539,-0.317932900693,-1.60386659095e-05,0.948112979889,0.0,0.0,0.0,0.0,0.0,0.0,0.0,0.0,0.0,0.00286338099566,-0.202130640952,-0.000949731382288,0.0,0.0,0.0,0.0,0.0,0.0,0.0,0.0,0.0,4.50322037048,-0.0114661813558,8.91298825442,0.0,0.0,0.0,0.0,0.0,0.0,0.0,0.0,0.0
20824000000,127,20824000000,imu_link,-0.000662900826176,-0.318315903747,-1.54666643584e-05,0.947984464928,0.0,0.0,0.0,0.0,0.0,0.0,0.0,0.0,0.0,0.00301493245562,-0.201994808604,-0.000851914851583,0.0,0.0,0.0,0.0,0.0,0.0,0.0,0.0,0.0,4.51073683514,-0.0113779497207,8.91354547618,0.0,0.0,0.0,0.0,0.0,0.0,0.0,0.0,0.0
20828000000,128,20828000000,imu_link,-0.000656849466379,-0.318698799195,-1.47364031352e-05,0.947855813783,0.0,0.0,0.0,0.0,0.0,0.0,0.0,0.0,0.0,0.00294484424368,-0.201965532628,-0.000744889701255,0.0,0.0,0.0,0.0,0.0,0.0,0.0,0.0,0.0,4.51760319742,-0.0116417259376,8.91117969823,0.0,0.0,0.0,0.0,0.0,0.0,0.0,0.0,0.0
20832000000,129,20832000000,imu_link,-0.000651335139036,-0.319081784932,-1.39719498277e-05,0.947726959674,0.0,0.0,0.0,0.0,0.0,0.0,0.0,0.0,0.0,0.00269571205046,-0.202040680339,-0.000643140459096,0.0,0.0,0.0,0.0,0.0,0.0,0.0,0.0,0.0,4.52342150347,-0.0120453200523,8.90837764164,0.0,0.0,0.0,0.0,0.0,0.0,0.0,0.0,0.0
20836000000,130,20836000000,imu_link,-0.000646663180032,-0.319464879326,-1.32746830148e-05,0.947597896013,0.0,0.0,0.0,0.0,0.0,0.0,0.0,0.0,0.0,0.00228575794683,-0.202125585533,-0.000540622330827,0.0,0.0,0.0,0.0,0.0,0.0,0.0,0.0,0.0,4.52769586627,-0.0121421667191,8.90273823396,0.0,0.0,0.0,0.0,0.0,0.0,0.0,0.0,0.0
20840000000,131,20840000000,imu_link,-0.000643174988653,-0.319847874332,-1.27895843883e-05,0.947468692595,0.0,0.0,0.0,0.0,0.0,0.0,0.0,0.0,0.0,0.00169095405303,-0.202100757933,-0.000452030088137,0.0,0.0,0.0,0.0,0.0,0.0,0.0,0.0,0.0,4.53169760286,-0.0121786369673,8.89912126276,0.0,0.0,0.0,0.0,0.0,0.0,0.0,0.0,0.0
20844000000,132,20844000000,imu_link,-0.000641319786601,-0.320231009289,-1.26990071984e-05,0.947339268286,0.0,0.0,0.0,0.0,0.0,0.0,0.0,0.0,0.0,0.00085418729133,-0.202202267282,-0.000377820773882,0.0,0.0,0.0,0.0,0.0,0.0,0.0,0.0,0.0,4.53454200222,-0.0120474947042,8.89761912999,0.0,0.0,0.0,0.0,0.0,0.0,0.0,0.0,0.0
20848000000,133,20848000000,imu_link,-0.000640718349042,-0.320614008646,-1.29290856989e-05,0.947209716363,0.0,0.0,0.0,0.0,0.0,0.0,0.0,0.0,0.0,0.000208933340297,-0.20215837615,-0.000328915827885,0.0,0.0,0.0,0.0,0.0,0.0,0.0,0.0,0.0,4.53936086833,-0.0122270780879,8.89448724032,0.0,0.0,0.0,0.0,0.0,0.0,0.0,0.0,0.0
20852000000,134,20852000000,imu_link,-0.000640648544889,-0.320996413804,-1.33283453132e-05,0.947080192865,0.0,0.0,0.0,0.0,0.0,0.0,0.0,0.0,0.0,-6.9966498488e-05,-0.201872352478,-0.000323625724999,0.0,0.0,0.0,0.0,0.0,0.0,0.0,0.0,0.0,4.54584159349,-0.0124975932655,8.89162958034,0.0,0.0,0.0,0.0,0.0,0.0,0.0,0.0,0.0
20856000000,135,20856000000,imu_link,-0.000640418948605,-0.321377560366,-1.3776759852e-05,0.946950924477,0.0,0.0,0.0,0.0,0.0,0.0,0.0,0.0,0.0,-2.11445918606e-06,-0.201235395164,-0.000372144047784,0.0,0.0,0.0,0.0,0.0,0.0,0.0,0.0,0.0,4.55315502088,-0.0125358175018,8.88768595373,0.0,0.0,0.0,0.0,0.0,0.0,0.0,0.0,0.0
20860000000,136,20860000000,imu_link,-0.000639295865022,-0.321756836331,-1.40507315698e-05,0.946822121297,0.0,0.0,0.0,0.0,0.0,0.0,0.0,0.0,0.0,0.000449096971964,-0.200275009376,-0.000432520854088,0.0,0.0,0.0,0.0,0.0,0.0,0.0,0.0,0.0,4.55953450542,-0.0125750808293,8.88117635981,0.0,0.0,0.0,0.0,0.0,0.0,0.0,0.0,0.0
20864000000,137,20864000000,imu_link,-0.000636776541156,-0.322134584195,-1.3925890137e-05,0.946693669561,0.0,0.0,0.0,0.0,0.0,0.0,0.0,0.0,0.0,0.00117435465436,-0.199495167424,-0.000467852304958,0.0,0.0,0.0,0.0,0.0,0.0,0.0,0.0,0.0,4.56634358998,-0.012526564524,8.88201377033,0.0,0.0,0.0,0.0,0.0,0.0,0.0,0.0,0.0
20868000000,138,20868000000,imu_link,-0.00063306668945,-0.322511404474,-1.34069740223e-05,0.946565366486,0.0,0.0,0.0,0.0,0.0,0.0,0.0,0.0,0.0,0.0018014007036,-0.199032270189,-0.000472777029573,0.0,0.0,0.0,0.0,0.0,0.0,0.0,0.0,0.0,4.57526480926,-0.0121478632796,8.88613442696,0.0,0.0,0.0,0.0,0.0,0.0,0.0,0.0,0.0
20872000000,139,20872000000,imu_link,-0.000628503812006,-0.32288825099,-1.25565822334e-05,0.946436887594,0.0,0.0,0.0,0.0,0.0,0.0,0.0,0.0,0.0,0.00225851991611,-0.199073138413,-0.00045346007921,0.0,0.0,0.0,0.0,0.0,0.0,0.0,0.0,0.0,4.58318975596,-0.0121181195288,8.88791300833,0.0,0.0,0.0,0.0,0.0,0.0,0.0,0.0,0.0
20876000000,140,20876000000,imu_link,-0.000623415382168,-0.323265330506,-1.13879958001e-05,0.94630816192,0.0,0.0,0.0,0.0,0.0,0.0,0.0,0.0,0.0,0.00255851559396,-0.19922333712,-0.000387806616913,0.0,0.0,0.0,0.0,0.0,0.0,0.0,0.0,0.0,4.59034988757,-0.0121499061797,8.88363693873,0.0,0.0,0.0,0.0,0.0,0.0,0.0,0.0,0.0
20880000000,141,20880000000,imu_link,-0.000618026305933,-0.32364185904,-9.8879992151e-06,0.946179457092,0.0,0.0,0.0,0.0,0.0,0.0,0.0,0.0,0.0,0.00275433774523,-0.198959369197,-0.000279420956483,0.0,0.0,0.0,0.0,0.0,0.0,0.0,0.0,0.0,4.59738675667,-0.0122526933136,8.87712494907,0.0,0.0,0.0,0.0,0.0,0.0,0.0,0.0,0.0
20884000000,142,20884000000,imu_link,-0.000612660686763,-0.324017605262,-8.09028489116e-06,0.946050852789,0.0,0.0,0.0,0.0,0.0,0.0,0.0,0.0,0.0,0.00279144460764,-0.198573090611,-0.000134535654966,0.0,0.0,0.0,0.0,0.0,0.0,0.0,0.0,0.0,4.60269398637,-0.0120357269859,8.87190870308,0.0,0.0,0.0,0.0,0.0,0.0,0.0,0.0,0.0
20888000000,143,20888000000,imu_link,-0.000607776605531,-0.324392487977,-6.10124622943e-06,0.945922377531,0.0,0.0,0.0,0.0,0.0,0.0,0.0,0.0,0.0,0.00259469716693,-0.19814378417,3.42440598085e-05,0.0,0.0,0.0,0.0,0.0,0.0,0.0,0.0,0.0,4.60657756657,-0.0119482895137,8.86655324274,0.0,0.0,0.0,0.0,0.0,0.0,0.0,0.0,0.0
20892000000,144,20892000000,imu_link,-0.000603866791282,-0.324767000572,-4.06751129556e-06,0.945793862672,0.0,0.0,0.0,0.0,0.0,0.0,0.0,0.0,0.0,0.00214114306478,-0.197975170985,0.000213518475713,0.0,0.0,0.0,0.0,0.0,0.0,0.0,0.0,0.0,4.60986060568,-0.0119067971278,8.86477486022,0.0,0.0,0.0,0.0,0.0,0.0,0.0,0.0,0.0
20896000000,145,20896000000,imu_link,-0.000600736657411,-0.325141573373,-1.95992291805e-06,0.945665160813,0.0,0.0,0.0,0.0,0.0,0.0,0.0,0.0,0.0,0.00178437082083,-0.198034031993,0.00037503222534,0.0,0.0,0.0,0.0,0.0,0.0,0.0,0.0,0.0,4.61499187385,-0.0122317461922,8.86339900413,0.0,0.0,0.0,0.0,0.0,0.0,0.0,0.0,0.0
20900000000,146,20900000000,imu_link,-0.000598724634185,-0.325516362707,6.27331544389e-08,0.945536217783,0.0,0.0,0.0,0.0,0.0,0.0,0.0,0.0,0.0,0.00124181189649,-0.198175598918,0.00051658032697,0.0,0.0,0.0,0.0,0.0,0.0,0.0,0.0,0.0,4.62111419532,-0.0123171873299,8.85945645714,0.0,0.0,0.0,0.0,0.0,0.0,0.0,0.0,0.0
20904000000,147,20904000000,imu_link,-0.000598163461392,-0.325891865516,1.84113786603e-06,0.94540686172,0.0,0.0,0.0,0.0,0.0,0.0,0.0,0.0,0.0,0.000516018448396,-0.198580058673,0.000637030285753,0.0,0.0,0.0,0.0,0.0,0.0,0.0,0.0,0.0,4.62762891046,-0.0122936280862,8.85851431611,0.0,0.0,0.0,0.0,0.0,0.0,0.0,0.0,0.0
20908000000,148,20908000000,imu_link,-0.000598908522403,-0.32626820506,3.38116902744e-06,0.945277049158,0.0,0.0,0.0,0.0,0.0,0.0,0.0,0.0,0.0,-0.000140422105306,-0.199049898269,0.000736945952692,0.0,0.0,0.0,0.0,0.0,0.0,0.0,0.0,0.0,4.63520678113,-0.0124632544224,8.85660695161,0.0,0.0,0.0,0.0,0.0,0.0,0.0,0.0,0.0
20912000000,149,20912000000,imu_link,-0.000600647265862,-0.32664562576,4.75632560768e-06,0.945146694631,0.0,0.0,0.0,0.0,0.0,0.0,0.0,0.0,0.0,-0.000637135539292,-0.199649256499,0.00082080053459,0.0,0.0,0.0,0.0,0.0,0.0,0.0,0.0,0.0,4.642048797,-0.0125990240235,8.8548735987,0.0,0.0,0.0,0.0,0.0,0.0,0.0,0.0,0.0
20916000000,150,20916000000,imu_link,-0.000603056592811,-0.327024217359,6.06709104841e-06,0.945015765766,0.0,0.0,0.0,0.0,0.0,0.0,0.0,0.0,0.0,-0.000964727264441,-0.200296373623,0.000899542304291,0.0,0.0,0.0,0.0,0.0,0.0,0.0,0.0,0.0,4.64753378827,-0.0126732731945,8.84861146767,0.0,0.0,0.0,0.0,0.0,0.0,0.0,0.0,0.0
20920000000,151,20920000000,imu_link,-0.000605832063519,-0.327403916819,7.424106146e-06,0.944884282949,0.0,0.0,0.0,0.0,0.0,0.0,0.0,0.0,0.0,-0.00113034110509,-0.200910437241,0.000980932206179,0.0,0.0,0.0,0.0,0.0,0.0,0.0,0.0,0.0,4.65286758043,-0.0131288602267,8.84258829089,0.0,0.0,0.0,0.0,0.0,0.0,0.0,0.0,0.0
20924000000,152,20924000000,imu_link,-0.000609026898995,-0.327785154742,8.83914360652e-06,0.944752095176,0.0,0.0,0.0,0.0,0.0,0.0,0.0,0.0,0.0,-0.00131918758879,-0.201752691815,0.00107653184884,0.0,0.0,0.0,0.0,0.0,0.0,0.0,0.0,0.0,4.66023512936,-0.0134630342781,8.84477003582,0.0,0.0,0.0,0.0,0.0,0.0,0.0,0.0,0.0
20928000000,153,20928000000,imu_link,-0.000612902509264,-0.328168256392,1.02390636936e-05,0.944619087115,0.0,0.0,0.0,0.0,0.0,0.0,0.0,0.0,0.0,-0.00164350497338,-0.202767502618,0.00118040080455,0.0,0.0,0.0,0.0,0.0,0.0,0.0,0.0,0.0,4.66718524744,-0.0135439575378,8.84764299002,0.0,0.0,0.0,0.0,0.0,0.0,0.0,0.0,0.0
20932000000,154,20932000000,imu_link,-0.000617302722902,-0.328553684618,1.16143188222e-05,0.944485095238,0.0,0.0,0.0,0.0,0.0,0.0,0.0,0.0,0.0,-0.00189564070496,-0.204027786125,0.00125412245722,0.0,0.0,0.0,0.0,0.0,0.0,0.0,0.0,0.0,4.67219369782,-0.0134084622788,8.84582567525,0.0,0.0,0.0,0.0,0.0,0.0,0.0,0.0,0.0
20936000000,155,20936000000,imu_link,-0.000621540048346,-0.328941384593,1.30069269577e-05,0.944350135819,0.0,0.0,0.0,0.0,0.0,0.0,0.0,0.0,0.0,-0.00181617909269,-0.205259553418,0.00123486296743,0.0,0.0,0.0,0.0,0.0,0.0,0.0,0.0,0.0,4.67752203594,-0.0133975396103,8.8445956616,0.0,0.0,0.0,0.0,0.0,0.0,0.0,0.0,0.0
20940000000,156,20940000000,imu_link,-0.000625103657966,-0.329330808787,1.4480159094e-05,0.944214396956,0.0,0.0,0.0,0.0,0.0,0.0,0.0,0.0,0.0,-0.00148506040681,-0.206201912162,0.00116159433056,0.0,0.0,0.0,0.0,0.0,0.0,0.0,0.0,0.0,4.68189560056,-0.013252894604,8.83805669748,0.0,0.0,0.0,0.0,0.0,0.0,0.0,0.0,0.0
20944000000,157,20944000000,imu_link,-0.000627731619989,-0.329721870471,1.61300621884e-05,0.944077906651,0.0,0.0,0.0,0.0,0.0,0.0,0.0,0.0,0.0,-0.00101448952748,-0.207098781931,0.00109042680647,0.0,0.0,0.0,0.0,0.0,0.0,0.0,0.0,0.0,4.68827480608,-0.0134456501189,8.83497238768,0.0,0.0,0.0,0.0,0.0,0.0,0.0,0.0,0.0
20948000000,158,20948000000,imu_link,-0.00062993187387,-0.330114278088,1.79143438424e-05,0.943940764173,0.0,0.0,0.0,0.0,0.0,0.0,0.0,0.0,0.0,-0.000790656379616,-0.207841677813,0.00108292917461,0.0,0.0,0.0,0.0,0.0,0.0,0.0,0.0,0.0,4.69705618242,-0.0133502370904,8.83332825681,0.0,0.0,0.0,0.0,0.0,0.0,0.0,0.0,0.0
20952000000,159,20952000000,imu_link,-0.000631965688157,-0.33050827228,1.98012444387e-05,0.943802883118,0.0,0.0,0.0,0.0,0.0,0.0,0.0,0.0,0.0,-0.000695410662365,-0.208712436399,0.00110339713346,0.0,0.0,0.0,0.0,0.0,0.0,0.0,0.0,0.0,4.70418626431,-0.0134016743488,8.8302724846,0.0,0.0,0.0,0.0,0.0,0.0,0.0,0.0,0.0
20956000000,160,20956000000,imu_link,-0.000633797240873,-0.330903704649,2.17563285803e-05,0.943664313237,0.0,0.0,0.0,0.0,0.0,0.0,0.0,0.0,0.0,-0.000588927408906,-0.209504968686,0.00110170086685,0.0,0.0,0.0,0.0,0.0,0.0,0.0,0.0,0.0,4.71035641865,-0.0133783148598,8.82360450245,0.0,0.0,0.0,0.0,0.0,0.0,0.0,0.0,0.0
20960000000,161,20960000000,imu_link,-0.000635377058801,-0.331300072244,2.36989289214e-05,0.943525229056,0.0,0.0,0.0,0.0,0.0,0.0,0.0,0.0,0.0,-0.000472389454028,-0.210031329727,0.00105386984037,0.0,0.0,0.0,0.0,0.0,0.0,0.0,0.0,0.0,4.71668518547,-0.0131116136859,8.81815658753,0.0,0.0,0.0,0.0,0.0,0.0,0.0,0.0,0.0
20964000000,162,20964000000,imu_link,-0.000636832121667,-0.331697185931,2.56388322841e-05,0.943385695584,0.0,0.0,0.0,0.0,0.0,0.0,0.0,0.0,0.0,-0.000414133004761,-0.210457733482,0.00103170012382,0.0,0.0,0.0,0.0,0.0,0.0,0.0,0.0,0.0,4.7233774221,-0.0128437194728,8.81307704203,0.0,0.0,0.0,0.0,0.0,0.0,0.0,0.0,0.0
20968000000,163,20968000000,imu_link,-0.000638468382142,-0.332094307563,2.76022237188e-05,0.943245971357,0.0,0.0,0.0,0.0,0.0,0.0,0.0,0.0,0.0,-0.000495768005684,-0.210493123097,0.00107283056687,0.0,0.0,0.0,0.0,0.0,0.0,0.0,0.0,0.0,4.73116102114,-0.0129369958012,8.81043219385,0.0,0.0,0.0,0.0,0.0,0.0,0.0,0.0,0.0
20972000000,164,20972000000,imu_link,-0.000640286286101,-0.332490774531,2.96797128143e-05,0.943106289876,0.0,0.0,0.0,0.0,0.0,0.0,0.0,0.0,0.0,-0.000562466980385,-0.210177304065,0.00115701143826,0.0,0.0,0.0,0.0,0.0,0.0,0.0,0.0,0.0,4.73706396239,-0.013228381008,8.80463497762,0.0,0.0,0.0,0.0,0.0,0.0,0.0,0.0,0.0
20976000000,165,20976000000,imu_link,-0.00064205563484,-0.332886093108,3.20063944442e-05,0.942966826434,0.0,0.0,0.0,0.0,0.0,0.0,0.0,0.0,0.0,-0.000498056653503,-0.209599609279,0.00126681130329,0.0,0.0,0.0,0.0,0.0,0.0,0.0,0.0,0.0,4.74150207137,-0.013264454915,8.79865168694,0.0,0.0,0.0,0.0,0.0,0.0,0.0,0.0,0.0
20980000000,166,20980000000,imu_link,-0.00064357282969,-0.333279804094,3.46384888827e-05,0.94282774503,0.0,0.0,0.0,0.0,0.0,0.0,0.0,0.0,0.0,-0.000328188051864,-0.208778170745,0.00136934909099,0.0,0.0,0.0,0.0,0.0,0.0,0.0,0.0,0.0,4.74553742769,-0.0132568453506,8.79351665995,0.0,0.0,0.0,0.0,0.0,0.0,0.0,0.0,0.0
20984000000,167,20984000000,imu_link,-0.000645093414803,-0.333672024347,3.74665541304e-05,0.942689006311,0.0,0.0,0.0,0.0,0.0,0.0,0.0,0.0,0.0,-0.00029699362001,-0.208018376595,0.00146277117181,0.0,0.0,0.0,0.0,0.0,0.0,0.0,0.0,0.0,4.75001546403,-0.0130453225279,8.79350907018,0.0,0.0,0.0,0.0,0.0,0.0,0.0,0.0,0.0
20988000000,168,20988000000,imu_link,-0.000646479474435,-0.334062538266,4.04618572882e-05,0.942550688798,0.0,0.0,0.0,0.0,0.0,0.0,0.0,0.0,0.0,-0.000205516635798,-0.207143889482,0.00151969663213,0.0,0.0,0.0,0.0,0.0,0.0,0.0,0.0,0.0,4.75434830935,-0.0129391002255,8.78920881371,0.0,0.0,0.0,0.0,0.0,0.0,0.0,0.0,0.0
20992000000,169,20992000000,imu_link,-0.000647534860767,-0.334451429935,4.35837829757e-05,0.942412765095,0.0,0.0,0.0,0.0,0.0,0.0,0.0,0.0,0.0,-2.83684111402e-05,-0.206313631889,0.00152465433552,0.0,0.0,0.0,0.0,0.0,0.0,0.0,0.0,0.0,4.75934979701,-0.0130363224733,8.78444655085,0.0,0.0,0.0,0.0,0.0,0.0,0.0,0.0,0.0
20996000000,170,20996000000,imu_link,-0.000648242864783,-0.334838877998,4.67523455579e-05,0.942275173915,0.0,0.0,0.0,0.0,0.0,0.0,0.0,0.0,0.0,0.000143258375503,-0.205577811497,0.00148899882403,0.0,0.0,0.0,0.0,0.0,0.0,0.0,0.0,0.0,4.7672721204,-0.0129228202318,8.78524504854,0.0,0.0,0.0,0.0,0.0,0.0,0.0,0.0,0.0
21000000000,171,21000000000,imu_link,-0.000648518113653,-0.335224936691,4.99329300445e-05,0.942137897949,0.0,0.0,0.0,0.0,0.0,0.0,0.0,0.0,0.0,0.000349292953716,-0.204870467922,0.00142265412116,0.0,0.0,0.0,0.0,0.0,0.0,0.0,0.0,0.0,4.77342363995,-0.0129621080736,8.78189773166,0.0,0.0,0.0,0.0,0.0,0.0,0.0,0.0,0.0
21004000000,172,21004000000,imu_link,-0.000648354836861,-0.335609899702,5.30912150961e-05,0.942000834415,0.0,0.0,0.0,0.0,0.0,0.0,0.0,0.0,0.0,0.000552227368349,-0.204318723369,0.0013389971546,0.0,0.0,0.0,0.0,0.0,0.0,0.0,0.0,0.0,4.7804306574,-0.0129661289853,8.78453287456,0.0,0.0,0.0,0.0,0.0,0.0,0.0,0.0,0.0
21008000000,173,21008000000,imu_link,-0.00064768411283,-0.335993671041,5.62362246058e-05,0.94186401904,0.0,0.0,0.0,0.0,0.0,0.0,0.0,0.0,0.0,0.000789119628982,-0.203715812134,0.00124797192755,0.0,0.0,0.0,0.0,0.0,0.0,0.0,0.0,0.0,4.78588191789,-0.0129854133049,8.77871401948,0.0,0.0,0.0,0.0,0.0,0.0,0.0,0.0,0.0
21012000000,174,21012000000,imu_link,-0.00064662374745,-0.33637627332,5.92883994077e-05,0.941727445236,0.0,0.0,0.0,0.0,0.0,0.0,0.0,0.0,0.0,0.000957129390777,-0.203124661872,0.00113916636747,0.0,0.0,0.0,0.0,0.0,0.0,0.0,0.0,0.0,4.79133551868,-0.0131272476897,8.77390652313,0.0,0.0,0.0,0.0,0.0,0.0,0.0,0.0,0.0
21016000000,175,21016000000,imu_link,-0.000645341430718,-0.336757616159,6.21002302003e-05,0.941591146749,0.0,0.0,0.0,0.0,0.0,0.0,0.0,0.0,0.0,0.00102134157266,-0.202485261214,0.00098906652544,0.0,0.0,0.0,0.0,0.0,0.0,0.0,0.0,0.0,4.79762740909,-0.0132347101417,8.77146694609,0.0,0.0,0.0,0.0,0.0,0.0,0.0,0.0,0.0
21020000000,176,21020000000,imu_link,-0.000643457289691,-0.337137691675,6.47275354918e-05,0.941455128312,0.0,0.0,0.0,0.0,0.0,0.0,0.0,0.0,0.0,0.00127373733738,-0.201841415609,0.00080125849547,0.0,0.0,0.0,0.0,0.0,0.0,0.0,0.0,0.0,4.80413060524,-0.0134375829565,8.77200299806,0.0,0.0,0.0,0.0,0.0,0.0,0.0,0.0,0.0
21024000000,177,21024000000,imu_link,-0.000640487721713,-0.337517394041,6.73353148225e-05,0.941319071283,0.0,0.0,0.0,0.0,0.0,0.0,0.0,0.0,0.0,0.00178138595533,-0.201672297691,0.000609219205422,0.0,0.0,0.0,0.0,0.0,0.0,0.0,0.0,0.0,4.81104895204,-0.0132004945849,8.7795167675,0.0,0.0,0.0,0.0,0.0,0.0,0.0,0.0,0.0
21028000000,178,21028000000,imu_link,-0.000636271166661,-0.337897456835,7.00434076596e-05,0.941182712823,0.0,0.0,0.0,0.0,0.0,0.0,0.0,0.0,0.0,0.00238511247202,-0.201892879618,0.000445887510639,0.0,0.0,0.0,0.0,0.0,0.0,0.0,0.0,0.0,4.81606150991,-0.0128686705049,8.78261416666,0.0,0.0,0.0,0.0,0.0,0.0,0.0,0.0,0.0
21032000000,179,21032000000,imu_link,-0.00063114517295,-0.338278482722,7.29008040839e-05,0.941045835477,0.0,0.0,0.0,0.0,0.0,0.0,0.0,0.0,0.0,0.00283811232842,-0.202433847514,0.000362211754693,0.0,0.0,0.0,0.0,0.0,0.0,0.0,0.0,0.0,4.81991793216,-0.0124641757205,8.78424984599,0.0,0.0,0.0,0.0,0.0,0.0,0.0,0.0,0.0
21036000000,180,21036000000,imu_link,-0.00062493190715,-0.338660369654,7.60420133199e-05,0.940908474669,0.0,0.0,0.0,0.0,0.0,0.0,0.0,0.0,0.0,0.00339751874234,-0.202920891098,0.000311597706382,0.0,0.0,0.0,0.0,0.0,0.0,0.0,0.0,0.0,4.82502477062,-0.0124954483703,8.78044123843,0.0,0.0,0.0,0.0,0.0,0.0,0.0,0.0,0.0
21040000000,181,21040000000,imu_link,-0.000617914277448,-0.339042829629,7.93392476727e-05,0.940770732732,0.0,0.0,0.0,0.0,0.0,0.0,0.0,0.0,0.0,0.00380221406702,-0.203255097488,0.000248632725121,0.0,0.0,0.0,0.0,0.0,0.0,0.0,0.0,0.0,4.83289433513,-0.0123162969693,8.77701456887,0.0,0.0,0.0,0.0,0.0,0.0,0.0,0.0,0.0
21044000000,182,21044000000,imu_link,-0.000610457283686,-0.339426277227,8.26473426128e-05,0.940632458955,0.0,0.0,0.0,0.0,0.0,0.0,0.0,0.0,0.0,0.00401052211825,-0.203809839625,0.000178975728618,0.0,0.0,0.0,0.0,0.0,0.0,0.0,0.0,0.0,4.84183722214,-0.0120625288374,8.77908864806,0.0,0.0,0.0,0.0,0.0,0.0,0.0,0.0,0.0
21048000000,183,21048000000,imu_link,-0.000602708172533,-0.339810886795,8.59129193833e-05,0.940493588802,0.0,0.0,0.0,0.0,0.0,0.0,0.0,0.0,0.0,0.00414046374108,-0.20445754572,0.000109072555986,0.0,0.0,0.0,0.0,0.0,0.0,0.0,0.0,0.0,4.84912967201,-0.0118738662664,8.77478116539,0.0,0.0,0.0,0.0,0.0,0.0,0.0,0.0,0.0
21052000000,184,21052000000,imu_link,-0.000594945706055,-0.34019670169,8.90988049428e-05,0.940354104718,0.0,0.0,0.0,0.0,0.0,0.0,0.0,0.0,0.0,0.00413296728401,-0.205128633241,6.89920160789e-05,0.0,0.0,0.0,0.0,0.0,0.0,0.0,0.0,0.0,4.85587013494,-0.0117509103732,8.76958348231,0.0,0.0,0.0,0.0,0.0,0.0,0.0,0.0,0.0
21056000000,185,21056000000,imu_link,-0.000587454280149,-0.340583495056,9.21691995098e-05,0.940214086949,0.0,0.0,0.0,0.0,0.0,0.0,0.0,0.0,0.0,0.00398568304131,-0.205679420822,6.05270620164e-05,0.0,0.0,0.0,0.0,0.0,0.0,0.0,0.0,0.0,4.86189760231,-0.0117324150674,8.76196362825,0.0,0.0,0.0,0.0,0.0,0.0,0.0,0.0,0.0
21060000000,186,21060000000,imu_link,-0.000580406431797,-0.340970838061,9.50992848329e-05,0.940073689493,0.0,0.0,0.0,0.0,0.0,0.0,0.0,0.0,0.0,0.00375312372956,-0.206002406409,6.99603493925e-05,0.0,0.0,0.0,0.0,0.0,0.0,0.0,0.0,0.0,4.86753175997,-0.0122594978411,8.75362130534,0.0,0.0,0.0,0.0,0.0,0.0,0.0,0.0,0.0
21064000000,187,21064000000,imu_link,-0.00057368610172,-0.341358850834,9.79506080418e-05,0.939932867947,0.0,0.0,0.0,0.0,0.0,0.0,0.0,0.0,0.0,0.00358559534859,-0.206389484291,8.86021424989e-05,0.0,0.0,0.0,0.0,0.0,0.0,0.0,0.0,0.0,4.87366201218,-0.0128334644011,8.75265232226,0.0,0.0,0.0,0.0,0.0,0.0,0.0,0.0,0.0
21068000000,188,21068000000,imu_link,-0.000567146496614,-0.341747635357,0.000100733526165,0.939791584302,0.0,0.0,0.0,0.0,0.0,0.0,0.0,0.0,0.0,0.00348881498446,-0.206831023289,8.7101342868e-05,0.0,0.0,0.0,0.0,0.0,0.0,0.0,0.0,0.0,4.87871751851,-0.0132090072152,8.75195474577,0.0,0.0,0.0,0.0,0.0,0.0,0.0,0.0,0.0
21072000000,189,21072000000,imu_link,-0.000560827995557,-0.342137505496,0.000103369767969,0.939649723099,0.0,0.0,0.0,0.0,0.0,0.0,0.0,0.0,0.0,0.00335963751082,-0.207439786751,5.56808854712e-05,0.0,0.0,0.0,0.0,0.0,0.0,0.0,0.0,0.0,4.88185983517,-0.0131472676357,8.75041463701,0.0,0.0,0.0,0.0,0.0,0.0,0.0,0.0,0.0
21076000000,190,21076000000,imu_link,-0.000555162212922,-0.342528314194,0.000105702220111,0.939507336106,0.0,0.0,0.0,0.0,0.0,0.0,0.0,0.0,0.0,0.00300080927216,-0.20797057267,2.43766639936e-05,0.0,0.0,0.0,0.0,0.0,0.0,0.0,0.0,0.0,4.88322025689,-0.0127915552087,8.74371290346,0.0,0.0,0.0,0.0,0.0,0.0,0.0,0.0,0.0
21080000000,191,21080000000,imu_link,-0.000550390538453,-0.342919151026,0.000107726886263,0.939364754142,0.0,0.0,0.0,0.0,0.0,0.0,0.0,0.0,0.0,0.00252803032576,-0.208017047586,3.29242433001e-05,0.0,0.0,0.0,0.0,0.0,0.0,0.0,0.0,0.0,4.88755764769,-0.0125680031261,8.74095677074,0.0,0.0,0.0,0.0,0.0,0.0,0.0,0.0,0.0
21084000000,192,21084000000,imu_link,-0.000546181825402,-0.343309097496,0.000109616484491,0.939222313005,0.0,0.0,0.0,0.0,0.0,0.0,0.0,0.0,0.0,0.00224054526662,-0.207574646623,6.6247786062e-05,0.0,0.0,0.0,0.0,0.0,0.0,0.0,0.0,0.0,4.89404916083,-0.0128581101022,8.73896251109,0.0,0.0,0.0,0.0,0.0,0.0,0.0,0.0,0.0
21088000000,193,21088000000,imu_link,-0.000542352568694,-0.34369713436,0.000111490654538,0.939080387004,0.0,0.0,0.0,0.0,0.0,0.0,0.0,0.0,0.0,0.00205994534151,-0.206589423039,0.000124631215049,0.0,0.0,0.0,0.0,0.0,0.0,0.0,0.0,0.0,4.90227031637,-0.012928481033,8.73460137486,0.0,0.0,0.0,0.0,0.0,0.0,0.0,0.0,0.0
21092000000,194,21092000000,imu_link,-0.000538564297232,-0.344083062906,0.000113504079001,0.938939051742,0.0,0.0,0.0,0.0,0.0,0.0,0.0,0.0,0.0,0.00206490951422,-0.205498001139,0.000197598817191,0.0,0.0,0.0,0.0,0.0,0.0,0.0,0.0,0.0,4.90787306277,-0.0131187401089,8.72701143583,0.0,0.0,0.0,0.0,0.0,0.0,0.0,0.0,0.0
21096000000,195,21096000000,imu_link,-0.000535014986202,-0.34446661363,0.000115615173985,0.938798408865,0.0,0.0,0.0,0.0,0.0,0.0,0.0,0.0,0.0,0.00196984964292,-0.204262579297,0.000285164286985,0.0,0.0,0.0,0.0,0.0,0.0,0.0,0.0,0.0,4.91483471099,-0.0130733706984,8.72088490803,0.0,0.0,0.0,0.0,0.0,0.0,0.0,0.0,0.0
21100000000,196,21100000000,imu_link,-0.000532427236842,-0.344847495992,0.000117686760067,0.938658567946,0.0,0.0,0.0,0.0,0.0,0.0,0.0,0.0,0.0,0.00151205735277,-0.202871862118,0.000432899245316,0.0,0.0,0.0,0.0,0.0,0.0,0.0,0.0,0.0,4.92181791652,-0.0128717187932,8.71556925676,0.0,0.0,0.0,0.0,0.0,0.0,0.0,0.0,0.0
21104000000,197,21104000000,imu_link,-0.000531391447376,-0.34522609095,0.000119592488399,0.938519392153,0.0,0.0,0.0,0.0,0.0,0.0,0.0,0.0,0.0,0.000755390913153,-0.201683497206,0.000623221902444,0.0,0.0,0.0,0.0,0.0,0.0,0.0,0.0,0.0,4.92870809784,-0.0127470952494,8.71331181448,0.0,0.0,0.0,0.0,0.0,0.0,0.0,0.0,0.0
21108000000,198,21108000000,imu_link,-0.000532068079526,-0.345602484927,0.000121250079794,0.938380852647,0.0,0.0,0.0,0.0,0.0,0.0,0.0,0.0,0.0,-9.0710606373e-05,-0.200540665471,0.000802914307216,0.0,0.0,0.0,0.0,0.0,0.0,0.0,0.0,0.0,4.93586548899,-0.0132876455828,8.71120610696,0.0,0.0,0.0,0.0,0.0,0.0,0.0,0.0,0.0
21112000000,199,21112000000,imu_link,-0.000533823953163,-0.34597687395,0.00012276128656,0.938242880417,0.0,0.0,0.0,0.0,0.0,0.0,0.0,0.0,0.0,-0.00062210340201,-0.199501829449,0.000921225314056,0.0,0.0,0.0,0.0,0.0,0.0,0.0,0.0,0.0,4.94236782874,-0.0140129267479,8.71103711937,0.0,0.0,0.0,0.0,0.0,0.0,0.0,0.0,0.0
21116000000,200,21116000000,imu_link,-0.000535927784665,-0.346349809735,0.000124223479473,0.938105274821,0.0,0.0,0.0,0.0,0.0,0.0,0.0,0.0,0.0,-0.000793629680415,-0.198756626202,0.000958789936475,0.0,0.0,0.0,0.0,0.0,0.0,0.0,0.0,0.0,4.94766163548,-0.014311619739,8.71273508472,0.0,0.0,0.0,0.0,0.0,0.0,0.0,0.0,0.0
21120000000,201,21120000000,imu_link,-0.000538047606124,-0.346721660812,0.000125635698719,0.937967901713,0.0,0.0,0.0,0.0,0.0,0.0,0.0,0.0,0.0,-0.000809654326282,-0.198207565997,0.000938394935759,0.0,0.0,0.0,0.0,0.0,0.0,0.0,0.0,0.0,4.9514523417,-0.0144129239175,8.71166073407,0.0,0.0,0.0,0.0,0.0,0.0,0.0,0.0,0.0
21124000000,202,21124000000,imu_link,-0.000540381196857,-0.347093337598,0.000126874693749,0.937830425443,0.0,0.0,0.0,0.0,0.0,0.0,0.0,0.0,0.0,-0.000939955793674,-0.198143649925,0.000894268143112,0.0,0.0,0.0,0.0,0.0,0.0,0.0,0.0,0.0,4.9545173138,-0.0143717547796,8.71380894244,0.0,0.0,0.0,0.0,0.0,0.0,0.0,0.0,0.0
21128000000,203,21128000000,imu_link,-0.000543048749028,-0.347464993344,0.000127899434657,0.937692789319,0.0,0.0,0.0,0.0,0.0,0.0,0.0,0.0,0.0,-0.0011337803526,-0.198161447173,0.000851774843012,0.0,0.0,0.0,0.0,0.0,0.0,0.0,0.0,0.0,4.95773901989,-0.0143221707949,8.71208501916,0.0,0.0,0.0,0.0,0.0,0.0,0.0,0.0,0.0
21132000000,204,21132000000,imu_link,-0.000546073154589,-0.347836837261,0.000128708451328,0.937554915662,0.0,0.0,0.0,0.0,0.0,0.0,0.0,0.0,0.0,-0.0013386446344,-0.198290856246,0.000812594436663,0.0,0.0,0.0,0.0,0.0,0.0,0.0,0.0,0.0,4.96298868065,-0.0144124356972,8.71154970225,0.0,0.0,0.0,0.0,0.0,0.0,0.0,0.0,0.0
21136000000,205,21136000000,imu_link,-0.000549359139021,-0.34820873417,0.000129428527639,0.937416854393,0.0,0.0,0.0,0.0,0.0,0.0,0.0,0.0,0.0,-0.00147678992521,-0.198348286185,0.000816392189933,0.0,0.0,0.0,0.0,0.0,0.0,0.0,0.0,0.0,4.97033442995,-0.0143047341875,8.707867259,0.0,0.0,0.0,0.0,0.0,0.0,0.0,0.0,0.0
21140000000,206,21140000000,imu_link,-0.000552641110528,-0.348580637467,0.000130194842512,0.937278622833,0.0,0.0,0.0,0.0,0.0,0.0,0.0,0.0,0.0,-0.00146690588633,-0.198380941192,0.000837375192929,0.0,0.0,0.0,0.0,0.0,0.0,0.0,0.0,0.0,4.97666243945,-0.0142335088381,8.70354753717,0.0,0.0,0.0,0.0,0.0,0.0,0.0,0.0,0.0
21144000000,207,21144000000,imu_link,-0.000555676722583,-0.348952814915,0.000131144364201,0.93714012132,0.0,0.0,0.0,0.0,0.0,0.0,0.0,0.0,0.0,-0.00131961341659,-0.198556536317,0.000880236864491,0.0,0.0,0.0,0.0,0.0,0.0,0.0,0.0,0.0,4.98305996508,-0.0141305029633,8.70310254864,0.0,0.0,0.0,0.0,0.0,0.0,0.0,0.0,0.0
21148000000,208,21148000000,imu_link,-0.000558037258201,-0.349325463958,0.000132426006256,0.937001276034,0.0,0.0,0.0,0.0,0.0,0.0,0.0,0.0,0.0,-0.000945472048902,-0.198837628305,0.000917965131427,0.0,0.0,0.0,0.0,0.0,0.0,0.0,0.0,0.0,4.98853255116,-0.0140333199129,8.70074770895,0.0,0.0,0.0,0.0,0.0,0.0,0.0,0.0,0.0
21152000000,209,21152000000,imu_link,-0.000559448834656,-0.349698831037,0.000134051355144,0.936861994436,0.0,0.0,0.0,0.0,0.0,0.0,0.0,0.0,0.0,-0.000441020543138,-0.199250395029,0.000913072745807,0.0,0.0,0.0,0.0,0.0,0.0,0.0,0.0,0.0,4.99384444151,-0.0141367218185,8.69700013453,0.0,0.0,0.0,0.0,0.0,0.0,0.0,0.0,0.0
21156000000,210,21156000000,imu_link,-0.000559600605156,-0.350072884824,0.000136002949379,0.936722287373,0.0,0.0,0.0,0.0,0.0,0.0,0.0,0.0,0.0,0.00020599043544,-0.199646638553,0.000845456267157,0.0,0.0,0.0,0.0,0.0,0.0,0.0,0.0,0.0,5.00068379223,-0.0141305682316,8.69384137294,0.0,0.0,0.0,0.0,0.0,0.0,0.0,0.0,0.0
21160000000,211,21160000000,imu_link,-0.000558266616693,-0.350447487688,0.00013827957342,0.936582205463,0.0,0.0,0.0,0.0,0.0,0.0,0.0,0.0,0.0,0.000958612103943,-0.199969608687,0.000737497485487,0.0,0.0,0.0,0.0,0.0,0.0,0.0,0.0,0.0,5.00714072779,-0.0142375645943,8.69112601626,0.0,0.0,0.0,0.0,0.0,0.0,0.0,0.0,0.0
21164000000,212,21164000000,imu_link,-0.000555499610476,-0.350823146803,0.000140868634164,0.936441557837,0.0,0.0,0.0,0.0,0.0,0.0,0.0,0.0,0.0,0.00168419701643,-0.200563554917,0.000632454348467,0.0,0.0,0.0,0.0,0.0,0.0,0.0,0.0,0.0,5.01332800458,-0.0137663929024,8.69246882392,0.0,0.0,0.0,0.0,0.0,0.0,0.0,0.0,0.0
21168000000,213,21168000000,imu_link,-0.000551539425647,-0.351199754771,0.000143745856294,0.936300383098,0.0,0.0,0.0,0.0,0.0,0.0,0.0,0.0,0.0,0.00229320169049,-0.201100453787,0.000557853736834,0.0,0.0,0.0,0.0,0.0,0.0,0.0,0.0,0.0,5.01803627909,-0.0133547677397,8.68864148542,0.0,0.0,0.0,0.0,0.0,0.0,0.0,0.0,0.0
21172000000,214,21172000000,imu_link,-0.000546920108767,-0.351577219115,0.000146773526408,0.936158714287,0.0,0.0,0.0,0.0,0.0,0.0,0.0,0.0,0.0,0.00262799536152,-0.201588213703,0.000512341826601,0.0,0.0,0.0,0.0,0.0,0.0,0.0,0.0,0.0,5.02131027998,-0.0130414509089,8.68365007429,0.0,0.0,0.0,0.0,0.0,0.0,0.0,0.0,0.0
21176000000,215,21176000000,imu_link,-0.00054161157326,-0.35195527583,0.000149924712172,0.936016649422,0.0,0.0,0.0,0.0,0.0,0.0,0.0,0.0,0.0,0.00297216526915,-0.201935197239,0.000448867238299,0.0,0.0,0.0,0.0,0.0,0.0,0.0,0.0,0.0,5.02734748066,-0.0132304755793,8.6812197013,0.0,0.0,0.0,0.0,0.0,0.0,0.0,0.0,0.0
21180000000,216,21180000000,imu_link,-0.000536043831697,-0.352333789588,0.000153040175321,0.93587423832,0.0,0.0,0.0,0.0,0.0,0.0,0.0,0.0,0.0,0.00308706146622,-0.202210036871,0.000386436467573,0.0,0.0,0.0,0.0,0.0,0.0,0.0,0.0,0.0,5.03516855223,-0.0132154007185,8.67937555289,0.0,0.0,0.0,0.0,0.0,0.0,0.0,0.0,0.0
21184000000,217,21184000000,imu_link,-0.000530643135696,-0.352713268297,0.000155942154648,0.935731288601,0.0,0.0,0.0,0.0,0.0,0.0,0.0,0.0,0.0,0.00297106765772,-0.202756389296,0.000315749942227,0.0,0.0,0.0,0.0,0.0,0.0,0.0,0.0,0.0,5.04268775126,-0.0132109369122,8.68198012762,0.0,0.0,0.0,0.0,0.0,0.0,0.0,0.0,0.0
21188000000,218,21188000000,imu_link,-0.000525857214773,-0.353093732963,0.000158447003925,0.935587790702,0.0,0.0,0.0,0.0,0.0,0.0,0.0,0.0,0.0,0.00261317665263,-0.203314207206,0.000238147239683,0.0,0.0,0.0,0.0,0.0,0.0,0.0,0.0,0.0,5.04890104047,-0.0130740414002,8.67935641115,0.0,0.0,0.0,0.0,0.0,0.0,0.0,0.0,0.0
21192000000,219,21192000000,imu_link,-0.000521712936404,-0.353475225074,0.000160571352993,0.935443727485,0.0,0.0,0.0,0.0,0.0,0.0,0.0,0.0,0.0,0.00224561399754,-0.203894494101,0.000173206182685,0.0,0.0,0.0,0.0,0.0,0.0,0.0,0.0,0.0,5.05451870167,-0.0129003957531,8.67490549334,0.0,0.0,0.0,0.0,0.0,0.0,0.0,0.0,0.0
21196000000,220,21196000000,imu_link,-0.000518045889449,-0.353857525584,0.000162431232964,0.935299180387,0.0,0.0,0.0,0.0,0.0,0.0,0.0,0.0,0.0,0.00197546964642,-0.204358012702,0.000133680914423,0.0,0.0,0.0,0.0,0.0,0.0,0.0,0.0,0.0,5.06087220903,-0.0128030616089,8.66967400763,0.0,0.0,0.0,0.0,0.0,0.0,0.0,0.0,0.0
21200000000,221,21200000000,imu_link,-0.000514764992227,-0.354240434879,0.000164095616927,0.935154223851,0.0,0.0,0.0,0.0,0.0,0.0,0.0,0.0,0.0,0.00176014250124,-0.204715070079,0.000110453842661,0.0,0.0,0.0,0.0,0.0,0.0,0.0,0.0,0.0,5.06655789655,-0.0131900677417,8.66318339851,0.0,0.0,0.0,0.0,0.0,0.0,0.0,0.0,0.0
21204000000,222,21204000000,imu_link,-0.000511554694768,-0.35462409655,0.00016574130504,0.935008802626,0.0,0.0,0.0,0.0,0.0,0.0,0.0,0.0,0.0,0.00172363891843,-0.205149159368,0.000114061214988,0.0,0.0,0.0,0.0,0.0,0.0,0.0,0.0,0.0,5.07325700024,-0.0136407374637,8.66477767112,0.0,0.0,0.0,0.0,0.0,0.0,0.0,0.0,0.0
21208000000,223,21208000000,imu_link,-0.000508128307586,-0.355008574504,0.000167539973081,0.934862891426,0.0,0.0,0.0,0.0,0.0,0.0,0.0,0.0,0.0,0.00185159404054,-0.205617710969,0.000147096513812,0.0,0.0,0.0,0.0,0.0,0.0,0.0,0.0,0.0,5.07833685552,-0.013801275166,8.66427590228,0.0,0.0,0.0,0.0,0.0,0.0,0.0,0.0,0.0
21212000000,224,21212000000,imu_link,-0.000504474395181,-0.355393673801,0.000169485733513,0.934716563137,0.0,0.0,0.0,0.0,0.0,0.0,0.0,0.0,0.0,0.00198389800921,-0.205982237739,0.000175342500911,0.0,0.0,0.0,0.0,0.0,0.0,0.0,0.0,0.0,5.0813819763,-0.0136687352946,8.65511327226,0.0,0.0,0.0,0.0,0.0,0.0,0.0,0.0,0.0
21216000000,225,21216000000,imu_link,-0.000500672797815,-0.35577888698,0.000171516148648,0.934570009945,0.0,0.0,0.0,0.0,0.0,0.0,0.0,0.0,0.0,0.00206789629944,-0.206075459804,0.000188653762308,0.0,0.0,0.0,0.0,0.0,0.0,0.0,0.0,0.0,5.08397236516,-0.013459032849,8.64640726371,0.0,0.0,0.0,0.0,0.0,0.0,0.0,0.0,0.0
21220000000,226,21220000000,imu_link,-0.000496800125,-0.356163561512,0.000173554512856,0.934423480291,0.0,0.0,0.0,0.0,0.0,0.0,0.0,0.0,0.0,0.00210257493526,-0.205819578878,0.000179857496501,0.0,0.0,0.0,0.0,0.0,0.0,0.0,0.0,0.0,5.08632231687,-0.0131752349078,8.63750949104,0.0,0.0,0.0,0.0,0.0,0.0,0.0,0.0,0.0
21224000000,227,21224000000,imu_link,-0.000492878866288,-0.356546686874,0.000175507708422,0.934277360502,0.0,0.0,0.0,0.0,0.0,0.0,0.0,0.0,0.0,0.00211034409592,-0.205022781982,0.000131762686754,0.0,0.0,0.0,0.0,0.0,0.0,0.0,0.0,0.0,5.09094273369,-0.0133031933655,8.62739060858,0.0,0.0,0.0,0.0,0.0,0.0,0.0,0.0,0.0
21228000000,228,21228000000,imu_link,-0.00048899670702,-0.356927294297,0.000177318192286,0.934132022803,0.0,0.0,0.0,0.0,0.0,0.0,0.0,0.0,0.0,0.00206705123211,-0.203707090522,7.26188020223e-05,0.0,0.0,0.0,0.0,0.0,0.0,0.0,0.0,0.0,5.09634067185,-0.0132681823521,8.61592061591,0.0,0.0,0.0,0.0,0.0,0.0,0.0,0.0,0.0
21232000000,229,21232000000,imu_link,-0.000485014665314,-0.357304303606,0.000179047448833,0.93398788393,0.0,0.0,0.0,0.0,0.0,0.0,0.0,0.0,0.0,0.00209981891624,-0.201812575547,1.7628340395e-05,0.0,0.0,0.0,0.0,0.0,0.0,0.0,0.0,0.0,5.09989228741,-0.0134041577099,8.59942726686,0.0,0.0,0.0,0.0,0.0,0.0,0.0,0.0,0.0
21236000000,230,21236000000,imu_link,-0.000480824624776,-0.35767636862,0.000180766725399,0.933845464444,0.0,0.0,0.0,0.0,0.0,0.0,0.0,0.0,0.0,0.00219602976445,-0.199196463311,-2.3146590473e-05,0.0,0.0,0.0,0.0,0.0,0.0,0.0,0.0,0.0,5.10511605382,-0.0135579218744,8.58782379687,0.0,0.0,0.0,0.0,0.0,0.0,0.0,0.0,0.0
21240000000,231,21240000000,imu_link,-0.000476489005554,-0.358042167358,0.000182449312534,0.933705277946,0.0,0.0,0.0,0.0,0.0,0.0,0.0,0.0,0.0,0.00225854549456,-0.195871256263,-6.50080856794e-05,0.0,0.0,0.0,0.0,0.0,0.0,0.0,0.0,0.0,5.1105577433,-0.0135044668793,8.57716504964,0.0,0.0,0.0,0.0,0.0,0.0,0.0,0.0,0.0
21244000000,232,21244000000,imu_link,-0.00047232433115,-0.358400681193,0.000183949656342,0.933567723731,0.0,0.0,0.0,0.0,0.0,0.0,0.0,0.0,0.0,0.00214740573177,-0.191998986037,-0.000117990681875,0.0,0.0,0.0,0.0,0.0,0.0,0.0,0.0,0.0,5.11334135443,-0.0135164000638,8.56072595995,0.0,0.0,0.0,0.0,0.0,0.0,0.0,0.0,0.0
21248000000,233,21248000000,imu_link,-0.000468670529738,-0.358750926391,0.000185141486052,0.933433189299,0.0,0.0,0.0,0.0,0.0,0.0,0.0,0.0,0.0,0.00185512626954,-0.187598052983,-0.000168776477895,0.0,0.0,0.0,0.0,0.0,0.0,0.0,0.0,0.0,5.11558745468,-0.0135426201116,8.54424260984,0.0,0.0,0.0,0.0,0.0,0.0,0.0,0.0,0.0
21252000000,234,21252000000,imu_link,-0.000465628164539,-0.359092275868,0.00018606487575,0.933301926486,0.0,0.0,0.0,0.0,0.0,0.0,0.0,0.0,0.0,0.00152319740117,-0.182859303395,-0.000182603507581,0.0,0.0,0.0,0.0,0.0,0.0,0.0,0.0,0.0,5.11680361456,-0.0138921546294,8.52649377092,0.0,0.0,0.0,0.0,0.0,0.0,0.0,0.0,0.0
21256000000,235,21256000000,imu_link,-0.000463217986345,-0.35942470253,0.000186798571367,0.933173956852,0.0,0.0,0.0,0.0,0.0,0.0,0.0,0.0,0.0,0.00119572467028,-0.178104081847,-0.000155846710929,0.0,0.0,0.0,0.0,0.0,0.0,0.0,0.0,0.0,5.11704786939,-0.0137145316037,8.51296310386,0.0,0.0,0.0,0.0,0.0,0.0,0.0,0.0,0.0
21260000000,236,21260000000,imu_link,-0.00046131317675,-0.359748231822,0.000187434396414,0.933049281528,0.0,0.0,0.0,0.0,0.0,0.0,0.0,0.0,0.0,0.000943931693414,-0.173360586418,-0.000108937838082,0.0,0.0,0.0,0.0,0.0,0.0,0.0,0.0,0.0,5.11694088552,-0.0136285433302,8.5013994944,0.0,0.0,0.0,0.0,0.0,0.0,0.0,0.0,0.0
21264000000,237,21264000000,imu_link,-0.000459772097672,-0.360062753383,0.000188070799918,0.932927953738,0.0,0.0,0.0,0.0,0.0,0.0,0.0,0.0,0.0,0.000775962791348,-0.168556087801,-4.14782922318e-05,0.0,0.0,0.0,0.0,0.0,0.0,0.0,0.0,0.0,5.11484100812,-0.0135605633057,8.48520158656,0.0,0.0,0.0,0.0,0.0,0.0,0.0,0.0,0.0
21268000000,238,21268000000,imu_link,-0.000458418491464,-0.360367808468,0.000188784157007,0.932810161197,0.0,0.0,0.0,0.0,0.0,0.0,0.0,0.0,0.0,0.000704070392526,-0.163503861366,3.00125575999e-05,0.0,0.0,0.0,0.0,0.0,0.0,0.0,0.0,0.0,5.11588879555,-0.0135926643122,8.47100688672,0.0,0.0,0.0,0.0,0.0,0.0,0.0,0.0,0.0
21272000000,239,21272000000,imu_link,-0.000457670628689,-0.360663138182,0.000189465790288,0.932696014464,0.0,0.0,0.0,0.0,0.0,0.0,0.0,0.0,0.0,0.000417586092614,-0.158310918107,0.000126246643541,0.0,0.0,0.0,0.0,0.0,0.0,0.0,0.0,0.0,5.11957146837,-0.0135071051829,8.45701631656,0.0,0.0,0.0,0.0,0.0,0.0,0.0,0.0,0.0
21276000000,240,21276000000,imu_link,-0.000457915313923,-0.360948891538,0.000190018157498,0.932585466273,0.0,0.0,0.0,0.0,0.0,0.0,0.0,0.0,0.0,-6.68668011603e-05,-0.153195946869,0.000246801922448,0.0,0.0,0.0,0.0,0.0,0.0,0.0,0.0,0.0,5.12341221242,-0.0133859152785,8.44583342023,0.0,0.0,0.0,0.0,0.0,0.0,0.0,0.0,0.0
21280000000,241,21280000000,imu_link,-0.000459297301265,-0.361225234245,0.00019041501726,0.93247846245,0.0,0.0,0.0,0.0,0.0,0.0,0.0,0.0,0.0,-0.000623542047728,-0.14816801807,0.000381361795202,0.0,0.0,0.0,0.0,0.0,0.0,0.0,0.0,0.0,5.12658787706,-0.0135091429705,8.43404184669,0.0,0.0,0.0,0.0,0.0,0.0,0.0,0.0,0.0
21284000000,242,21284000000,imu_link,-0.000461681666354,-0.361492165943,0.000190696343488,0.932375012775,0.0,0.0,0.0,0.0,0.0,0.0,0.0,0.0,0.0,-0.00111004450567,-0.143138189922,0.000510360445679,0.0,0.0,0.0,0.0,0.0,0.0,0.0,0.0,0.0,5.12949887867,-0.0136868897291,8.42235942997,0.0,0.0,0.0,0.0,0.0,0.0,0.0,0.0,0.0
21288000000,243,21288000000,imu_link,-0.000465022834397,-0.361750043702,0.000190858922075,0.932274987977,0.0,0.0,0.0,0.0,0.0,0.0,0.0,0.0,0.0,-0.00157590339589,-0.138298203773,0.000629703631276,0.0,0.0,0.0,0.0,0.0,0.0,0.0,0.0,0.0,5.13224982539,-0.0139402259972,8.41276623903,0.0,0.0,0.0,0.0,0.0,0.0,0.0,0.0,0.0
21292000000,244,21292000000,imu_link,-0.000469339918477,-0.361999432544,0.00019085577703,0.932178177245,0.0,0.0,0.0,0.0,0.0,0.0,0.0,0.0,0.0,-0.00205923233181,-0.133759725266,0.000730639523124,0.0,0.0,0.0,0.0,0.0,0.0,0.0,0.0,0.0,5.13335172063,-0.0145083103749,8.39872899168,0.0,0.0,0.0,0.0,0.0,0.0,0.0,0.0,0.0
21296000000,245,21296000000,imu_link,-0.000474297620513,-0.36224068891,0.000190777802111,0.932084450006,0.0,0.0,0.0,0.0,0.0,0.0,0.0,0.0,0.0,-0.00236986189383,-0.129411076251,0.000813328001106,0.0,0.0,0.0,0.0,0.0,0.0,0.0,0.0,0.0,5.13659458744,-0.0148183478464,8.3917828886,0.0,0.0,0.0,0.0,0.0,0.0,0.0,0.0,0.0
21300000000,246,21300000000,imu_link,-0.000479623703418,-0.362474075021,0.000190673049848,0.931993711643,0.0,0.0,0.0,0.0,0.0,0.0,0.0,0.0,0.0,-0.00254493331326,-0.125201817241,0.000869151214297,0.0,0.0,0.0,0.0,0.0,0.0,0.0,0.0,0.0,5.1384898432,-0.0150104850603,8.38325374511,0.0,0.0,0.0,0.0,0.0,0.0,0.0,0.0,0.0
21304000000,247,21304000000,imu_link,-0.000485025695593,-0.362699829171,0.000190555293668,0.931905876341,0.0,0.0,0.0,0.0,0.0,0.0,0.0,0.0,0.0,-0.00258123978841,-0.121119194109,0.000878402466188,0.0,0.0,0.0,0.0,0.0,0.0,0.0,0.0,0.0,5.14014366804,-0.0147679815369,8.37613458501,0.0,0.0,0.0,0.0,0.0,0.0,0.0,0.0,0.0
21308000000,248,21308000000,imu_link,-0.000490084468742,-0.362917871476,0.00019053116863,0.931820981776,0.0,0.0,0.0,0.0,0.0,0.0,0.0,0.0,0.0,-0.0024028879319,-0.116992590247,0.000861377463512,0.0,0.0,0.0,0.0,0.0,0.0,0.0,0.0,0.0,5.14201592539,-0.0145391289941,8.36638344254,0.0,0.0,0.0,0.0,0.0,0.0,0.0,0.0,0.0
21312000000,249,21312000000,imu_link,-0.000494303028032,-0.363127947038,0.000190675411759,0.931739133764,0.0,0.0,0.0,0.0,0.0,0.0,0.0,0.0,0.0,-0.0019793660663,-0.112728097803,0.000789019600022,0.0,0.0,0.0,0.0,0.0,0.0,0.0,0.0,0.0,5.14400392427,-0.0143311436011,8.35563894676,0.0,0.0,0.0,0.0,0.0,0.0,0.0,0.0,0.0
21316000000,250,21316000000,imu_link,-0.000497367647127,-0.363329725097,0.000191047342681,0.931660467653,0.0,0.0,0.0,0.0,0.0,0.0,0.0,0.0,0.0,-0.00139886305264,-0.10828499105,0.000687325827542,0.0,0.0,0.0,0.0,0.0,0.0,0.0,0.0,0.0,5.14771652108,-0.014217051544,8.34470240696,0.0,0.0,0.0,0.0,0.0,0.0,0.0,0.0,0.0
21320000000,251,21320000000,imu_link,-0.000499349244476,-0.363523270617,0.000191595157646,0.931584964274,0.0,0.0,0.0,0.0,0.0,0.0,0.0,0.0,0.0,-0.00086083389227,-0.103875614667,0.000574256115652,0.0,0.0,0.0,0.0,0.0,0.0,0.0,0.0,0.0,5.15376114848,-0.0139255061549,8.33958684837,0.0,0.0,0.0,0.0,0.0,0.0,0.0,0.0,0.0
21324000000,252,21324000000,imu_link,-0.000500515588675,-0.363708852902,0.000192224625558,0.931512524261,0.0,0.0,0.0,0.0,0.0,0.0,0.0,0.0,0.0,-0.000464726018525,-0.0996096961628,0.000465802450376,0.0,0.0,0.0,0.0,0.0,0.0,0.0,0.0,0.0,5.15930350565,-0.0136849201798,8.33524966254,0.0,0.0,0.0,0.0,0.0,0.0,0.0,0.0,0.0
21328000000,253,21328000000,imu_link,-0.000501331754799,-0.363886567781,0.000192759118213,0.931443115439,0.0,0.0,0.0,0.0,0.0,0.0,0.0,0.0,0.0,-0.00031738532022,-0.0953941760471,0.000359563239044,0.0,0.0,0.0,0.0,0.0,0.0,0.0,0.0,0.0,5.16501660274,-0.0133905113338,8.32876409542,0.0,0.0,0.0,0.0,0.0,0.0,0.0,0.0,0.0
21332000000,254,21332000000,imu_link,-0.000502096721547,-0.364056352262,0.000193112847723,0.931376767471,0.0,0.0,0.0,0.0,0.0,0.0,0.0,0.0,0.0,-0.000324897727569,-0.09114387667,0.000267755436859,0.0,0.0,0.0,0.0,0.0,0.0,0.0,0.0,0.0,5.16874983452,-0.0131711173651,8.31569187899,0.0,0.0,0.0,0.0,0.0,0.0,0.0,0.0,0.0
21336000000,255,21336000000,imu_link,-0.000503092927552,-0.364218232531,0.000193235146573,0.931313474964,0.0,0.0,0.0,0.0,0.0,0.0,0.0,0.0,0.0,-0.000473179794285,-0.0869067160096,0.000203762240814,0.0,0.0,0.0,0.0,0.0,0.0,0.0,0.0,0.0,5.17372324255,-0.0130517508877,8.30659623971,0.0,0.0,0.0,0.0,0.0,0.0,0.0,0.0,0.0
21340000000,256,21340000000,imu_link,-0.000504296525823,-0.364372195934,0.000193129467096,0.931253247627,0.0,0.0,0.0,0.0,0.0,0.0,0.0,0.0,0.0,-0.000609734392995,-0.0826619016738,0.000137065928667,0.0,0.0,0.0,0.0,0.0,0.0,0.0,0.0,0.0,5.17876089619,-0.013365299122,8.2978573682,0.0,0.0,0.0,0.0,0.0,0.0,0.0,0.0,0.0
21344000000,257,21344000000,imu_link,-0.000505620381146,-0.364518293419,0.00019283393062,0.931196070077,0.0,0.0,0.0,0.0,0.0,0.0,0.0,0.0,0.0,-0.000698790015013,-0.0784436317786,7.22614927537e-05,0.0,0.0,0.0,0.0,0.0,0.0,0.0,0.0,0.0,5.18378499886,-0.0137091986243,8.29149253763,0.0,0.0,0.0,0.0,0.0,0.0,0.0,0.0,0.0
21348000000,258,21348000000,imu_link,-0.000507106104117,-0.364656772559,0.000192336859093,0.9311418496,0.0,0.0,0.0,0.0,0.0,0.0,0.0,0.0,0.0,-0.00080940476441,-0.0743575253375,9.56991093149e-06,0.0,0.0,0.0,0.0,0.0,0.0,0.0,0.0,0.0,5.18882486312,-0.0137167816686,8.28813985839,0.0,0.0,0.0,0.0,0.0,0.0,0.0,0.0,0.0
21352000000,259,21352000000,imu_link,-0.000508794483812,-0.36478777138,0.000191646165481,0.931090536012,0.0,0.0,0.0,0.0,0.0,0.0,0.0,0.0,0.0,-0.000937602225131,-0.0703448292027,-4.20077228028e-05,0.0,0.0,0.0,0.0,0.0,0.0,0.0,0.0,0.0,5.19271951697,-0.0137146615519,8.28148713956,0.0,0.0,0.0,0.0,0.0,0.0,0.0,0.0,0.0
21356000000,260,21356000000,imu_link,-0.000510633171529,-0.364911395387,0.000190775556792,0.931042091624,0.0,0.0,0.0,0.0,0.0,0.0,0.0,0.0,0.0,-0.00103895622921,-0.0663881347543,-9.67498749638e-05,0.0,0.0,0.0,0.0,0.0,0.0,0.0,0.0,0.0,5.19600407198,-0.0136669053102,8.27362239404,0.0,0.0,0.0,0.0,0.0,0.0,0.0,0.0,0.0
21360000000,261,21360000000,imu_link,-0.000512497783554,-0.365027887687,0.000189742752403,0.930996424566,0.0,0.0,0.0,0.0,0.0,0.0,0.0,0.0,0.0,-0.00107922869232,-0.0625613912279,-0.000165969429458,0.0,0.0,0.0,0.0,0.0,0.0,0.0,0.0,0.0,5.20050001359,-0.013612380206,8.27082363696,0.0,0.0,0.0,0.0,0.0,0.0,0.0,0.0,0.0
21364000000,262,21364000000,imu_link,-0.000513995517078,-0.365137715411,0.000188591676097,0.930953354914,0.0,0.0,0.0,0.0,0.0,0.0,0.0,0.0,0.0,-0.000928735818548,-0.0589849841797,-0.000286523867892,0.0,0.0,0.0,0.0,0.0,0.0,0.0,0.0,0.0,5.20634486284,-0.0135442903898,8.2696761384,0.0,0.0,0.0,0.0,0.0,0.0,0.0,0.0,0.0
21368000000,263,21368000000,imu_link,-0.000514813809603,-0.365241521005,0.000187391497962,0.930912633487,0.0,0.0,0.0,0.0,0.0,0.0,0.0,0.0,0.0,-0.000620264991649,-0.0557531624087,-0.000432098145405,0.0,0.0,0.0,0.0,0.0,0.0,0.0,0.0,0.0,5.21338230405,-0.0133651361243,8.27036563267,0.0,0.0,0.0,0.0,0.0,0.0,0.0,0.0,0.0
21372000000,264,21372000000,imu_link,-0.000514636132589,-0.365339613559,0.000186200790908,0.930874141462,0.0,0.0,0.0,0.0,0.0,0.0,0.0,0.0,0.0,-0.000153845908413,-0.0526869520107,-0.000608312796395,0.0,0.0,0.0,0.0,0.0,0.0,0.0,0.0,0.0,5.21804514526,-0.0132004568498,8.26312199161,0.0,0.0,0.0,0.0,0.0,0.0,0.0,0.0,0.0
21376000000,265,21376000000,imu_link,-0.000513198485941,-0.365432246311,0.000185072128521,0.930837781642,0.0,0.0,0.0,0.0,0.0,0.0,0.0,0.0,0.0,0.000444981322104,-0.049756401894,-0.000808386921779,0.0,0.0,0.0,0.0,0.0,0.0,0.0,0.0,0.0,5.22281170939,-0.0130042822683,8.25627429721,0.0,0.0,0.0,0.0,0.0,0.0,0.0,0.0,0.0
21380000000,266,21380000000,imu_link,-0.000510491075463,-0.36551954061,0.000184059081241,0.930803508241,0.0,0.0,0.0,0.0,0.0,0.0,0.0,0.0,0.0,0.00105810751494,-0.0468907095843,-0.000985407017342,0.0,0.0,0.0,0.0,0.0,0.0,0.0,0.0,0.0,5.22765027037,-0.0127479099759,8.2487331134,0.0,0.0,0.0,0.0,0.0,0.0,0.0,0.0,0.0
21384000000,267,21384000000,imu_link,-0.000506854675023,-0.365601769668,0.000183177077487,0.930771215477,0.0,0.0,0.0,0.0,0.0,0.0,0.0,0.0,0.0,0.00151538225973,-0.0441714753786,-0.00109309051919,0.0,0.0,0.0,0.0,0.0,0.0,0.0,0.0,0.0,5.23400740302,-0.012489305029,8.24514956,0.0,0.0,0.0,0.0,0.0,0.0,0.0,0.0,0.0
21388000000,268,21388000000,imu_link,-0.000502629544694,-0.365679070097,0.000182463872373,0.930740851023,0.0,0.0,0.0,0.0,0.0,0.0,0.0,0.0,0.0,0.00182116531034,-0.0415253627962,-0.00112108196818,0.0,0.0,0.0,0.0,0.0,0.0,0.0,0.0,0.0,5.24155357816,-0.0123354487623,8.24346641332,0.0,0.0,0.0,0.0,0.0,0.0,0.0,0.0,0.0
21392000000,269,21392000000,imu_link,-0.000497888137214,-0.365752030732,0.00018193243218,0.930712184847,0.0,0.0,0.0,0.0,0.0,0.0,0.0,0.0,0.0,0.00209548197149,-0.0391953313115,-0.00112995410613,0.0,0.0,0.0,0.0,0.0,0.0,0.0,0.0,0.0,5.24772438212,-0.0123810367352,8.24108068407,0.0,0.0,0.0,0.0,0.0,0.0,0.0,0.0,0.0
21396000000,270,21396000000,imu_link,-0.00049262195723,-0.365821448376,0.000181537761679,0.930684904936,0.0,0.0,0.0,0.0,0.0,0.0,0.0,0.0,0.0,0.00236536734512,-0.0372931457664,-0.00116151989747,0.0,0.0,0.0,0.0,0.0,0.0,0.0,0.0,0.0,5.25398578541,-0.0122272685585,8.24114249318,0.0,0.0,0.0,0.0,0.0,0.0,0.0,0.0,0.0
21400000000,271,21400000000,imu_link,-0.000486498853092,-0.365887974623,0.000181312701231,0.930658756189,0.0,0.0,0.0,0.0,0.0,0.0,0.0,0.0,0.0,0.00279569509757,-0.0357408733912,-0.00123872424865,0.0,0.0,0.0,0.0,0.0,0.0,0.0,0.0,0.0,5.26092012884,-0.0121784129679,8.24288549147,0.0,0.0,0.0,0.0,0.0,0.0,0.0,0.0,0.0
21404000000,272,21404000000,imu_link,-0.000479513159202,-0.365951909882,0.000181255071355,0.930633621178,0.0,0.0,0.0,0.0,0.0,0.0,0.0,0.0,0.0,0.00322819534724,-0.0343498730373,-0.00131808113877,0.0,0.0,0.0,0.0,0.0,0.0,0.0,0.0,0.0,5.26550607957,-0.0121070758875,8.2356993086,0.0,0.0,0.0,0.0,0.0,0.0,0.0,0.0,0.0
21408000000,273,21408000000,imu_link,-0.000471862703399,-0.366013120082,0.000181355024305,0.930609553134,0.0,0.0,0.0,0.0,0.0,0.0,0.0,0.0,0.0,0.00356685688668,-0.0328867256704,-0.00136583399195,0.0,0.0,0.0,0.0,0.0,0.0,0.0,0.0,0.0,5.27134302244,-0.0120072067462,8.22920356061,0.0,0.0,0.0,0.0,0.0,0.0,0.0,0.0,0.0
21412000000,274,21412000000,imu_link,-0.000463877936248,-0.366071220908,0.000181555043141,0.930586703687,0.0,0.0,0.0,0.0,0.0,0.0,0.0,0.0,0.0,0.00374129572224,-0.0312169617498,-0.00137983092703,0.0,0.0,0.0,0.0,0.0,0.0,0.0,0.0,0.0,5.27706981761,-0.011912421613,8.21870914063,0.0,0.0,0.0,0.0,0.0,0.0,0.0,0.0,0.0
21416000000,275,21416000000,imu_link,-0.00045610537507,-0.366125718289,0.000181761358635,0.93056526764,0.0,0.0,0.0,0.0,0.0,0.0,0.0,0.0,0.0,0.0036443651401,-0.0292815823419,-0.00133735240976,0.0,0.0,0.0,0.0,0.0,0.0,0.0,0.0,0.0,5.28340097674,-0.0117566252059,8.21036431683,0.0,0.0,0.0,0.0,0.0,0.0,0.0,0.0,0.0
21420000000,276,21420000000,imu_link,-0.000448795071488,-0.366176433664,0.000181909306032,0.930545315888,0.0,0.0,0.0,0.0,0.0,0.0,0.0,0.0,0.0,0.00341928188495,-0.0272501062902,-0.0012791602712,0.0,0.0,0.0,0.0,0.0,0.0,0.0,0.0,0.0,5.28896285727,-0.0116974885237,8.20246373235,0.0,0.0,0.0,0.0,0.0,0.0,0.0,0.0,0.0
21424000000,277,21424000000,imu_link,-0.000441843995498,-0.366223256399,0.0001820333256,0.930526892739,0.0,0.0,0.0,0.0,0.0,0.0,0.0,0.0,0.0,0.00324845927212,-0.0251590600438,-0.00122378843105,0.0,0.0,0.0,0.0,0.0,0.0,0.0,0.0,0.0,5.29444943116,-0.0117226369533,8.19470072311,0.0,0.0,0.0,0.0,0.0,0.0,0.0,0.0,0.0
21428000000,278,21428000000,imu_link,-0.000434925740462,-0.366266214575,0.000182214337309,0.930509987963,0.0,0.0,0.0,0.0,0.0,0.0,0.0,0.0,0.0,0.00324431198645,-0.0230830000973,-0.00119054660325,0.0,0.0,0.0,0.0,0.0,0.0,0.0,0.0,0.0,5.30102080557,-0.0117929037685,8.19042994474,0.0,0.0,0.0,0.0,0.0,0.0,0.0,0.0,0.0
21432000000,279,21432000000,imu_link,-0.000428041902682,-0.366305148945,0.00018247681259,0.930494664863,0.0,0.0,0.0,0.0,0.0,0.0,0.0,0.0,0.0,0.0032439284163,-0.0209212611193,-0.00114561140437,0.0,0.0,0.0,0.0,0.0,0.0,0.0,0.0,0.0,5.30641351717,-0.0118571177045,8.18154535651,0.0,0.0,0.0,0.0,0.0,0.0,0.0,0.0,0.0
21436000000,280,21436000000,imu_link,-0.000421384311433,-0.366339823645,0.000182820199209,0.930481016799,0.0,0.0,0.0,0.0,0.0,0.0,0.0,0.0,0.0,0.00315423407866,-0.0186326702958,-0.00106577115367,0.0,0.0,0.0,0.0,0.0,0.0,0.0,0.0,0.0,5.31234017152,-0.0118458692705,8.17482642049,0.0,0.0,0.0,0.0,0.0,0.0,0.0,0.0,0.0
21440000000,281,21440000000,imu_link,-0.000415287156015,-0.366370351772,0.000183168370175,0.93046899966,0.0,0.0,0.0,0.0,0.0,0.0,0.0,0.0,0.0,0.00289509563711,-0.016404730517,-0.000960165732456,0.0,0.0,0.0,0.0,0.0,0.0,0.0,0.0,0.0,5.31852427726,-0.0118997513602,8.1718606115,0.0,0.0,0.0,0.0,0.0,0.0,0.0,0.0,0.0
21444000000,282,21444000000,imu_link,-0.0004098957475,-0.366396899774,0.000183456794697,0.930458548333,0.0,0.0,0.0,0.0,0.0,0.0,0.0,0.0,0.0,0.00255650281332,-0.0142661281685,-0.000857996425146,0.0,0.0,0.0,0.0,0.0,0.0,0.0,0.0,0.0,5.3239106778,-0.0119397083797,8.16671116821,0.0,0.0,0.0,0.0,0.0,0.0,0.0,0.0,0.0
21448000000,283,21448000000,imu_link,-0.000404977401898,-0.366419781146,0.000183660424133,0.930449539872,0.0,0.0,0.0,0.0,0.0,0.0,0.0,0.0,0.0,0.00232151781597,-0.0122959130481,-0.000810162072491,0.0,0.0,0.0,0.0,0.0,0.0,0.0,0.0,0.0,5.33117260129,-0.012054206725,8.16775403234,0.0,0.0,0.0,0.0,0.0,0.0,0.0,0.0,0.0
21452000000,284,21452000000,imu_link,-0.000400183899446,-0.366439147911,0.000183808022591,0.930441914869,0.0,0.0,0.0,0.0,0.0,0.0,0.0,0.0,0.0,0.00225377514249,-0.0104073447504,-0.000812771946951,0.0,0.0,0.0,0.0,0.0,0.0,0.0,0.0,0.0,5.33682005535,-0.0121600755147,8.16286966,0.0,0.0,0.0,0.0,0.0,0.0,0.0,0.0,0.0
21456000000,285,21456000000,imu_link,-0.000395504379225,-0.366455098043,0.000183911938277,0.930435634996,0.0,0.0,0.0,0.0,0.0,0.0,0.0,0.0,0.0,0.00219332783238,-0.00857138220951,-0.000811650294111,0.0,0.0,0.0,0.0,0.0,0.0,0.0,0.0,0.0,5.3423317769,-0.0122143925698,8.15647822431,0.0,0.0,0.0,0.0,0.0,0.0,0.0,0.0,0.0
21460000000,286,21460000000,imu_link,-0.000391326081078,-0.366467910985,0.000183940219885,0.930430590237,0.0,0.0,0.0,0.0,0.0,0.0,0.0,0.0,0.0,0.00194682487596,-0.0068855379656,-0.000754492112159,0.0,0.0,0.0,0.0,0.0,0.0,0.0,0.0,0.0,5.34965759012,-0.0122097364197,8.15612382022,0.0,0.0,0.0,0.0,0.0,0.0,0.0,0.0,0.0
21464000000,287,21464000000,imu_link,-0.000388139680513,-0.366478098112,0.000183853652249,0.930426579129,0.0,0.0,0.0,0.0,0.0,0.0,0.0,0.0,0.0,0.00146477841202,-0.00547445442674,-0.000625753709904,0.0,0.0,0.0,0.0,0.0,0.0,0.0,0.0,0.0,5.35738496827,-0.0122526392467,8.15897806781,0.0,0.0,0.0,0.0,0.0,0.0,0.0,0.0,0.0
21468000000,288,21468000000,imu_link,-0.000386137776433,-0.366486347779,0.000183635370366,0.930423330569,0.0,0.0,0.0,0.0,0.0,0.0,0.0,0.0,0.0,0.000889925804892,-0.00443325933966,-0.00046967701444,0.0,0.0,0.0,0.0,0.0,0.0,0.0,0.0,0.0,5.36494213052,-0.0123847045623,8.16207126287,0.0,0.0,0.0,0.0,0.0,0.0,0.0,0.0,0.0
21472000000,289,21472000000,imu_link,-0.000385249793238,-0.366493266217,0.000183289786218,0.930420605858,0.0,0.0,0.0,0.0,0.0,0.0,0.0,0.0,0.0,0.000348612912658,-0.00371783766181,-0.000324572194471,0.0,0.0,0.0,0.0,0.0,0.0,0.0,0.0,0.0,5.37096377552,-0.0125479701564,8.15993009623,0.0,0.0,0.0,0.0,0.0,0.0,0.0,0.0,0.0
21476000000,290,21476000000,imu_link,-0.000385140246876,-0.366499183479,0.000182814184338,0.930418275162,0.0,0.0,0.0,0.0,0.0,0.0,0.0,0.0,0.0,-3.71815839953e-05,-0.00317978179178,-0.000242255112178,0.0,0.0,0.0,0.0,0.0,0.0,0.0,0.0,0.0,5.37684955477,-0.0127324026033,8.15546270777,0.0,0.0,0.0,0.0,0.0,0.0,0.0,0.0,0.0
21480000000,291,21480000000,imu_link,-0.000385512000852,-0.366504007399,0.000182219148948,0.93041637493,0.0,0.0,0.0,0.0,0.0,0.0,0.0,0.0,0.0,-0.000282790207394,-0.0025921998604,-0.000209447384513,0.0,0.0,0.0,0.0,0.0,0.0,0.0,0.0,0.0,5.38262130456,-0.0128935435039,8.14816792685,0.0,0.0,0.0,0.0,0.0,0.0,0.0,0.0,0.0
21484000000,292,21484000000,imu_link,-0.000386074109137,-0.366507426387,0.000181539775345,0.930415028035,0.0,0.0,0.0,0.0,0.0,0.0,0.0,0.0,0.0,-0.00038656507461,-0.00183718010946,-0.000213579008495,0.0,0.0,0.0,0.0,0.0,0.0,0.0,0.0,0.0,5.38899849294,-0.0130158312556,8.14170238816,0.0,0.0,0.0,0.0,0.0,0.0,0.0,0.0,0.0
21488000000,293,21488000000,imu_link,-0.000386533299909,-0.366509086245,0.000180809163969,0.930414374136,0.0,0.0,0.0,0.0,0.0,0.0,0.0,0.0,0.0,-0.000347783136911,-0.000891825381786,-0.000255998547978,0.0,0.0,0.0,0.0,0.0,0.0,0.0,0.0,0.0,5.39419531133,-0.0130117577078,8.13207160282,0.0,0.0,0.0,0.0,0.0,0.0,0.0,0.0,0.0
21492000000,294,21492000000,imu_link,-0.000386691238725,-0.366508816338,0.000180035206085,0.930414480543,0.0,0.0,0.0,0.0,0.0,0.0,0.0,0.0,0.0,-0.000215260605155,0.000145226348933,-0.0003310652197,0.0,0.0,0.0,0.0,0.0,0.0,0.0,0.0,0.0,5.39922055853,-0.0129571034653,8.12340537644,0.0,0.0,0.0,0.0,0.0,0.0,0.0,0.0,0.0
21496000000,295,21496000000,imu_link,-0.00038626912614,-0.36650678901,0.000179251765554,0.930415279472,0.0,0.0,0.0,0.0,0.0,0.0,0.0,0.0,0.0,5.31378646028e-05,0.00108964824207,-0.000441496141926,0.0,0.0,0.0,0.0,0.0,0.0,0.0,0.0,0.0,5.40493953773,-0.0128954882129,8.11873916674,0.0,0.0,0.0,0.0,0.0,0.0,0.0,0.0,0.0
21500000000,296,21500000000,imu_link,-0.000385103325269,-0.36650340467,0.00017848201935,0.930416613246,0.0,0.0,0.0,0.0,0.0,0.0,0.0,0.0,0.0,0.000401841789169,0.00181888369565,-0.000571194689845,0.0,0.0,0.0,0.0,0.0,0.0,0.0,0.0,0.0,5.41187304329,-0.0127845168306,8.11865499157,0.0,0.0,0.0,0.0,0.0,0.0,0.0,0.0,0.0
21504000000,297,21504000000,imu_link,-0.000383067490088,-0.36649919527,0.000177768440871,0.930418272351,0.0,0.0,0.0,0.0,0.0,0.0,0.0,0.0,0.0,0.000817018080251,0.00226223697767,-0.000704370431581,0.0,0.0,0.0,0.0,0.0,0.0,0.0,0.0,0.0,5.41796749669,-0.0126442857851,8.11635416137,0.0,0.0,0.0,0.0,0.0,0.0,0.0,0.0,0.0
21508000000,298,21508000000,imu_link,-0.000380091846357,-0.366494597772,0.000177152103544,0.930420084667,0.0,0.0,0.0,0.0,0.0,0.0,0.0,0.0,0.0,0.00127210884757,0.00247075789376,-0.000831291782006,0.0,0.0,0.0,0.0,0.0,0.0,0.0,0.0,0.0,5.42326406225,-0.0124684270815,8.11137387297,0.0,0.0,0.0,0.0,0.0,0.0,0.0,0.0,0.0
21512000000,299,21512000000,imu_link,-0.000376081329023,-0.366489851913,0.000176662129598,0.93042195578,0.0,0.0,0.0,0.0,0.0,0.0,0.0,0.0,0.0,0.00177672250325,0.00255043579895,-0.00096212107354,0.0,0.0,0.0,0.0,0.0,0.0,0.0,0.0,0.0,5.42944662243,-0.012307204469,8.10807843103,0.0,0.0,0.0,0.0,0.0,0.0,0.0,0.0,0.0
21516000000,300,21516000000,imu_link,-0.000370959945488,-0.366485095774,0.000176322150675,0.930423831313,0.0,0.0,0.0,0.0,0.0,0.0,0.0,0.0,0.0,0.00232099722159,0.00255590163519,-0.00109590079409,0.0,0.0,0.0,0.0,0.0,0.0,0.0,0.0,0.0,5.43573424902,-0.0121361176131,8.10454350486,0.0,0.0,0.0,0.0,0.0,0.0,0.0,0.0,0.0
21520000000,301,21520000000,imu_link,-0.000364644501923,-0.366480455502,0.000176158093305,0.930425661586,0.0,0.0,0.0,0.0,0.0,0.0,0.0,0.0,0.0,0.00290870587873,0.00249356719084,-0.00123288009451,0.0,0.0,0.0,0.0,0.0,0.0,0.0,0.0,0.0,5.44174658969,-0.0119701787403,8.10018392244,0.0,0.0,0.0,0.0,0.0,0.0,0.0,0.0,0.0
21524000000,302,21524000000,imu_link,-0.000357093039896,-0.366476158199,0.000176208196307,0.930427357136,0.0,0.0,0.0,0.0,0.0,0.0,0.0,0.0,0.0,0.00352290555068,0.00230917912231,-0.00135978891119,0.0,0.0,0.0,0.0,0.0,0.0,0.0,0.0,0.0,5.44788341408,-0.0117937017077,8.09668934951,0.0,0.0,0.0,0.0,0.0,0.0,0.0,0.0,0.0
21528000000,303,21528000000,imu_link,-0.000348463940825,-0.366472122086,0.000176454582345,0.930428950092,0.0,0.0,0.0,0.0,0.0,0.0,0.0,0.0,0.0,0.00406016224104,0.00216874092614,-0.00146597709512,0.0,0.0,0.0,0.0,0.0,0.0,0.0,0.0,0.0,5.45440273479,-0.0115894841438,8.09265461799,0.0,0.0,0.0,0.0,0.0,0.0,0.0,0.0,0.0
21532000000,304,21532000000,imu_link,-0.000339056184399,-0.366468209125,0.00017683423823,0.930430494702,0.0,0.0,0.0,0.0,0.0,0.0,0.0,0.0,0.0,0.0044468054667,0.00210249847585,-0.00154667333103,0.0,0.0,0.0,0.0,0.0,0.0,0.0,0.0,0.0,5.4593969518,-0.0114270858354,8.0842887298,0.0,0.0,0.0,0.0,0.0,0.0,0.0,0.0,0.0
21536000000,305,21536000000,imu_link,-0.000329528884222,-0.366464207871,0.00017725884155,0.930432074006,0.0,0.0,0.0,0.0,0.0,0.0,0.0,0.0,0.0,0.00451066863365,0.00214991245303,-0.0015476556909,0.0,0.0,0.0,0.0,0.0,0.0,0.0,0.0,0.0,5.46574583476,-0.011233775349,8.07945529005,0.0,0.0,0.0,0.0,0.0,0.0,0.0,0.0,0.0
21540000000,306,21540000000,imu_link,-0.000320545176908,-0.366459907163,0.000177659419736,0.930433770953,0.0,0.0,0.0,0.0,0.0,0.0,0.0,0.0,0.0,0.00425342426382,0.0023108308771,-0.00145918999191,0.0,0.0,0.0,0.0,0.0,0.0,0.0,0.0,0.0,5.47237098031,-0.0111328977915,8.07548007013,0.0,0.0,0.0,0.0,0.0,0.0,0.0,0.0,0.0
21544000000,307,21544000000,imu_link,-0.000312424760288,-0.366455010381,0.000178018459875,0.930435702274,0.0,0.0,0.0,0.0,0.0,0.0,0.0,0.0,0.0,0.00384428635459,0.00263116262265,-0.00132025876429,0.0,0.0,0.0,0.0,0.0,0.0,0.0,0.0,0.0,5.47819241371,-0.0111839157788,8.068640093,0.0,0.0,0.0,0.0,0.0,0.0,0.0,0.0,0.0
21548000000,308,21548000000,imu_link,-0.000304976306979,-0.366449138351,0.000178381653958,0.930438017372,0.0,0.0,0.0,0.0,0.0,0.0,0.0,0.0,0.0,0.00353258490064,0.0031552434586,-0.00119508592752,0.0,0.0,0.0,0.0,0.0,0.0,0.0,0.0,0.0,5.48281733036,-0.0113602325618,8.05798370136,0.0,0.0,0.0,0.0,0.0,0.0,0.0,0.0,0.0
21552000000,309,21552000000,imu_link,-0.000297751132647,-0.366441974184,0.000178810897459,0.930440841175,0.0,0.0,0.0,0.0,0.0,0.0,0.0,0.0,0.0,0.00344100597002,0.00384958686411,-0.00112329662518,0.0,0.0,0.0,0.0,0.0,0.0,0.0,0.0,0.0,5.48804736811,-0.0115359517662,8.0501153634,0.0,0.0,0.0,0.0,0.0,0.0,0.0,0.0,0.0
21556000000,310,21556000000,imu_link,-0.000290560477809,-0.366433477364,0.000179326575232,0.930444189666,0.0,0.0,0.0,0.0,0.0,0.0,0.0,0.0,0.0,0.00344098062971,0.00456568827967,-0.00107660945151,0.0,0.0,0.0,0.0,0.0,0.0,0.0,0.0,0.0,5.49341694961,-0.0116029085255,8.04479985763,0.0,0.0,0.0,0.0,0.0,0.0,0.0,0.0,0.0
21560000000,311,21560000000,imu_link,-0.000283601745872,-0.366423832094,0.000179891421249,0.930447990208,0.0,0.0,0.0,0.0,0.0,0.0,0.0,0.0,0.0,0.00334226206442,0.00518280958406,-0.00101111682546,0.0,0.0,0.0,0.0,0.0,0.0,0.0,0.0,0.0,5.49847300627,-0.0115552366973,8.04026898999,0.0,0.0,0.0,0.0,0.0,0.0,0.0,0.0,0.0
21564000000,312,21564000000,imu_link,-0.000277588074798,-0.366413400239,0.000180373054448,0.930452100076,0.0,0.0,0.0,0.0,0.0,0.0,0.0,0.0,0.0,0.00288746610712,0.00560551650555,-0.000876599297934,0.0,0.0,0.0,0.0,0.0,0.0,0.0,0.0,0.0,5.50539107847,-0.0114479989954,8.04187845811,0.0,0.0,0.0,0.0,0.0,0.0,0.0,0.0,0.0
21568000000,313,21568000000,imu_link,-0.000273091543926,-0.366402482113,0.000180664081723,0.93045640085,0.0,0.0,0.0,0.0,0.0,0.0,0.0,0.0,0.0,0.00214680303317,0.00586688153173,-0.000687273614198,0.0,0.0,0.0,0.0,0.0,0.0,0.0,0.0,0.0,5.51164938429,-0.0114608458958,8.04093695059,0.0,0.0,0.0,0.0,0.0,0.0,0.0,0.0,0.0
21572000000,314,21572000000,imu_link,-0.000270276275513,-0.366391191709,0.000180732751072,0.930460847604,0.0,0.0,0.0,0.0,0.0,0.0,0.0,0.0,0.0,0.0013239496387,0.00606700180084,-0.000482673777101,0.0,0.0,0.0,0.0,0.0,0.0,0.0,0.0,0.0,5.51642504841,-0.0116767099684,8.03476218201,0.0,0.0,0.0,0.0,0.0,0.0,0.0,0.0,0.0
21576000000,315,21576000000,imu_link,-0.00026889601603,-0.366379606682,0.000180641275911,0.93046540982,0.0,0.0,0.0,0.0,0.0,0.0,0.0,0.0,0.0,0.000627044283473,0.00622537212074,-0.000294261178497,0.0,0.0,0.0,0.0,0.0,0.0,0.0,0.0,0.0,5.52136479961,-0.0119769886227,8.02888508354,0.0,0.0,0.0,0.0,0.0,0.0,0.0,0.0,0.0
21580000000,316,21580000000,imu_link,-0.000268559087829,-0.366367723703,0.000180457426943,0.930470088901,0.0,0.0,0.0,0.0,0.0,0.0,0.0,0.0,0.0,0.000124773133433,0.00638550465791,-0.000146079338433,0.0,0.0,0.0,0.0,0.0,0.0,0.0,0.0,0.0,5.52705435951,-0.0122660347062,8.02463595578,0.0,0.0,0.0,0.0,0.0,0.0,0.0,0.0,0.0
21584000000,317,21584000000,imu_link,-0.000268776771276,-0.366355538463,0.000180242991029,0.930474886662,0.0,0.0,0.0,0.0,0.0,0.0,0.0,0.0,0.0,-0.000138811467114,0.0065479216922,-5.86836744888e-05,0.0,0.0,0.0,0.0,0.0,0.0,0.0,0.0,0.0,5.53279628363,-0.0124819113909,8.02060486923,0.0,0.0,0.0,0.0,0.0,0.0,0.0,0.0,0.0
21588000000,318,21588000000,imu_link,-0.000269162572073,-0.366343002973,0.000180047193846,0.930479822085,0.0,0.0,0.0,0.0,0.0,0.0,0.0,0.0,0.0,-0.000213561687207,0.00673610028546,-1.91822147279e-05,0.0,0.0,0.0,0.0,0.0,0.0,0.0,0.0,0.0,5.53860052699,-0.012596430262,8.01646897561,0.0,0.0,0.0,0.0,0.0,0.0,0.0,0.0,0.0
21592000000,319,21592000000,imu_link,-0.000269587242089,-0.366330035621,0.00017987470818,0.93048492732,0.0,0.0,0.0,0.0,0.0,0.0,0.0,0.0,0.0,-0.000227313461948,0.00696812433993,-1.17420032968e-06,0.0,0.0,0.0,0.0,0.0,0.0,0.0,0.0,0.0,5.5430053174,-0.0125981298133,8.00821196739,0.0,0.0,0.0,0.0,0.0,0.0,0.0,0.0,0.0
21596000000,320,21596000000,imu_link,-0.00027009154942,-0.366316580863,0.000179670734222,0.930490224212,0.0,0.0,0.0,0.0,0.0,0.0,0.0,0.0,0.0,-0.000270062006228,0.00723000306267,-1.18865858359e-06,0.0,0.0,0.0,0.0,0.0,0.0,0.0,0.0,0.0,5.54797179485,-0.0125379273079,8.00185212144,0.0,0.0,0.0,0.0,0.0,0.0,0.0,0.0,0.0
21600000000,321,21600000000,imu_link,-0.000270828067703,-0.366302557783,0.000179385509402,0.930495744555,0.0,0.0,0.0,0.0,0.0,0.0,0.0,0.0,0.0,-0.000392897554247,0.00753537076292,3.59781186982e-06,0.0,0.0,0.0,0.0,0.0,0.0,0.0,0.0,0.0,5.55306585633,-0.012471206691,7.99608075724,0.0,0.0,0.0,0.0,0.0,0.0,0.0,0.0,0.0
21604000000,322,21604000000,imu_link,-0.000271909981568,-0.36628790964,0.000178979926995,0.930501510629,0.0,0.0,0.0,0.0,0.0,0.0,0.0,0.0,0.0,-0.000575546420607,0.00787123327541,1.09239452086e-05,0.0,0.0,0.0,0.0,0.0,0.0,0.0,0.0,0.0,5.55788674973,-0.0124365136556,7.99012230701,0.0,0.0,0.0,0.0,0.0,0.0,0.0,0.0,0.0
21608000000,323,21608000000,imu_link,-0.000273244017501,-0.366272608525,0.000178429213124,0.930507533417,0.0,0.0,0.0,0.0,0.0,0.0,0.0,0.0,0.0,-0.000719333017747,0.00822208685631,-1.03581437169e-05,0.0,0.0,0.0,0.0,0.0,0.0,0.0,0.0,0.0,5.56223456287,-0.0124464305626,7.98310052718,0.0,0.0,0.0,0.0,0.0,0.0,0.0,0.0,0.0
21612000000,324,21612000000,imu_link,-0.000274754142309,-0.366256598863,0.000177711730448,0.930513834781,0.0,0.0,0.0,0.0,0.0,0.0,0.0,0.0,0.0,-0.000831699180019,0.00860279652871,-5.56277429561e-05,0.0,0.0,0.0,0.0,0.0,0.0,0.0,0.0,0.0,5.56691815536,-0.0124350998475,7.9768493015,0.0,0.0,0.0,0.0,0.0,0.0,0.0,0.0,0.0
21616000000,325,21616000000,imu_link,-0.000276455606243,-0.366239696391,0.000176824179282,0.930520487197,0.0,0.0,0.0,0.0,0.0,0.0,0.0,0.0,0.0,-0.000951737827515,0.00908251105737,-9.96222165266e-05,0.0,0.0,0.0,0.0,0.0,0.0,0.0,0.0,0.0,5.57185077236,-0.0123983847999,7.97041988852,0.0,0.0,0.0,0.0,0.0,0.0,0.0,0.0,0.0
21620000000,326,21620000000,imu_link,-0.000278448794007,-0.366221860794,0.0001757828622,0.930527506441,0.0,0.0,0.0,0.0,0.0,0.0,0.0,0.0,0.0,-0.00111548971384,0.00958387736979,-0.000117646409417,0.0,0.0,0.0,0.0,0.0,0.0,0.0,0.0,0.0,5.57683537988,-0.0123540953528,7.96536564029,0.0,0.0,0.0,0.0,0.0,0.0,0.0,0.0,0.0
21624000000,327,21624000000,imu_link,-0.000281065332924,-0.366203411931,0.000174562111482,0.930534766476,0.0,0.0,0.0,0.0,0.0,0.0,0.0,0.0,0.0,-0.00143828124591,0.00991337882828,-8.69237485286e-05,0.0,0.0,0.0,0.0,0.0,0.0,0.0,0.0,0.0,5.5834549069,-0.0122915665348,7.96700446258,0.0,0.0,0.0,0.0,0.0,0.0,0.0,0.0,0.0
21628000000,328,21628000000,imu_link,-0.000284557105462,-0.366184861447,0.000173144191288,0.930542065839,0.0,0.0,0.0,0.0,0.0,0.0,0.0,0.0,0.0,-0.0018815865737,0.00996796483333,-1.83926569224e-05,0.0,0.0,0.0,0.0,0.0,0.0,0.0,0.0,0.0,5.59046968212,-0.0122752356152,7.97064178008,0.0,0.0,0.0,0.0,0.0,0.0,0.0,0.0,0.0
21632000000,329,21632000000,imu_link,-0.00028895040676,-0.366166865794,0.000171553883789,0.930549146188,0.0,0.0,0.0,0.0,0.0,0.0,0.0,0.0,0.0,-0.00233268379594,0.00966982076673,6.64036361021e-05,0.0,0.0,0.0,0.0,0.0,0.0,0.0,0.0,0.0,5.59561401577,-0.0123352222819,7.97004302618,0.0,0.0,0.0,0.0,0.0,0.0,0.0,0.0,0.0
21636000000,330,21636000000,imu_link,-0.000294174207102,-0.366150056021,0.000169849757917,0.930555759258,0.0,0.0,0.0,0.0,0.0,0.0,0.0,0.0,0.0,-0.00274010137329,0.00903259816767,0.000165366207957,0.0,0.0,0.0,0.0,0.0,0.0,0.0,0.0,0.0,5.6010694461,-0.0124103841052,7.96993158651,0.0,0.0,0.0,0.0,0.0,0.0,0.0,0.0,0.0
21640000000,331,21640000000,imu_link,-0.000300038181423,-0.366134844956,0.000168086056968,0.93056174273,0.0,0.0,0.0,0.0,0.0,0.0,0.0,0.0,0.0,-0.00304909525035,0.0081735536131,0.000254665431071,0.0,0.0,0.0,0.0,0.0,0.0,0.0,0.0,0.0,5.60689805196,-0.0124834471215,7.96917009318,0.0,0.0,0.0,0.0,0.0,0.0,0.0,0.0,0.0
21644000000,332,21644000000,imu_link,-0.000306379476239,-0.366121284309,0.000166305836256,0.930567076384,0.0,0.0,0.0,0.0,0.0,0.0,0.0,0.0,0.0,-0.00327444376714,0.00728672779273,0.00033416795277,0.0,0.0,0.0,0.0,0.0,0.0,0.0,0.0,0.0,5.61157973511,-0.0125084650311,7.96369618395,0.0,0.0,0.0,0.0,0.0,0.0,0.0,0.0,0.0
21648000000,333,21648000000,imu_link,-0.000313049077752,-0.366109268798,0.000164553348385,0.930571801756,0.0,0.0,0.0,0.0,0.0,0.0,0.0,0.0,0.0,-0.0034223443426,0.00645647232054,0.000406985503099,0.0,0.0,0.0,0.0,0.0,0.0,0.0,0.0,0.0,5.61652897975,-0.0125182179207,7.95809354772,0.0,0.0,0.0,0.0,0.0,0.0,0.0,0.0,0.0
21652000000,334,21652000000,imu_link,-0.000319924019244,-0.36609866272,0.000162842754508,0.930575972334,0.0,0.0,0.0,0.0,0.0,0.0,0.0,0.0,0.0,-0.00351042005206,0.005699135736,0.000463891658816,0.0,0.0,0.0,0.0,0.0,0.0,0.0,0.0,0.0,5.62045545943,-0.01250783775,7.94962321178,0.0,0.0,0.0,0.0,0.0,0.0,0.0,0.0,0.0
21656000000,335,21656000000,imu_link,-0.00032693763625,-0.366089374854,0.000161169108674,0.930579624081,0.0,0.0,0.0,0.0,0.0,0.0,0.0,0.0,0.0,-0.00356837111176,0.00499082089364,0.000506298978868,0.0,0.0,0.0,0.0,0.0,0.0,0.0,0.0,0.0,5.62516409058,-0.0124776608851,7.94361950218,0.0,0.0,0.0,0.0,0.0,0.0,0.0,0.0,0.0
21660000000,336,21660000000,imu_link,-0.000333853110718,-0.3660812872,0.000159538285757,0.930582803544,0.0,0.0,0.0,0.0,0.0,0.0,0.0,0.0,0.0,-0.00351504180373,0.00434591057177,0.000508101437246,0.0,0.0,0.0,0.0,0.0,0.0,0.0,0.0,0.0,5.63040232349,-0.0124721678007,7.93910649635,0.0,0.0,0.0,0.0,0.0,0.0,0.0,0.0,0.0
21664000000,337,21664000000,imu_link,-0.000340552350461,-0.366074055347,0.000157907991035,0.930585646296,0.0,0.0,0.0,0.0,0.0,0.0,0.0,0.0,0.0,-0.00341445743677,0.0038860649839,0.000468651462712,0.0,0.0,0.0,0.0,0.0,0.0,0.0,0.0,0.0,5.63563386355,-0.0123835900455,7.93317751527,0.0,0.0,0.0,0.0,0.0,0.0,0.0,0.0,0.0
21668000000,338,21668000000,imu_link,-0.000347049032942,-0.366067301311,0.000156221784761,0.930588301056,0.0,0.0,0.0,0.0,0.0,0.0,0.0,0.0,0.0,-0.00333051261651,0.00362932395897,0.000405494220666,0.0,0.0,0.0,0.0,0.0,0.0,0.0,0.0,0.0,5.6408829081,-0.0122510866292,7.92735580969,0.0,0.0,0.0,0.0,0.0,0.0,0.0,0.0,0.0
21672000000,339,21672000000,imu_link,-0.000353377836043,-0.366060912888,0.000154452870437,0.93059081197,0.0,0.0,0.0,0.0,0.0,0.0,0.0,0.0,0.0,-0.00326759119889,0.00343287874193,0.000336230866269,0.0,0.0,0.0,0.0,0.0,0.0,0.0,0.0,0.0,5.64464189406,-0.0120920265131,7.91954880894,0.0,0.0,0.0,0.0,0.0,0.0,0.0,0.0,0.0
21676000000,340,21676000000,imu_link,-0.000359653848942,-0.366055152528,0.00015258814627,0.930593075771,0.0,0.0,0.0,0.0,0.0,0.0,0.0,0.0,0.0,-0.00326065644463,0.00309542761308,0.000281896883746,0.0,0.0,0.0,0.0,0.0,0.0,0.0,0.0,0.0,5.64924487521,-0.0119457522805,7.91651342483,0.0,0.0,0.0,0.0,0.0,0.0,0.0,0.0,0.0
21680000000,341,21680000000,imu_link,-0.000365672329998,-0.366050162749,0.000150696846108,0.930595036482,0.0,0.0,0.0,0.0,0.0,0.0,0.0,0.0,0.0,-0.00314580520447,0.00268139048977,0.000222280289255,0.0,0.0,0.0,0.0,0.0,0.0,0.0,0.0,0.0,5.65447190985,-0.01188526258,7.91428203136,0.0,0.0,0.0,0.0,0.0,0.0,0.0,0.0,0.0
21684000000,342,21684000000,imu_link,-0.000370882291188,-0.36604594929,0.000148865847813,0.930596692071,0.0,0.0,0.0,0.0,0.0,0.0,0.0,0.0,0.0,-0.00275868044459,0.00226425397105,0.000102240234539,0.0,0.0,0.0,0.0,0.0,0.0,0.0,0.0,0.0,5.65998309673,-0.0118512889522,7.91191911261,0.0,0.0,0.0,0.0,0.0,0.0,0.0,0.0,0.0
21688000000,343,21688000000,imu_link,-0.000374915252791,-0.366042398364,0.000147114246511,0.930598087466,0.0,0.0,0.0,0.0,0.0,0.0,0.0,0.0,0.0,-0.00219659057489,0.00190825402646,-7.63379349682e-05,0.0,0.0,0.0,0.0,0.0,0.0,0.0,0.0,0.0,5.66510155828,-0.0116925911669,7.9078096882,0.0,0.0,0.0,0.0,0.0,0.0,0.0,0.0,0.0
21692000000,344,21692000000,imu_link,-0.000377706170864,-0.36603939657,0.00014542975073,0.930599267326,0.0,0.0,0.0,0.0,0.0,0.0,0.0,0.0,0.0,-0.00160646797118,0.00161319244348,-0.000272521181419,0.0,0.0,0.0,0.0,0.0,0.0,0.0,0.0,0.0,5.66904906728,-0.011433737982,7.90099274267,0.0,0.0,0.0,0.0,0.0,0.0,0.0,0.0,0.0
21696000000,345,21696000000,imu_link,-0.00037977637731,-0.366036964259,0.000143732500569,0.930600223462,0.0,0.0,0.0,0.0,0.0,0.0,0.0,0.0,0.0,-0.00127353907923,0.00130721629695,-0.000410451494609,0.0,0.0,0.0,0.0,0.0,0.0,0.0,0.0,0.0,5.67403107277,-0.0110978418256,7.89797401916,0.0,0.0,0.0,0.0,0.0,0.0,0.0,0.0,0.0
21700000000,346,21700000000,imu_link,-0.000381760198631,-0.366035326534,0.000141935535882,0.930600867097,0.0,0.0,0.0,0.0,0.0,0.0,0.0,0.0,0.0,-0.00125171011578,0.000880314312191,-0.000472787174171,0.0,0.0,0.0,0.0,0.0,0.0,0.0,0.0,0.0,5.67966612321,-0.0108196724765,7.89810167771,0.0,0.0,0.0,0.0,0.0,0.0,0.0,0.0,0.0
21704000000,347,21704000000,imu_link,-0.000384078363138,-0.36603481712,0.000140005392561,0.930601066805,0.0,0.0,0.0,0.0,0.0,0.0,0.0,0.0,0.0,-0.00143181899794,0.000274113850739,-0.000473748408278,0.0,0.0,0.0,0.0,0.0,0.0,0.0,0.0,0.0,5.68495624075,-0.0106796708685,7.89807139481,0.0,0.0,0.0,0.0,0.0,0.0,0.0,0.0,0.0
21708000000,348,21708000000,imu_link,-0.000386821446563,-0.36603579619,0.000137968603121,0.930600680873,0.0,0.0,0.0,0.0,0.0,0.0,0.0,0.0,0.0,-0.00164926875804,-0.000525611284018,-0.000445848196744,0.0,0.0,0.0,0.0,0.0,0.0,0.0,0.0,0.0,5.69002271619,-0.0106562753226,7.89737414492,0.0,0.0,0.0,0.0,0.0,0.0,0.0,0.0,0.0
21712000000,349,21712000000,imu_link,-0.000389825151051,-0.366038104411,0.000135895382102,0.930599772022,0.0,0.0,0.0,0.0,0.0,0.0,0.0,0.0,0.0,-0.00177739628621,-0.00123974384774,-0.000415322502581,0.0,0.0,0.0,0.0,0.0,0.0,0.0,0.0,0.0,5.6938085752,-0.0106886727421,7.8898743786,0.0,0.0,0.0,0.0,0.0,0.0,0.0,0.0,0.0
21716000000,350,21716000000,imu_link,-0.000392942768912,-0.366041231373,0.000133823864224,0.93059854106,0.0,0.0,0.0,0.0,0.0,0.0,0.0,0.0,0.0,-0.00183020687394,-0.00167964859786,-0.000393819409343,0.0,0.0,0.0,0.0,0.0,0.0,0.0,0.0,0.0,5.69777640951,-0.0106798217414,7.88059402984,0.0,0.0,0.0,0.0,0.0,0.0,0.0,0.0,0.0
21720000000,351,21720000000,imu_link,-0.00039624471932,-0.366044381102,0.000131739317352,0.930597301038,0.0,0.0,0.0,0.0,0.0,0.0,0.0,0.0,0.0,-0.0019183645515,-0.00169188596509,-0.000366149001514,0.0,0.0,0.0,0.0,0.0,0.0,0.0,0.0,0.0,5.70251346286,-0.0106125206658,7.87190770955,0.0,0.0,0.0,0.0,0.0,0.0,0.0,0.0,0.0
21724000000,352,21724000000,imu_link,-0.000400049670259,-0.366046947465,0.00012958105749,0.930596290247,0.0,0.0,0.0,0.0,0.0,0.0,0.0,0.0,0.0,-0.00216581729054,-0.00137844399211,-0.000308286818749,0.0,0.0,0.0,0.0,0.0,0.0,0.0,0.0,0.0,5.70654740797,-0.0105187201592,7.86336576185,0.0,0.0,0.0,0.0,0.0,0.0,0.0,0.0,0.0
21728000000,353,21728000000,imu_link,-0.000404825832535,-0.366048714123,0.000127275461697,0.930595593588,0.0,0.0,0.0,0.0,0.0,0.0,0.0,0.0,0.0,-0.0026445714111,-0.000948757344468,-0.000198947874052,0.0,0.0,0.0,0.0,0.0,0.0,0.0,0.0,0.0,5.71099720168,-0.0104562395751,7.85890396796,0.0,0.0,0.0,0.0,0.0,0.0,0.0,0.0,0.0
21732000000,354,21732000000,imu_link,-0.00041092295496,-0.366049735484,0.000124795052133,0.9305951895,0.0,0.0,0.0,0.0,0.0,0.0,0.0,0.0,0.0,-0.00329109978658,-0.000548304809339,-3.83882145296e-05,0.0,0.0,0.0,0.0,0.0,0.0,0.0,0.0,0.0,5.71457652318,-0.0104845464176,7.85407104397,0.0,0.0,0.0,0.0,0.0,0.0,0.0,0.0,0.0
21736000000,355,21736000000,imu_link,-0.000418258328823,-0.366050340221,0.000122203447834,0.930594948702,0.0,0.0,0.0,0.0,0.0,0.0,0.0,0.0,0.0,-0.00388754705812,-0.000324464496035,0.000136579358964,0.0,0.0,0.0,0.0,0.0,0.0,0.0,0.0,0.0,5.71874618952,-0.010635743707,7.85238787237,0.0,0.0,0.0,0.0,0.0,0.0,0.0,0.0,0.0
21740000000,356,21740000000,imu_link,-0.000426455544012,-0.366050797376,0.000119569649548,0.930594765502,0.0,0.0,0.0,0.0,0.0,0.0,0.0,0.0,0.0,-0.00429626114883,-0.000245191476367,0.000274712603802,0.0,0.0,0.0,0.0,0.0,0.0,0.0,0.0,0.0,5.72271086614,-0.0108303636078,7.84993086376,0.0,0.0,0.0,0.0,0.0,0.0,0.0,0.0,0.0
21744000000,357,21744000000,imu_link,-0.000434864285877,-0.366051222692,0.000116957072065,0.930594594644,0.0,0.0,0.0,0.0,0.0,0.0,0.0,0.0,0.0,-0.00439079547667,-0.000228110111158,0.000323307392578,0.0,0.0,0.0,0.0,0.0,0.0,0.0,0.0,0.0,5.72795320657,-0.0110046329181,7.84954182006,0.0,0.0,0.0,0.0,0.0,0.0,0.0,0.0,0.0
21748000000,358,21748000000,imu_link,-0.000442652979625,-0.366051666286,0.000114454235137,0.930594416794,0.0,0.0,0.0,0.0,0.0,0.0,0.0,0.0,0.0,-0.00408220602076,-0.000237954257498,0.000260881125289,0.0,0.0,0.0,0.0,0.0,0.0,0.0,0.0,0.0,5.73207626816,-0.0111159244717,7.84581948491,0.0,0.0,0.0,0.0,0.0,0.0,0.0,0.0,0.0
21752000000,359,21752000000,imu_link,-0.000449194947044,-0.366052327327,0.000112164196159,0.930594153916,0.0,0.0,0.0,0.0,0.0,0.0,0.0,0.0,0.0,-0.00346319148079,-0.000354812937253,0.000131669031522,0.0,0.0,0.0,0.0,0.0,0.0,0.0,0.0,0.0,5.73562332385,-0.0110735369732,7.84151343093,0.0,0.0,0.0,0.0,0.0,0.0,0.0,0.0,0.0
21756000000,360,21756000000,imu_link,-0.000454501435616,-0.366053356516,0.000110092248615,0.930593746751,0.0,0.0,0.0,0.0,0.0,0.0,0.0,0.0,0.0,-0.00284846339908,-0.000552637533412,6.94679176546e-06,0.0,0.0,0.0,0.0,0.0,0.0,0.0,0.0,0.0,5.73878174125,-0.0108062580721,7.83585971382,0.0,0.0,0.0,0.0,0.0,0.0,0.0,0.0,0.0
21760000000,361,21760000000,imu_link,-0.000459388138116,-0.366054943495,0.000108107325215,0.930593120337,0.0,0.0,0.0,0.0,0.0,0.0,0.0,0.0,0.0,-0.0026372910409,-0.00085234691625,-2.95078865572e-05,0.0,0.0,0.0,0.0,0.0,0.0,0.0,0.0,0.0,5.7441575479,-0.0103912410269,7.83636816476,0.0,0.0,0.0,0.0,0.0,0.0,0.0,0.0,0.0
21764000000,362,21764000000,imu_link,-0.00046484108633,-0.366057366386,0.000106056591151,0.930592164801,0.0,0.0,0.0,0.0,0.0,0.0,0.0,0.0,0.0,-0.00291292916509,-0.00130148642186,4.33349458213e-05,0.0,0.0,0.0,0.0,0.0,0.0,0.0,0.0,0.0,5.74938649812,-0.0100423771837,7.83709717873,0.0,0.0,0.0,0.0,0.0,0.0,0.0,0.0,0.0
21768000000,363,21768000000,imu_link,-0.000471606331159,-0.366060947001,0.000103828254327,0.930590753171,0.0,0.0,0.0,0.0,0.0,0.0,0.0,0.0,0.0,-0.0035562094355,-0.00192353784037,0.000200640106126,0.0,0.0,0.0,0.0,0.0,0.0,0.0,0.0,0.0,5.7529603517,-0.00990721312699,7.83397955704,0.0,0.0,0.0,0.0,0.0,0.0,0.0,0.0,0.0
21772000000,364,21772000000,imu_link,-0.000480020341895,-0.366066008327,0.000101371060447,0.930588758181,0.0,0.0,0.0,0.0,0.0,0.0,0.0,0.0,0.0,-0.00436547483302,-0.00271913952145,0.00039560950882,0.0,0.0,0.0,0.0,0.0,0.0,0.0,0.0,0.0,5.75672051996,-0.00996608553989,7.83107788534,0.0,0.0,0.0,0.0,0.0,0.0,0.0,0.0,0.0
21776000000,365,21776000000,imu_link,-0.000489983624686,-0.366072523502,9.87165488697e-05,0.930586190371,0.0,0.0,0.0,0.0,0.0,0.0,0.0,0.0,0.0,-0.00512266923484,-0.00350032608058,0.000587046707231,0.0,0.0,0.0,0.0,0.0,0.0,0.0,0.0,0.0,5.75977748011,-0.0101461707185,7.82395704319,0.0,0.0,0.0,0.0,0.0,0.0,0.0,0.0,0.0
21780000000,366,21780000000,imu_link,-0.000501128120189,-0.366080066125,9.5919760627e-05,0.930583217588,0.0,0.0,0.0,0.0,0.0,0.0,0.0,0.0,0.0,-0.00569847107032,-0.00405242248856,0.00073681938832,0.0,0.0,0.0,0.0,0.0,0.0,0.0,0.0,0.0,5.76415974596,-0.0103361417508,7.81760330729,0.0,0.0,0.0,0.0,0.0,0.0,0.0,0.0,0.0
21784000000,367,21784000000,imu_link,-0.000512877962492,-0.366088108818,9.30672384479e-05,0.930580047538,0.0,0.0,0.0,0.0,0.0,0.0,0.0,0.0,0.0,-0.00599040881,-0.00432116529356,0.000821573715249,0.0,0.0,0.0,0.0,0.0,0.0,0.0,0.0,0.0,5.76916723708,-0.010509205385,7.81256610339,0.0,0.0,0.0,0.0,0.0,0.0,0.0,0.0,0.0
21788000000,368,21788000000,imu_link,-0.000524874332486,-0.366096270036,9.0228836393e-05,0.930576830483,0.0,0.0,0.0,0.0,0.0,0.0,0.0,0.0,0.0,-0.00610254864992,-0.00438490997349,0.000873240889242,0.0,0.0,0.0,0.0,0.0,0.0,0.0,0.0,0.0,5.77265061166,-0.0105783467751,7.80490364253,0.0,0.0,0.0,0.0,0.0,0.0,0.0,0.0,0.0
21792000000,369,21792000000,imu_link,-0.000536993787817,-0.366104298365,8.74460434142e-05,0.930573665386,0.0,0.0,0.0,0.0,0.0,0.0,0.0,0.0,0.0,-0.00614962006252,-0.00431357633493,0.00092167822051,0.0,0.0,0.0,0.0,0.0,0.0,0.0,0.0,0.0,5.77546396953,-0.0105688902128,7.79674841351,0.0,0.0,0.0,0.0,0.0,0.0,0.0,0.0,0.0
21796000000,370,21796000000,imu_link,-0.000549256567757,-0.366112072834,8.47287487942e-05,0.930570599828,0.0,0.0,0.0,0.0,0.0,0.0,0.0,0.0,0.0,-0.00620427967521,-0.00417724927139,0.000978453430514,0.0,0.0,0.0,0.0,0.0,0.0,0.0,0.0,0.0,5.77815596939,-0.0105317103063,7.78932314272,0.0,0.0,0.0,0.0,0.0,0.0,0.0,0.0,0.0
21800000000,371,21800000000,imu_link,-0.000561524511016,-0.366119626167,8.20741449126e-05,0.930567621019,0.0,0.0,0.0,0.0,0.0,0.0,0.0,0.0,0.0,-0.0061951729813,-0.00405849489415,0.00100862474136,0.0,0.0,0.0,0.0,0.0,0.0,0.0,0.0,0.0,5.78134308827,-0.0105247056172,7.78433710438,0.0,0.0,0.0,0.0,0.0,0.0,0.0,0.0,0.0
21804000000,372,21804000000,imu_link,-0.000573516658179,-0.366127128854,7.94570232548e-05,0.930564662064,0.0,0.0,0.0,0.0,0.0,0.0,0.0,0.0,0.0,-0.00605998038205,-0.00403131783307,0.000975590836302,0.0,0.0,0.0,0.0,0.0,0.0,0.0,0.0,0.0,5.78475125569,-0.0104530795163,7.78076686504,0.0,0.0,0.0,0.0,0.0,0.0,0.0,0.0,0.0
21808000000,373,21808000000,imu_link,-0.000584897556869,-0.36613486827,7.68599114778e-05,0.930561610117,0.0,0.0,0.0,0.0,0.0,0.0,0.0,0.0,0.0,-0.00577195025807,-0.00415851713826,0.000872939566267,0.0,0.0,0.0,0.0,0.0,0.0,0.0,0.0,0.0,5.79038151801,-0.0103019811285,7.7836218847,0.0,0.0,0.0,0.0,0.0,0.0,0.0,0.0,0.0
21812000000,374,21812000000,imu_link,-0.000595483909323,-0.366142931137,7.42790082207e-05,0.930558431191,0.0,0.0,0.0,0.0,0.0,0.0,0.0,0.0,0.0,-0.00539934545851,-0.00433229335878,0.000734935825882,0.0,0.0,0.0,0.0,0.0,0.0,0.0,0.0,0.0,5.79295982183,-0.010089780594,7.77753039552,0.0,0.0,0.0,0.0,0.0,0.0,0.0,0.0,0.0
21816000000,375,21816000000,imu_link,-0.000605340899425,-0.36615138925,7.17014470754e-05,0.93055509701,0.0,0.0,0.0,0.0,0.0,0.0,0.0,0.0,0.0,-0.00505943737555,-0.00454464389977,0.000602853491148,0.0,0.0,0.0,0.0,0.0,0.0,0.0,0.0,0.0,5.79531917344,-0.0098522097534,7.77072736655,0.0,0.0,0.0,0.0,0.0,0.0,0.0,0.0,0.0
21820000000,376,21820000000,imu_link,-0.000614593292357,-0.366160262444,6.91128399198e-05,0.930551599701,0.0,0.0,0.0,0.0,0.0,0.0,0.0,0.0,0.0,-0.00478021839716,-0.00476765515064,0.000486907198934,0.0,0.0,0.0,0.0,0.0,0.0,0.0,0.0,0.0,5.79849596067,-0.00962942617532,7.76577772561,0.0,0.0,0.0,0.0,0.0,0.0,0.0,0.0,0.0
21824000000,377,21824000000,imu_link,-0.000623451089724,-0.366169594738,6.6487527622e-05,0.930547921806,0.0,0.0,0.0,0.0,0.0,0.0,0.0,0.0,0.0,-0.00460341397047,-0.00501432712862,0.000397451737295,0.0,0.0,0.0,0.0,0.0,0.0,0.0,0.0,0.0,5.80114524824,-0.0094271240902,7.75965239878,0.0,0.0,0.0,0.0,0.0,0.0,0.0,0.0,0.0
21828000000,378,21828000000,imu_link,-0.000632116323395,-0.36617942278,6.38349949624e-05,0.930544048762,0.0,0.0,0.0,0.0,0.0,0.0,0.0,0.0,0.0,-0.00451888004513,-0.00528071279885,0.000349383276579,0.0,0.0,0.0,0.0,0.0,0.0,0.0,0.0,0.0,5.80608664458,-0.00928260959642,7.75905610935,0.0,0.0,0.0,0.0,0.0,0.0,0.0,0.0,0.0
21832000000,379,21832000000,imu_link,-0.000640658456286,-0.366189622624,6.11584950552e-05,0.930540029283,0.0,0.0,0.0,0.0,0.0,0.0,0.0,0.0,0.0,-0.00446605100145,-0.00548050859269,0.000315580663515,0.0,0.0,0.0,0.0,0.0,0.0,0.0,0.0,0.0,5.8091543191,-0.00919898717964,7.75286783603,0.0,0.0,0.0,0.0,0.0,0.0,0.0,0.0,0.0
21836000000,380,21836000000,imu_link,-0.000649007452486,-0.366199944444,5.84653013269e-05,0.930535961723,0.0,0.0,0.0,0.0,0.0,0.0,0.0,0.0,0.0,-0.004379265974,-0.00554606456538,0.000272413600712,0.0,0.0,0.0,0.0,0.0,0.0,0.0,0.0,0.0,5.81170543671,-0.00915807614706,7.74476326141,0.0,0.0,0.0,0.0,0.0,0.0,0.0,0.0,0.0
21840000000,381,21840000000,imu_link,-0.000656709360591,-0.3662102035,5.57953820538e-05,0.930531919104,0.0,0.0,0.0,0.0,0.0,0.0,0.0,0.0,0.0,-0.00407392512224,-0.00551232212948,0.000164780285426,0.0,0.0,0.0,0.0,0.0,0.0,0.0,0.0,0.0,5.81554803778,-0.00916222193472,7.74060452954,0.0,0.0,0.0,0.0,0.0,0.0,0.0,0.0,0.0
21844000000,382,21844000000,imu_link,-0.000663181529786,-0.366220469023,5.32081663252e-05,0.930527874611,0.0,0.0,0.0,0.0,0.0,0.0,0.0,0.0,0.0,-0.00348662682314,-0.00551573539987,-2.19141098117e-05,0.0,0.0,0.0,0.0,0.0,0.0,0.0,0.0,0.0,5.81998364836,-0.00913831298391,7.73973952013,0.0,0.0,0.0,0.0,0.0,0.0,0.0,0.0,0.0
