%time,field.header.seq,field.header.stamp,field.header.frame_id,field.orientation.x,field.orientation.y,field.orientation.z,field.orientation.w,field.orientation_covariance0,field.orientation_covariance1,field.orientation_covariance2,field.orientation_covariance3,field.orientation_covariance4,field.orientation_covariance5,field.orientation_covariance6,field.orientation_covariance7,field.orientation_covariance8,field.angular_velocity.x,field.angular_velocity.y,field.angular_velocity.z,field.angular_velocity_covariance0,field.angular_velocity_covariance1,field.angular_velocity_covariance2,field.angular_velocity_covariance3,field.angular_velocity_covariance4,field.angular_velocity_covariance5,field.angular_velocity_covariance6,field.angular_velocity_covariance7,field.angular_velocity_covariance8,field.linear_acceleration.x,field.linear_acceleration.y,field.linear_acceleration.z,field.linear_acceleration_covariance0,field.linear_acceleration_covariance1,field.linear_acceleration_covariance2,field.linear_acceleration_covariance3,field.linear_acceleration_covariance4,field.linear_acceleration_covariance5,field.linear_acceleration_covariance6,field.linear_acceleration_covariance7,field.linear_acceleration_covariance8
25108000000,0,25108000000,imu_link,0.00105998600777,-0.37715989383,0.000487348201706,0.926147425309,0.0,0.0,0.0,0.0,0.0,0.0,0.0,0.0,0.0,0.000166229328117,-0.00910275421001,0.000842631031551,0.0,0.0,0.0,0.0,0.0,0.0,0.0,0.0,0.0,6.66330233679,0.00783540681918,7.00189427228,0.0,0.0,0.0,0.0,0.0,0.0,0.0,0.0,0.0
25112000000,1,25112000000,imu_link,0.00106044913452,-0.377176913261,0.000489042933228,0.926140492791,0.0,0.0,0.0,0.0,0.0,0.0,0.0,0.0,0.0,0.000533581197521,-0.00918779919105,0.000708158653534,0.0,0.0,0.0,0.0,0.0,0.0,0.0,0.0,0.0,6.66348195526,0.00794829674176,6.99901198501,0.0,0.0,0.0,0.0,0.0,0.0,0.0,0.0,0.0
25116000000,2,25116000000,imu_link,0.00106114299785,-0.377194210531,0.000490696698463,0.926133446505,0.0,0.0,0.0,0.0,0.0,0.0,0.0,0.0,0.0,0.000632695054158,-0.00933799228722,0.000645849267542,0.0,0.0,0.0,0.0,0.0,0.0,0.0,0.0,0.0,6.66452926448,0.00820218731157,7.00046612029,0.0,0.0,0.0,0.0,0.0,0.0,0.0,0.0,0.0
25120000000,3,25120000000,imu_link,0.00106122149251,-0.377212029228,0.000492230537861,0.926126188229,0.0,0.0,0.0,0.0,0.0,0.0,0.0,0.0,0.0,0.000325105184018,-0.00961934124153,0.000706701016751,0.0,0.0,0.0,0.0,0.0,0.0,0.0,0.0,0.0,6.66564338089,0.00836917419546,7.00359256398,0.0,0.0,0.0,0.0,0.0,0.0,0.0,0.0,0.0
25124000000,4,25124000000,imu_link,0.00106019365301,-0.37723018321,0.00049364577022,0.926118794312,0.0,0.0,0.0,0.0,0.0,0.0,0.0,0.0,0.0,-0.000209577887641,-0.00979997215883,0.000860651041724,0.0,0.0,0.0,0.0,0.0,0.0,0.0,0.0,0.0,6.66581842585,0.00832536596977,7.0008251628,0.0,0.0,0.0,0.0,0.0,0.0,0.0,0.0,0.0
25128000000,5,25128000000,imu_link,0.00105791430478,-0.377248176183,0.000494957691602,0.92611146705,0.0,0.0,0.0,0.0,0.0,0.0,0.0,0.0,0.0,-0.000808582363338,-0.00971258939928,0.0010487635525,0.0,0.0,0.0,0.0,0.0,0.0,0.0,0.0,0.0,6.66640051869,0.00817033897259,6.99578117474,0.0,0.0,0.0,0.0,0.0,0.0,0.0,0.0,0.0
25132000000,6,25132000000,imu_link,0.00105459182033,-0.377265561973,0.000496178797297,0.926104387956,0.0,0.0,0.0,0.0,0.0,0.0,0.0,0.0,0.0,-0.00130872360484,-0.00938440898916,0.00120308885709,0.0,0.0,0.0,0.0,0.0,0.0,0.0,0.0,0.0,6.6674357139,0.00794388661344,6.99193709675,0.0,0.0,0.0,0.0,0.0,0.0,0.0,0.0,0.0
25136000000,7,25136000000,imu_link,0.00105064068892,-0.377282081747,0.000497339116944,0.926097662021,0.0,0.0,0.0,0.0,0.0,0.0,0.0,0.0,0.0,-0.00161125757023,-0.00891665746989,0.00129298090779,0.0,0.0,0.0,0.0,0.0,0.0,0.0,0.0,0.0,6.6680444091,0.00776759412716,6.98949182658,0.0,0.0,0.0,0.0,0.0,0.0,0.0,0.0,0.0
25140000000,8,25140000000,imu_link,0.00104652856333,-0.377297853364,0.00049852076186,0.9260912407,0.0,0.0,0.0,0.0,0.0,0.0,0.0,0.0,0.0,-0.00168175688768,-0.00851271041415,0.0013327568856,0.0,0.0,0.0,0.0,0.0,0.0,0.0,0.0,0.0,6.66804868267,0.00767151888575,6.9894820869,0.0,0.0,0.0,0.0,0.0,0.0,0.0,0.0,0.0
25144000000,9,25144000000,imu_link,0.00104263805056,-0.377313068893,0.000499771606384,0.926085045326,0.0,0.0,0.0,0.0,0.0,0.0,0.0,0.0,0.0,-0.00156606523702,-0.00821261015999,0.00132264514235,0.0,0.0,0.0,0.0,0.0,0.0,0.0,0.0,0.0,6.66736123593,0.00764847805972,6.98859356308,0.0,0.0,0.0,0.0,0.0,0.0,0.0,0.0,0.0
25148000000,10,25148000000,imu_link,0.00103927383257,-0.377327877798,0.00050112884382,0.926079014672,0.0,0.0,0.0,0.0,0.0,0.0,0.0,0.0,0.0,-0.00130228091221,-0.00799332713982,0.00127236749186,0.0,0.0,0.0,0.0,0.0,0.0,0.0,0.0,0.0,6.66667102101,0.00768221736273,6.98732838646,0.0,0.0,0.0,0.0,0.0,0.0,0.0,0.0,0.0
25152000000,11,25152000000,imu_link,0.00103659909717,-0.377342299858,0.000502640789773,0.926073140498,0.0,0.0,0.0,0.0,0.0,0.0,0.0,0.0,0.0,-0.000953819698606,-0.00778477235448,0.00121368291844,0.0,0.0,0.0,0.0,0.0,0.0,0.0,0.0,0.0,6.66605688701,0.00776314013401,6.98491928467,0.0,0.0,0.0,0.0,0.0,0.0,0.0,0.0,0.0
25156000000,12,25156000000,imu_link,0.00103446611543,-0.377356163911,0.000504326274347,0.926067492731,0.0,0.0,0.0,0.0,0.0,0.0,0.0,0.0,0.0,-0.000670203322246,-0.00748372467833,0.00119147824621,0.0,0.0,0.0,0.0,0.0,0.0,0.0,0.0,0.0,6.66685608696,0.00791678612195,6.98362241012,0.0,0.0,0.0,0.0,0.0,0.0,0.0,0.0,0.0
25160000000,13,25160000000,imu_link,0.00103249294673,-0.377369416589,0.000506182147475,0.926062093578,0.0,0.0,0.0,0.0,0.0,0.0,0.0,0.0,0.0,-0.000564030332279,-0.00715368154164,0.0012398417648,0.0,0.0,0.0,0.0,0.0,0.0,0.0,0.0,0.0,6.66793641192,0.00809807788138,6.98386996955,0.0,0.0,0.0,0.0,0.0,0.0,0.0,0.0,0.0
25164000000,14,25164000000,imu_link,0.00103038816967,-0.377382209395,0.000508167185709,0.926056881675,0.0,0.0,0.0,0.0,0.0,0.0,0.0,0.0,0.0,-0.000600577882871,-0.00690531512517,0.00132419690358,0.0,0.0,0.0,0.0,0.0,0.0,0.0,0.0,0.0,6.66761502574,0.00817587142846,6.98329937204,0.0,0.0,0.0,0.0,0.0,0.0,0.0,0.0,0.0
25168000000,15,25168000000,imu_link,0.00102797169415,-0.377394790592,0.000510218672219,0.926051756105,0.0,0.0,0.0,0.0,0.0,0.0,0.0,0.0,0.0,-0.00073235564892,-0.00679093088539,0.00141364811748,0.0,0.0,0.0,0.0,0.0,0.0,0.0,0.0,0.0,6.6676356896,0.00816404411661,6.98422129603,0.0,0.0,0.0,0.0,0.0,0.0,0.0,0.0,0.0
25172000000,16,25172000000,imu_link,0.00102511791177,-0.377407314565,0.000512289215016,0.926046654119,0.0,0.0,0.0,0.0,0.0,0.0,0.0,0.0,0.0,-0.000931241691857,-0.0067598626992,0.00150495490692,0.0,0.0,0.0,0.0,0.0,0.0,0.0,0.0,0.0,6.66810234977,0.00811437662607,6.98501309321,0.0,0.0,0.0,0.0,0.0,0.0,0.0,0.0,0.0
25176000000,17,25176000000,imu_link,0.00102182557031,-0.377419851468,0.000514377246351,0.926041547128,0.0,0.0,0.0,0.0,0.0,0.0,0.0,0.0,0.0,-0.00113100537445,-0.00676667284799,0.00159581812095,0.0,0.0,0.0,0.0,0.0,0.0,0.0,0.0,0.0,6.66711704099,0.0080237328337,6.9823761116,0.0,0.0,0.0,0.0,0.0,0.0,0.0,0.0,0.0
25180000000,18,25180000000,imu_link,0.00101825352092,-0.377432365447,0.000516484221579,0.926036449562,0.0,0.0,0.0,0.0,0.0,0.0,0.0,0.0,0.0,-0.00125693997209,-0.00675419855279,0.00165735906229,0.0,0.0,0.0,0.0,0.0,0.0,0.0,0.0,0.0,6.66776690532,0.00792520418454,6.98174272082,0.0,0.0,0.0,0.0,0.0,0.0,0.0,0.0,0.0
25184000000,19,25184000000,imu_link,0.00101470712209,-0.377444784924,0.000518612839312,0.926031390258,0.0,0.0,0.0,0.0,0.0,0.0,0.0,0.0,0.0,-0.00124097408501,-0.00670321679433,0.00166248126753,0.0,0.0,0.0,0.0,0.0,0.0,0.0,0.0,0.0,6.66878550816,0.00787144419481,6.98187617566,0.0,0.0,0.0,0.0,0.0,0.0,0.0,0.0,0.0
25188000000,20,25188000000,imu_link,0.00101163972723,-0.377457207464,0.000520790088134,0.926026328943,0.0,0.0,0.0,0.0,0.0,0.0,0.0,0.0,0.0,-0.00101000972616,-0.00670511437832,0.00159460152531,0.0,0.0,0.0,0.0,0.0,0.0,0.0,0.0,0.0,6.67041313105,0.00786257233524,6.98458660523,0.0,0.0,0.0,0.0,0.0,0.0,0.0,0.0,0.0
25192000000,21,25192000000,imu_link,0.00100952883522,-0.377469907296,0.000523063628449,0.926021153291,0.0,0.0,0.0,0.0,0.0,0.0,0.0,0.0,0.0,-0.000548977724527,-0.00685528352779,0.00145883633888,0.0,0.0,0.0,0.0,0.0,0.0,0.0,0.0,0.0,6.67095984487,0.00789749062294,6.98665736282,0.0,0.0,0.0,0.0,0.0,0.0,0.0,0.0,0.0
25196000000,22,25196000000,imu_link,0.00100868625438,-0.377483086923,0.000525471138042,0.926015780383,0.0,0.0,0.0,0.0,0.0,0.0,0.0,0.0,0.0,6.35225298733e-05,-0.00711492672243,0.00128178465466,0.0,0.0,0.0,0.0,0.0,0.0,0.0,0.0,0.0,6.67175484337,0.0080119653377,6.98851334693,0.0,0.0,0.0,0.0,0.0,0.0,0.0,0.0,0.0
25200000000,23,25200000000,imu_link,0.0010090342801,-0.377496790963,0.000528013863428,0.926010192095,0.0,0.0,0.0,0.0,0.0,0.0,0.0,0.0,0.0,0.000640274447169,-0.00739862979396,0.00111999478408,0.0,0.0,0.0,0.0,0.0,0.0,0.0,0.0,0.0,6.67113736893,0.00822111403986,6.98609866604,0.0,0.0,0.0,0.0,0.0,0.0,0.0,0.0,0.0
25204000000,24,25204000000,imu_link,0.0010102569377,-0.377511140617,0.000530665489756,0.926004339345,0.0,0.0,0.0,0.0,0.0,0.0,0.0,0.0,0.0,0.00106575132047,-0.00774764478746,0.00100572665508,0.0,0.0,0.0,0.0,0.0,0.0,0.0,0.0,0.0,6.67212480308,0.0084667673859,6.98724486762,0.0,0.0,0.0,0.0,0.0,0.0,0.0,0.0,0.0
25208000000,25,25208000000,imu_link,0.00101184611135,-0.377526166567,0.000533386029411,0.925998210162,0.0,0.0,0.0,0.0,0.0,0.0,0.0,0.0,0.0,0.0012484170074,-0.00811301237967,0.000968866693344,0.0,0.0,0.0,0.0,0.0,0.0,0.0,0.0,0.0,6.67290722729,0.00869591962437,6.98732678878,0.0,0.0,0.0,0.0,0.0,0.0,0.0,0.0,0.0
25212000000,26,25212000000,imu_link,0.00101358316886,-0.377541873347,0.000536141753734,0.925991802918,0.0,0.0,0.0,0.0,0.0,0.0,0.0,0.0,0.0,0.00132348777772,-0.00848074553697,0.000957660753435,0.0,0.0,0.0,0.0,0.0,0.0,0.0,0.0,0.0,6.67300629751,0.00875691743372,6.98594169738,0.0,0.0,0.0,0.0,0.0,0.0,0.0,0.0,0.0
25216000000,27,25216000000,imu_link,0.00101524372481,-0.377558255812,0.000538948075322,0.925985119904,0.0,0.0,0.0,0.0,0.0,0.0,0.0,0.0,0.0,0.00129757778825,-0.00884559598899,0.00099594470804,0.0,0.0,0.0,0.0,0.0,0.0,0.0,0.0,0.0,6.67333897682,0.00874604895019,6.98502898204,0.0,0.0,0.0,0.0,0.0,0.0,0.0,0.0,0.0
25220000000,28,25220000000,imu_link,0.00101665095669,-0.377575315428,0.000541816341979,0.925978160669,0.0,0.0,0.0,0.0,0.0,0.0,0.0,0.0,0.0,0.00119194230407,-0.00921115665268,0.00107286528283,0.0,0.0,0.0,0.0,0.0,0.0,0.0,0.0,0.0,6.67355684633,0.00869625012964,6.98393865555,0.0,0.0,0.0,0.0,0.0,0.0,0.0,0.0,0.0
25224000000,29,25224000000,imu_link,0.00101776057848,-0.377593083911,0.000544753889241,0.92597091228,0.0,0.0,0.0,0.0,0.0,0.0,0.0,0.0,0.0,0.0010671863517,-0.00959382719351,0.00116156522739,0.0,0.0,0.0,0.0,0.0,0.0,0.0,0.0,0.0,6.6729430084,0.00859920296534,6.98134221041,0.0,0.0,0.0,0.0,0.0,0.0,0.0,0.0,0.0
25228000000,30,25228000000,imu_link,0.00101858762197,-0.377611556285,0.000547764249903,0.925963376702,0.0,0.0,0.0,0.0,0.0,0.0,0.0,0.0,0.0,0.000950058050021,-0.00997382504518,0.00124906299806,0.0,0.0,0.0,0.0,0.0,0.0,0.0,0.0,0.0,6.67304695379,0.00854092199466,6.98004325318,0.0,0.0,0.0,0.0,0.0,0.0,0.0,0.0,0.0
25232000000,31,25232000000,imu_link,0.00101922740583,-0.377630591751,0.000550871787149,0.925955611188,0.0,0.0,0.0,0.0,0.0,0.0,0.0,0.0,0.0,0.000881670655718,-0.0102778384591,0.00132975943118,0.0,0.0,0.0,0.0,0.0,0.0,0.0,0.0,0.0,6.67373226175,0.00849447844015,6.97848753902,0.0,0.0,0.0,0.0,0.0,0.0,0.0,0.0,0.0
25236000000,32,25236000000,imu_link,0.00101985462645,-0.377649952004,0.000554075411968,0.925947712697,0.0,0.0,0.0,0.0,0.0,0.0,0.0,0.0,0.0,0.00089397526503,-0.010453263827,0.00137682012059,0.0,0.0,0.0,0.0,0.0,0.0,0.0,0.0,0.0,6.6749021983,0.00843979684631,6.97708848987,0.0,0.0,0.0,0.0,0.0,0.0,0.0,0.0,0.0
25240000000,33,25240000000,imu_link,0.00102050906388,-0.377669373618,0.000557346777527,0.925939788624,0.0,0.0,0.0,0.0,0.0,0.0,0.0,0.0,0.0,0.000919363124455,-0.0104864753724,0.00140308147541,0.0,0.0,0.0,0.0,0.0,0.0,0.0,0.0,0.0,6.67669232233,0.00842883300752,6.97661929287,0.0,0.0,0.0,0.0,0.0,0.0,0.0,0.0,0.0
25244000000,34,25244000000,imu_link,0.00102120593348,-0.377688468986,0.000560667647496,0.925931997063,0.0,0.0,0.0,0.0,0.0,0.0,0.0,0.0,0.0,0.000948379394963,-0.0103103973435,0.00141778446509,0.0,0.0,0.0,0.0,0.0,0.0,0.0,0.0,0.0,6.67789754908,0.00841979324109,6.97414035838,0.0,0.0,0.0,0.0,0.0,0.0,0.0,0.0,0.0
25248000000,35,25248000000,imu_link,0.00102179919413,-0.377706926144,0.000564024460303,0.925924465464,0.0,0.0,0.0,0.0,0.0,0.0,0.0,0.0,0.0,0.000907245746274,-0.00996578798283,0.00145359198088,0.0,0.0,0.0,0.0,0.0,0.0,0.0,0.0,0.0,6.67868432519,0.00844097595134,6.97158656387,0.0,0.0,0.0,0.0,0.0,0.0,0.0,0.0,0.0
25252000000,36,25252000000,imu_link,0.00102216335587,-0.377724511822,0.000567401509111,0.925917289182,0.0,0.0,0.0,0.0,0.0,0.0,0.0,0.0,0.0,0.000805067478237,-0.009495147667,0.00150568116614,0.0,0.0,0.0,0.0,0.0,0.0,0.0,0.0,0.0,6.67922256042,0.00845879080769,6.96914029603,0.0,0.0,0.0,0.0,0.0,0.0,0.0,0.0,0.0
25256000000,37,25256000000,imu_link,0.00102206915136,-0.377741122939,0.000570792470027,0.925910510585,0.0,0.0,0.0,0.0,0.0,0.0,0.0,0.0,0.0,0.000595563563925,-0.00896872185933,0.00159807907791,0.0,0.0,0.0,0.0,0.0,0.0,0.0,0.0,0.0,6.67970287919,0.0084157527103,6.96809301214,0.0,0.0,0.0,0.0,0.0,0.0,0.0,0.0,0.0
25260000000,38,25260000000,imu_link,0.0010212755754,-0.377756800273,0.000574169687274,0.925904113379,0.0,0.0,0.0,0.0,0.0,0.0,0.0,0.0,0.0,0.000269261700571,-0.00846419555196,0.00172322100702,0.0,0.0,0.0,0.0,0.0,0.0,0.0,0.0,0.0,6.68017625702,0.00830702096664,6.96829066661,0.0,0.0,0.0,0.0,0.0,0.0,0.0,0.0,0.0
25264000000,39,25264000000,imu_link,0.00101966619579,-0.377771463286,0.000577533994829,0.925898130607,0.0,0.0,0.0,0.0,0.0,0.0,0.0,0.0,0.0,-0.000110775074065,-0.00791610848359,0.00187069520101,0.0,0.0,0.0,0.0,0.0,0.0,0.0,0.0,0.0,6.68045894925,0.00816052801686,6.96702795854,0.0,0.0,0.0,0.0,0.0,0.0,0.0,0.0,0.0
25268000000,40,25268000000,imu_link,0.00101722128301,-0.377784944829,0.000580904037044,0.925892630531,0.0,0.0,0.0,0.0,0.0,0.0,0.0,0.0,0.0,-0.000496406100077,-0.00727772931751,0.00203042861002,0.0,0.0,0.0,0.0,0.0,0.0,0.0,0.0,0.0,6.68112196064,0.00798495079934,6.965451557,0.0,0.0,0.0,0.0,0.0,0.0,0.0,0.0,0.0
25272000000,41,25272000000,imu_link,0.00101409883143,-0.377797130025,0.000584299318144,0.925887659893,0.0,0.0,0.0,0.0,0.0,0.0,0.0,0.0,0.0,-0.000805195506744,-0.00657737392858,0.00216928172555,0.0,0.0,0.0,0.0,0.0,0.0,0.0,0.0,0.0,6.68104372007,0.00783424832452,6.96324705159,0.0,0.0,0.0,0.0,0.0,0.0,0.0,0.0,0.0
25276000000,42,25276000000,imu_link,0.00101042516955,-0.377808115501,0.000587744614806,0.925883179164,0.0,0.0,0.0,0.0,0.0,0.0,0.0,0.0,0.0,-0.0010508249569,-0.00592924110404,0.00229580751161,0.0,0.0,0.0,0.0,0.0,0.0,0.0,0.0,0.0,6.6814679074,0.00774147478842,6.96397184315,0.0,0.0,0.0,0.0,0.0,0.0,0.0,0.0,0.0
25280000000,43,25280000000,imu_link,0.00100623893896,-0.377818150399,0.000591230714925,0.925879086684,0.0,0.0,0.0,0.0,0.0,0.0,0.0,0.0,0.0,-0.00128032319308,-0.00541566647403,0.00241092909995,0.0,0.0,0.0,0.0,0.0,0.0,0.0,0.0,0.0,6.68174720081,0.00766185642748,6.96561979636,0.0,0.0,0.0,0.0,0.0,0.0,0.0,0.0,0.0
25284000000,44,25284000000,imu_link,0.00100139654801,-0.37782754506,0.000594717483011,0.92587525602,0.0,0.0,0.0,0.0,0.0,0.0,0.0,0.0,0.0,-0.0015839020442,-0.00506962164327,0.00253479346168,0.0,0.0,0.0,0.0,0.0,0.0,0.0,0.0,0.0,6.68228165521,0.00761530541206,6.96808216289,0.0,0.0,0.0,0.0,0.0,0.0,0.0,0.0,0.0
25288000000,45,25288000000,imu_link,0.000995805682701,-0.377836488507,0.000598156908098,0.925871610177,0.0,0.0,0.0,0.0,0.0,0.0,0.0,0.0,0.0,-0.00193930110177,-0.00482562357716,0.00265399284057,0.0,0.0,0.0,0.0,0.0,0.0,0.0,0.0,0.0,6.68210771951,0.00754299202991,6.96845972135,0.0,0.0,0.0,0.0,0.0,0.0,0.0,0.0,0.0
25292000000,46,25292000000,imu_link,0.000989633785811,-0.377845416362,0.000601530215534,0.925867971214,0.0,0.0,0.0,0.0,0.0,0.0,0.0,0.0,0.0,-0.00222077101691,-0.00481696441509,0.00273314225754,0.0,0.0,0.0,0.0,0.0,0.0,0.0,0.0,0.0,6.68440648286,0.00743043366745,6.97541099738,0.0,0.0,0.0,0.0,0.0,0.0,0.0,0.0,0.0
25296000000,47,25296000000,imu_link,0.00098327802255,-0.377854786816,0.000604854356276,0.925864151696,0.0,0.0,0.0,0.0,0.0,0.0,0.0,0.0,0.0,-0.00231522148996,-0.00505593903267,0.00274539116723,0.0,0.0,0.0,0.0,0.0,0.0,0.0,0.0,0.0,6.68691146219,0.0073056785313,6.98277758285,0.0,0.0,0.0,0.0,0.0,0.0,0.0,0.0,0.0
25300000000,48,25300000000,imu_link,0.000977032784803,-0.377864950361,0.000608135962438,0.925860008244,0.0,0.0,0.0,0.0,0.0,0.0,0.0,0.0,0.0,-0.00227217222624,-0.0054843404931,0.00270530712963,0.0,0.0,0.0,0.0,0.0,0.0,0.0,0.0,0.0,6.68854587593,0.00724355279807,6.98759746522,0.0,0.0,0.0,0.0,0.0,0.0,0.0,0.0,0.0
25304000000,49,25304000000,imu_link,0.00097083929681,-0.377875864323,0.00061136313488,0.925855558318,0.0,0.0,0.0,0.0,0.0,0.0,0.0,0.0,0.0,-0.0022585784692,-0.00588967612054,0.00267079069771,0.0,0.0,0.0,0.0,0.0,0.0,0.0,0.0,0.0,6.68754509183,0.00724988831649,6.98384005288,0.0,0.0,0.0,0.0,0.0,0.0,0.0,0.0,0.0
25308000000,50,25308000000,imu_link,0.000964292336569,-0.377887325226,0.000614527972255,0.925850885364,0.0,0.0,0.0,0.0,0.0,0.0,0.0,0.0,0.0,-0.00243404697899,-0.00618493133052,0.00270905205124,0.0,0.0,0.0,0.0,0.0,0.0,0.0,0.0,0.0,6.68720108274,0.00728032159266,6.97994857615,0.0,0.0,0.0,0.0,0.0,0.0,0.0,0.0,0.0
25312000000,51,25312000000,imu_link,0.000956712131835,-0.377899127449,0.000617609280573,0.925846073996,0.0,0.0,0.0,0.0,0.0,0.0,0.0,0.0,0.0,-0.00292818256873,-0.00636881213994,0.00286581642018,0.0,0.0,0.0,0.0,0.0,0.0,0.0,0.0,0.0,6.68958732868,0.00730233549389,6.98116719066,0.0,0.0,0.0,0.0,0.0,0.0,0.0,0.0,0.0
25316000000,52,25316000000,imu_link,0.000947760616549,-0.377911120425,0.00062059101794,0.92584118599,0.0,0.0,0.0,0.0,0.0,0.0,0.0,0.0,0.0,-0.00358182994699,-0.00647122049111,0.00307894617707,0.0,0.0,0.0,0.0,0.0,0.0,0.0,0.0,0.0,6.6907614844,0.0071948089517,6.9805354009,0.0,0.0,0.0,0.0,0.0,0.0,0.0,0.0,0.0
25320000000,53,25320000000,imu_link,0.000937494234659,-0.377923243042,0.000623480918191,0.925836246182,0.0,0.0,0.0,0.0,0.0,0.0,0.0,0.0,0.0,-0.00420787758796,-0.00654065828747,0.00328496174985,0.0,0.0,0.0,0.0,0.0,0.0,0.0,0.0,0.0,6.6899168996,0.00701959807481,6.97699374249,0.0,0.0,0.0,0.0,0.0,0.0,0.0,0.0,0.0
25324000000,54,25324000000,imu_link,0.000926351723131,-0.377935490342,0.000626316860896,0.925831256083,0.0,0.0,0.0,0.0,0.0,0.0,0.0,0.0,0.0,-0.004623665076,-0.00660763172419,0.00342561282334,0.0,0.0,0.0,0.0,0.0,0.0,0.0,0.0,0.0,6.69170865424,0.00682983903435,6.9787819481,0.0,0.0,0.0,0.0,0.0,0.0,0.0,0.0,0.0
25328000000,55,25328000000,imu_link,0.000915035451203,-0.377947833128,0.000629127587609,0.92582622686,0.0,0.0,0.0,0.0,0.0,0.0,0.0,0.0,0.0,-0.00470887827107,-0.00665918371135,0.00344683153604,0.0,0.0,0.0,0.0,0.0,0.0,0.0,0.0,0.0,6.6938012986,0.00664369899254,6.98123746208,0.0,0.0,0.0,0.0,0.0,0.0,0.0,0.0,0.0
25332000000,56,25332000000,imu_link,0.000904090410849,-0.37796000566,0.000631932539585,0.925821266446,0.0,0.0,0.0,0.0,0.0,0.0,0.0,0.0,0.0,-0.00453809950709,-0.00656748714303,0.00337390571097,0.0,0.0,0.0,0.0,0.0,0.0,0.0,0.0,0.0,6.69548475638,0.0065661287565,6.98071675644,0.0,0.0,0.0,0.0,0.0,0.0,0.0,0.0,0.0
25336000000,57,25336000000,imu_link,0.000893719704452,-0.377971764195,0.000634733527002,0.925816474173,0.0,0.0,0.0,0.0,0.0,0.0,0.0,0.0,0.0,-0.00427292863241,-0.0063442518177,0.0032632925701,0.0,0.0,0.0,0.0,0.0,0.0,0.0,0.0,0.0,6.69561563782,0.00661473915024,6.97745837582,0.0,0.0,0.0,0.0,0.0,0.0,0.0,0.0,0.0
25340000000,58,25340000000,imu_link,0.000883891614329,-0.37798284143,0.000637529577238,0.925811959242,0.0,0.0,0.0,0.0,0.0,0.0,0.0,0.0,0.0,-0.00402258785776,-0.0059766330098,0.00315806782735,0.0,0.0,0.0,0.0,0.0,0.0,0.0,0.0,0.0,6.69644882856,0.00673775921802,6.9750469078,0.0,0.0,0.0,0.0,0.0,0.0,0.0,0.0,0.0
25344000000,59,25344000000,imu_link,0.000874502208153,-0.377993194144,0.000640301436823,0.925807739458,0.0,0.0,0.0,0.0,0.0,0.0,0.0,0.0,0.0,-0.00382398974833,-0.00558561771102,0.00306354804659,0.0,0.0,0.0,0.0,0.0,0.0,0.0,0.0,0.0,6.6961418449,0.00687025807699,6.97286627657,0.0,0.0,0.0,0.0,0.0,0.0,0.0,0.0,0.0
25348000000,60,25348000000,imu_link,0.000865509896557,-0.378003046164,0.00064302051726,0.925803723533,0.0,0.0,0.0,0.0,0.0,0.0,0.0,0.0,0.0,-0.00365007704999,-0.00531546696398,0.00296378265646,0.0,0.0,0.0,0.0,0.0,0.0,0.0,0.0,0.0,6.69559268335,0.00694160487312,6.97260458286,0.0,0.0,0.0,0.0,0.0,0.0,0.0,0.0,0.0
25352000000,61,25352000000,imu_link,0.000857001593544,-0.378012587954,0.000645665884084,0.925799833664,0.0,0.0,0.0,0.0,0.0,0.0,0.0,0.0,0.0,-0.00343991536967,-0.00514822316041,0.00283800734617,0.0,0.0,0.0,0.0,0.0,0.0,0.0,0.0,0.0,6.69540557305,0.00697062053982,6.972976003,0.0,0.0,0.0,0.0,0.0,0.0,0.0,0.0,0.0
25356000000,62,25356000000,imu_link,0.000849119951031,-0.378021771287,0.000648245200342,0.925796089432,0.0,0.0,0.0,0.0,0.0,0.0,0.0,0.0,0.0,-0.00316226493288,-0.00495499759033,0.00268878914995,0.0,0.0,0.0,0.0,0.0,0.0,0.0,0.0,0.0,6.69619756755,0.0070117765296,6.9727101003,0.0,0.0,0.0,0.0,0.0,0.0,0.0,0.0,0.0
25360000000,63,25360000000,imu_link,0.000842014660878,-0.378030400354,0.000650766159506,0.925792570678,0.0,0.0,0.0,0.0,0.0,0.0,0.0,0.0,0.0,-0.00281383914895,-0.0046560876908,0.00251472831661,0.0,0.0,0.0,0.0,0.0,0.0,0.0,0.0,0.0,6.69623415882,0.00707604450472,6.96957210208,0.0,0.0,0.0,0.0,0.0,0.0,0.0,0.0,0.0
25364000000,64,25364000000,imu_link,0.000835696594095,-0.378038210022,0.000653219109028,0.925789385702,0.0,0.0,0.0,0.0,0.0,0.0,0.0,0.0,0.0,-0.0024621651353,-0.0042139870698,0.00233399614528,0.0,0.0,0.0,0.0,0.0,0.0,0.0,0.0,0.0,6.69620356692,0.00724123491421,6.96630260549,0.0,0.0,0.0,0.0,0.0,0.0,0.0,0.0,0.0
25368000000,65,25368000000,imu_link,0.000829971617469,-0.378045168877,0.000655601139005,0.925786547549,0.0,0.0,0.0,0.0,0.0,0.0,0.0,0.0,0.0,-0.0022008990333,-0.00375481670646,0.00218859370557,0.0,0.0,0.0,0.0,0.0,0.0,0.0,0.0,0.0,6.69598128166,0.0074884534949,6.96468804995,0.0,0.0,0.0,0.0,0.0,0.0,0.0,0.0,0.0
25372000000,66,25372000000,imu_link,0.000824527563242,-0.378051481335,0.000657904825604,0.925783973061,0.0,0.0,0.0,0.0,0.0,0.0,0.0,0.0,0.0,-0.00208556814041,-0.00340589031834,0.00209887373108,0.0,0.0,0.0,0.0,0.0,0.0,0.0,0.0,0.0,6.69740283874,0.00766718768083,6.9682453132,0.0,0.0,0.0,0.0,0.0,0.0,0.0,0.0,0.0
25376000000,67,25376000000,imu_link,0.000819305159945,-0.378057596728,0.000660124636914,0.925781478822,0.0,0.0,0.0,0.0,0.0,0.0,0.0,0.0,0.0,-0.00199879054908,-0.00329960875664,0.00201804315902,0.0,0.0,0.0,0.0,0.0,0.0,0.0,0.0,0.0,6.69875924324,0.00773795816237,6.97364139235,0.0,0.0,0.0,0.0,0.0,0.0,0.0,0.0,0.0
25380000000,68,25380000000,imu_link,0.000814427878593,-0.378063766922,0.000662289790526,0.925778961859,0.0,0.0,0.0,0.0,0.0,0.0,0.0,0.0,0.0,-0.00184937745372,-0.00332940730027,0.00192753458039,0.0,0.0,0.0,0.0,0.0,0.0,0.0,0.0,0.0,6.69831165682,0.00774918236003,6.97375400154,0.0,0.0,0.0,0.0,0.0,0.0,0.0,0.0,0.0
25384000000,69,25384000000,imu_link,0.000810147624705,-0.378069944654,0.000664432383387,0.925776441232,0.0,0.0,0.0,0.0,0.0,0.0,0.0,0.0,0.0,-0.00157728542638,-0.00333379633773,0.00180423850305,0.0,0.0,0.0,0.0,0.0,0.0,0.0,0.0,0.0,6.70034624571,0.0077651590881,6.97542562866,0.0,0.0,0.0,0.0,0.0,0.0,0.0,0.0,0.0
25388000000,70,25388000000,imu_link,0.000806542035428,-0.378075942861,0.000666575672387,0.92577399326,0.0,0.0,0.0,0.0,0.0,0.0,0.0,0.0,0.0,-0.00126482932024,-0.00323718539205,0.00167692867299,0.0,0.0,0.0,0.0,0.0,0.0,0.0,0.0,0.0,6.70052236776,0.00784504680242,6.97228482135,0.0,0.0,0.0,0.0,0.0,0.0,0.0,0.0,0.0
25392000000,71,25392000000,imu_link,0.000803188073467,-0.378081726915,0.000668682092129,0.925771632492,0.0,0.0,0.0,0.0,0.0,0.0,0.0,0.0,0.0,-0.00115528778889,-0.00312167091273,0.00161217983006,0.0,0.0,0.0,0.0,0.0,0.0,0.0,0.0,0.0,6.70120906663,0.00799079128725,6.9718758015,0.0,0.0,0.0,0.0,0.0,0.0,0.0,0.0,0.0
25396000000,72,25396000000,imu_link,0.000799408270722,-0.378087411477,0.000670707807076,0.925769312723,0.0,0.0,0.0,0.0,0.0,0.0,0.0,0.0,0.0,-0.00136764315369,-0.00306775679696,0.00165527037123,0.0,0.0,0.0,0.0,0.0,0.0,0.0,0.0,0.0,6.70394830058,0.00809015678635,6.97691407995,0.0,0.0,0.0,0.0,0.0,0.0,0.0,0.0,0.0
25400000000,73,25400000000,imu_link,0.000794890116848,-0.37809333249,0.000672648202799,0.925766897022,0.0,0.0,0.0,0.0,0.0,0.0,0.0,0.0,0.0,-0.00172558457406,-0.00319512858133,0.00175548472724,0.0,0.0,0.0,0.0,0.0,0.0,0.0,0.0,0.0,6.70414135955,0.00802702480433,6.97900089865,0.0,0.0,0.0,0.0,0.0,0.0,0.0,0.0,0.0
25404000000,74,25404000000,imu_link,0.000789687956002,-0.378099592831,0.000674524732103,0.925764343292,0.0,0.0,0.0,0.0,0.0,0.0,0.0,0.0,0.0,-0.00205433307995,-0.00337808736043,0.00185541254374,0.0,0.0,0.0,0.0,0.0,0.0,0.0,0.0,0.0,6.70447943697,0.00786198891249,6.97902979289,0.0,0.0,0.0,0.0,0.0,0.0,0.0,0.0,0.0
25408000000,75,25408000000,imu_link,0.000783852294061,-0.378106081037,0.000676334399363,0.925761696999,0.0,0.0,0.0,0.0,0.0,0.0,0.0,0.0,0.0,-0.00236024999983,-0.00350087316042,0.00194434773709,0.0,0.0,0.0,0.0,0.0,0.0,0.0,0.0,0.0,6.70501474645,0.00776158299925,6.97744697453,0.0,0.0,0.0,0.0,0.0,0.0,0.0,0.0,0.0
25412000000,76,25412000000,imu_link,0.000777229185391,-0.378112703616,0.000678054404317,0.925758996457,0.0,0.0,0.0,0.0,0.0,0.0,0.0,0.0,0.0,-0.00274171912069,-0.00357309652104,0.00205178498096,0.0,0.0,0.0,0.0,0.0,0.0,0.0,0.0,0.0,6.70435685883,0.00773605916499,6.97412105949,0.0,0.0,0.0,0.0,0.0,0.0,0.0,0.0,0.0
25416000000,77,25416000000,imu_link,0.000769613658776,-0.378119508283,0.000679637392408,0.925756222363,0.0,0.0,0.0,0.0,0.0,0.0,0.0,0.0,0.0,-0.00322702609891,-0.00367100407877,0.00217608129845,0.0,0.0,0.0,0.0,0.0,0.0,0.0,0.0,0.0,6.70422754406,0.00768235590331,6.97304033624,0.0,0.0,0.0,0.0,0.0,0.0,0.0,0.0,0.0
25420000000,78,25420000000,imu_link,0.000761017504483,-0.378126575522,0.000681061202464,0.92575334182,0.0,0.0,0.0,0.0,0.0,0.0,0.0,0.0,0.0,-0.00371107961146,-0.00381239606975,0.00228793571092,0.0,0.0,0.0,0.0,0.0,0.0,0.0,0.0,0.0,6.70465060766,0.00756401365667,6.9732853353,0.0,0.0,0.0,0.0,0.0,0.0,0.0,0.0,0.0
25424000000,79,25424000000,imu_link,0.000751797718784,-0.378133984999,0.000682362753809,0.925750321939,0.0,0.0,0.0,0.0,0.0,0.0,0.0,0.0,0.0,-0.00402292219684,-0.00399698778177,0.00234942848349,0.0,0.0,0.0,0.0,0.0,0.0,0.0,0.0,0.0,6.70561247213,0.00739172656943,6.97451763818,0.0,0.0,0.0,0.0,0.0,0.0,0.0,0.0,0.0
25428000000,80,25428000000,imu_link,0.000742414053754,-0.378141818079,0.000683565592835,0.925747129069,0.0,0.0,0.0,0.0,0.0,0.0,0.0,0.0,0.0,-0.00411752060926,-0.00422575051831,0.0023349394269,0.0,0.0,0.0,0.0,0.0,0.0,0.0,0.0,0.0,6.70629246211,0.00725248783654,6.97527337462,0.0,0.0,0.0,0.0,0.0,0.0,0.0,0.0,0.0
25432000000,81,25432000000,imu_link,0.000733153017557,-0.378150019143,0.000684665426439,0.925743785689,0.0,0.0,0.0,0.0,0.0,0.0,0.0,0.0,0.0,-0.00408030419314,-0.00442461836732,0.00226426343623,0.0,0.0,0.0,0.0,0.0,0.0,0.0,0.0,0.0,6.70651273335,0.00721547663368,6.97392848517,0.0,0.0,0.0,0.0,0.0,0.0,0.0,0.0,0.0
25436000000,82,25436000000,imu_link,0.000724176164578,-0.378158444839,0.000685642741141,0.925740350239,0.0,0.0,0.0,0.0,0.0,0.0,0.0,0.0,0.0,-0.0039719721798,-0.00454614410429,0.00215393479795,0.0,0.0,0.0,0.0,0.0,0.0,0.0,0.0,0.0,6.70685502346,0.00724595986546,6.97198524617,0.0,0.0,0.0,0.0,0.0,0.0,0.0,0.0,0.0
25440000000,83,25440000000,imu_link,0.000715516056949,-0.378166859674,0.000686501102816,0.925736918891,0.0,0.0,0.0,0.0,0.0,0.0,0.0,0.0,0.0,-0.00384784951252,-0.00454049348784,0.00203897968696,0.0,0.0,0.0,0.0,0.0,0.0,0.0,0.0,0.0,6.7071711822,0.00729073870819,6.96903727708,0.0,0.0,0.0,0.0,0.0,0.0,0.0,0.0,0.0
25444000000,84,25444000000,imu_link,0.000707272392483,-0.378174955529,0.00068726391209,0.925733617433,0.0,0.0,0.0,0.0,0.0,0.0,0.0,0.0,0.0,-0.00367309546125,-0.00436846398473,0.00191585028941,0.0,0.0,0.0,0.0,0.0,0.0,0.0,0.0,0.0,6.70781418466,0.00731007150606,6.96599944865,0.0,0.0,0.0,0.0,0.0,0.0,0.0,0.0,0.0
25448000000,85,25448000000,imu_link,0.000699812248368,-0.378182474989,0.000687979793121,0.925730550732,0.0,0.0,0.0,0.0,0.0,0.0,0.0,0.0,0.0,-0.00331918839091,-0.00405756672167,0.00174569037241,0.0,0.0,0.0,0.0,0.0,0.0,0.0,0.0,0.0,6.708982148,0.00729258090261,6.96425793968,0.0,0.0,0.0,0.0,0.0,0.0,0.0,0.0,0.0
25452000000,86,25452000000,imu_link,0.00069370160402,-0.378189327315,0.000688725331497,0.925727755412,0.0,0.0,0.0,0.0,0.0,0.0,0.0,0.0,0.0,-0.00268880933665,-0.00369791132378,0.00150391235993,0.0,0.0,0.0,0.0,0.0,0.0,0.0,0.0,0.0,6.71056566154,0.00733655000499,6.96508147579,0.0,0.0,0.0,0.0,0.0,0.0,0.0,0.0,0.0
25456000000,87,25456000000,imu_link,0.000689323495549,-0.378195662889,0.000689571908526,0.925725169743,0.0,0.0,0.0,0.0,0.0,0.0,0.0,0.0,0.0,-0.00186766995881,-0.00341964301173,0.00122281478197,0.0,0.0,0.0,0.0,0.0,0.0,0.0,0.0,0.0,6.71193158457,0.00751672490215,6.9681989842,0.0,0.0,0.0,0.0,0.0,0.0,0.0,0.0,0.0
25460000000,88,25460000000,imu_link,0.000686668910497,-0.378201998404,0.000690559813535,0.925722582644,0.0,0.0,0.0,0.0,0.0,0.0,0.0,0.0,0.0,-0.00104319012672,-0.00342043197672,0.00096231614793,0.0,0.0,0.0,0.0,0.0,0.0,0.0,0.0,0.0,6.71285133713,0.00782375198052,6.97346832163,0.0,0.0,0.0,0.0,0.0,0.0,0.0,0.0,0.0
25464000000,89,25464000000,imu_link,0.000685442163475,-0.378208814141,0.000691689207343,0.925719798125,0.0,0.0,0.0,0.0,0.0,0.0,0.0,0.0,0.0,-0.000355641529258,-0.00368048494793,0.000758033279754,0.0,0.0,0.0,0.0,0.0,0.0,0.0,0.0,0.0,6.71477712503,0.00813881449666,6.98011665068,0.0,0.0,0.0,0.0,0.0,0.0,0.0,0.0,0.0
25468000000,90,25468000000,imu_link,0.000685269686576,-0.378216481134,0.000692902580408,0.925716664909,0.0,0.0,0.0,0.0,0.0,0.0,0.0,0.0,0.0,0.00014804378546,-0.00414077332907,0.000597949122482,0.0,0.0,0.0,0.0,0.0,0.0,0.0,0.0,0.0,6.71603986573,0.00841057299899,6.98441904113,0.0,0.0,0.0,0.0,0.0,0.0,0.0,0.0,0.0
25472000000,91,25472000000,imu_link,0.000686072302394,-0.378225147822,0.000694183583014,0.925713122392,0.0,0.0,0.0,0.0,0.0,0.0,0.0,0.0,0.0,0.000611956772298,-0.00468120676419,0.000445338283472,0.0,0.0,0.0,0.0,0.0,0.0,0.0,0.0,0.0,6.71623264205,0.00856496249125,6.98459120749,0.0,0.0,0.0,0.0,0.0,0.0,0.0,0.0,0.0
25476000000,92,25476000000,imu_link,0.000687790248809,-0.378234679267,0.000695526901401,0.925709225722,0.0,0.0,0.0,0.0,0.0,0.0,0.0,0.0,0.0,0.00104722958028,-0.0051487365755,0.000301500593359,0.0,0.0,0.0,0.0,0.0,0.0,0.0,0.0,0.0,6.7166119782,0.00870262386774,6.98249038188,0.0,0.0,0.0,0.0,0.0,0.0,0.0,0.0,0.0
25480000000,93,25480000000,imu_link,0.000690264737021,-0.378244804863,0.0006968928647,0.92570508558,0.0,0.0,0.0,0.0,0.0,0.0,0.0,0.0,0.0,0.00140155809114,-0.00547004234569,0.000169195719194,0.0,0.0,0.0,0.0,0.0,0.0,0.0,0.0,0.0,6.71680962718,0.00884076252862,6.97891419767,0.0,0.0,0.0,0.0,0.0,0.0,0.0,0.0,0.0
25484000000,94,25484000000,imu_link,0.000693196999786,-0.378255278948,0.000698247016554,0.925700802569,0.0,0.0,0.0,0.0,0.0,0.0,0.0,0.0,0.0,0.0016111342768,-0.00565852480728,7.73233963068e-05,0.0,0.0,0.0,0.0,0.0,0.0,0.0,0.0,0.0,6.7172392954,0.00894822681248,6.97626856476,0.0,0.0,0.0,0.0,0.0,0.0,0.0,0.0,0.0
25488000000,95,25488000000,imu_link,0.00069618036273,-0.378266106906,0.000699554677956,0.925696374802,0.0,0.0,0.0,0.0,0.0,0.0,0.0,0.0,0.0,0.00162592001279,-0.00584972606795,4.63140051854e-05,0.0,0.0,0.0,0.0,0.0,0.0,0.0,0.0,0.0,6.71824924895,0.00900604968021,6.97709035485,0.0,0.0,0.0,0.0,0.0,0.0,0.0,0.0,0.0
25492000000,96,25492000000,imu_link,0.000698897503946,-0.378277292202,0.000700787840102,0.92569180111,0.0,0.0,0.0,0.0,0.0,0.0,0.0,0.0,0.0,0.00148853530318,-0.00604265127631,6.23589143799e-05,0.0,0.0,0.0,0.0,0.0,0.0,0.0,0.0,0.0,6.71891944396,0.0089946561453,6.97723727775,0.0,0.0,0.0,0.0,0.0,0.0,0.0,0.0,0.0
25496000000,97,25496000000,imu_link,0.000701084097302,-0.378288880153,0.000701923365316,0.925687063179,0.0,0.0,0.0,0.0,0.0,0.0,0.0,0.0,0.0,0.00122442278935,-0.00625993082125,0.000117713420444,0.0,0.0,0.0,0.0,0.0,0.0,0.0,0.0,0.0,6.71886764683,0.00893066930941,6.97643341244,0.0,0.0,0.0,0.0,0.0,0.0,0.0,0.0,0.0
25500000000,98,25500000000,imu_link,0.000702597599019,-0.378300872847,0.000702945972417,0.925682160262,0.0,0.0,0.0,0.0,0.0,0.0,0.0,0.0,0.0,0.000891444629868,-0.00647827342806,0.0001929613273,0.0,0.0,0.0,0.0,0.0,0.0,0.0,0.0,0.0,6.71932871134,0.00885157406814,6.97638723513,0.0,0.0,0.0,0.0,0.0,0.0,0.0,0.0,0.0
25504000000,99,25504000000,imu_link,0.000703574755241,-0.37831334319,0.000703866146972,0.925677062436,0.0,0.0,0.0,0.0,0.0,0.0,0.0,0.0,0.0,0.000623727331593,-0.00673606312362,0.000247237623708,0.0,0.0,0.0,0.0,0.0,0.0,0.0,0.0,0.0,6.7205289648,0.00873289695424,6.97828520534,0.0,0.0,0.0,0.0,0.0,0.0,0.0,0.0,0.0
25508000000,100,25508000000,imu_link,0.00070421401625,-0.378326273423,0.00070471718749,0.925671776762,0.0,0.0,0.0,0.0,0.0,0.0,0.0,0.0,0.0,0.00045416347523,-0.00698435568122,0.000279382754183,0.0,0.0,0.0,0.0,0.0,0.0,0.0,0.0,0.0,6.72108077192,0.00860513578918,6.97805125021,0.0,0.0,0.0,0.0,0.0,0.0,0.0,0.0,0.0
25512000000,101,25512000000,imu_link,0.000704646168836,-0.378339534617,0.000705537966832,0.925666355787,0.0,0.0,0.0,0.0,0.0,0.0,0.0,0.0,0.0,0.000352512988618,-0.00716306843764,0.000304718284231,0.0,0.0,0.0,0.0,0.0,0.0,0.0,0.0,0.0,6.72132159064,0.00851644385622,6.97592187314,0.0,0.0,0.0,0.0,0.0,0.0,0.0,0.0,0.0
25516000000,102,25516000000,imu_link,0.000705066137852,-0.378352908582,0.000706340830492,0.925660888518,0.0,0.0,0.0,0.0,0.0,0.0,0.0,0.0,0.0,0.000343461451077,-0.00722402223945,0.00029878713761,0.0,0.0,0.0,0.0,0.0,0.0,0.0,0.0,0.0,6.72168045945,0.00843297437734,6.97338366912,0.0,0.0,0.0,0.0,0.0,0.0,0.0,0.0,0.0
25520000000,103,25520000000,imu_link,0.000705730855556,-0.378366072217,0.000707115449616,0.925655506831,0.0,0.0,0.0,0.0,0.0,0.0,0.0,0.0,0.0,0.000451439505572,-0.00711058100484,0.000239309644375,0.0,0.0,0.0,0.0,0.0,0.0,0.0,0.0,0.0,6.72287018778,0.0083837397278,6.9714207413,0.0,0.0,0.0,0.0,0.0,0.0,0.0,0.0,0.0
25524000000,104,25524000000,imu_link,0.000706801121892,-0.378378837046,0.00070783725561,0.925650287676,0.0,0.0,0.0,0.0,0.0,0.0,0.0,0.0,0.0,0.000629230969052,-0.00689541654647,0.000137945151175,0.0,0.0,0.0,0.0,0.0,0.0,0.0,0.0,0.0,6.72397205205,0.00839098441509,6.97064121383,0.0,0.0,0.0,0.0,0.0,0.0,0.0,0.0,0.0
25528000000,105,25528000000,imu_link,0.000708207878318,-0.378391123543,0.000708483284507,0.92564526365,0.0,0.0,0.0,0.0,0.0,0.0,0.0,0.0,0.0,0.000770731150239,-0.00663726176901,3.89751378121e-05,0.0,0.0,0.0,0.0,0.0,0.0,0.0,0.0,0.0,6.72372960981,0.00846113533814,6.96835674066,0.0,0.0,0.0,0.0,0.0,0.0,0.0,0.0,0.0
25532000000,106,25532000000,imu_link,0.000709805881566,-0.378402946108,0.000709052523487,0.925640428999,0.0,0.0,0.0,0.0,0.0,0.0,0.0,0.0,0.0,0.00084481348168,-0.00638680967653,-3.2979387688e-05,0.0,0.0,0.0,0.0,0.0,0.0,0.0,0.0,0.0,6.72356619869,0.00849462082758,6.96734754466,0.0,0.0,0.0,0.0,0.0,0.0,0.0,0.0,0.0
25536000000,107,25536000000,imu_link,0.000711612089809,-0.378414319189,0.000709589602,0.925635777789,0.0,0.0,0.0,0.0,0.0,0.0,0.0,0.0,0.0,0.000935184404287,-0.00614415728338,-8.74811514442e-05,0.0,0.0,0.0,0.0,0.0,0.0,0.0,0.0,0.0,6.72455315373,0.00844295693561,6.96823232468,0.0,0.0,0.0,0.0,0.0,0.0,0.0,0.0,0.0
25540000000,108,25540000000,imu_link,0.000713869502659,-0.378425179441,0.000710147665685,0.925631335709,0.0,0.0,0.0,0.0,0.0,0.0,0.0,0.0,0.0,0.00114808805251,-0.00586739496393,-0.000163396646673,0.0,0.0,0.0,0.0,0.0,0.0,0.0,0.0,0.0,6.72510446157,0.00836015133081,6.96749216458,0.0,0.0,0.0,0.0,0.0,0.0,0.0,0.0,0.0
25544000000,109,25544000000,imu_link,0.000716720807564,-0.378435254618,0.000710792015368,0.925627213919,0.0,0.0,0.0,0.0,0.0,0.0,0.0,0.0,0.0,0.00143944143409,-0.00544362644781,-0.000236227936074,0.0,0.0,0.0,0.0,0.0,0.0,0.0,0.0,0.0,6.72696570139,0.0083795858686,6.96731249955,0.0,0.0,0.0,0.0,0.0,0.0,0.0,0.0,0.0
25548000000,110,25548000000,imu_link,0.000720214461528,-0.37844440548,0.000711619742428,0.925623469262,0.0,0.0,0.0,0.0,0.0,0.0,0.0,0.0,0.0,0.00177162090028,-0.0049446435018,-0.000273367424587,0.0,0.0,0.0,0.0,0.0,0.0,0.0,0.0,0.0,6.72842639339,0.00846527498923,6.9679925782,0.0,0.0,0.0,0.0,0.0,0.0,0.0,0.0,0.0
25552000000,111,25552000000,imu_link,0.000724156781168,-0.378452730533,0.000712677200094,0.925620061602,0.0,0.0,0.0,0.0,0.0,0.0,0.0,0.0,0.0,0.00202291124705,-0.00449875927273,-0.000252360198382,0.0,0.0,0.0,0.0,0.0,0.0,0.0,0.0,0.0,6.72946821697,0.00857527555396,6.97026761393,0.0,0.0,0.0,0.0,0.0,0.0,0.0,0.0,0.0
25556000000,112,25556000000,imu_link,0.000727949252357,-0.378460473006,0.000713871638292,0.92561689205,0.0,0.0,0.0,0.0,0.0,0.0,0.0,0.0,0.0,0.00197960159032,-0.00418397598394,-0.000160904743449,0.0,0.0,0.0,0.0,0.0,0.0,0.0,0.0,0.0,6.7304772394,0.00871455928447,6.97354883099,0.0,0.0,0.0,0.0,0.0,0.0,0.0,0.0,0.0
25560000000,113,25560000000,imu_link,0.000731045285346,-0.378467958238,0.000715104279911,0.925613828109,0.0,0.0,0.0,0.0,0.0,0.0,0.0,0.0,0.0,0.00166456673164,-0.00404467537923,-1.15680375813e-05,0.0,0.0,0.0,0.0,0.0,0.0,0.0,0.0,0.0,6.73132836603,0.00875800345773,6.97722588703,0.0,0.0,0.0,0.0,0.0,0.0,0.0,0.0,0.0
25564000000,114,25564000000,imu_link,0.000733262934193,-0.378475502744,0.000716318668055,0.925610740558,0.0,0.0,0.0,0.0,0.0,0.0,0.0,0.0,0.0,0.00125457773537,-0.00407626816661,0.000146234362287,0.0,0.0,0.0,0.0,0.0,0.0,0.0,0.0,0.0,6.73184612401,0.00866653940788,6.97989434826,0.0,0.0,0.0,0.0,0.0,0.0,0.0,0.0,0.0
25568000000,115,25568000000,imu_link,0.000735025432402,-0.378483546996,0.000717618126754,0.925607448876,0.0,0.0,0.0,0.0,0.0,0.0,0.0,0.0,0.0,0.00105992598881,-0.00434598818027,0.000271993488426,0.0,0.0,0.0,0.0,0.0,0.0,0.0,0.0,0.0,6.73251379798,0.00845120829083,6.98387542529,0.0,0.0,0.0,0.0,0.0,0.0,0.0,0.0,0.0
25572000000,116,25572000000,imu_link,0.000736894494408,-0.37849232526,0.000719094076167,0.925603856739,0.0,0.0,0.0,0.0,0.0,0.0,0.0,0.0,0.0,0.00114249057758,-0.00474252371481,0.000333885291821,0.0,0.0,0.0,0.0,0.0,0.0,0.0,0.0,0.0,6.73333576768,0.00827205161439,6.98626429677,0.0,0.0,0.0,0.0,0.0,0.0,0.0,0.0,0.0
25576000000,117,25576000000,imu_link,0.0007390803352,-0.378501819865,0.000720740283983,0.925599971182,0.0,0.0,0.0,0.0,0.0,0.0,0.0,0.0,0.0,0.00132116771127,-0.00512962760431,0.000353101471359,0.0,0.0,0.0,0.0,0.0,0.0,0.0,0.0,0.0,6.73306258039,0.00818769779218,6.98453880792,0.0,0.0,0.0,0.0,0.0,0.0,0.0,0.0,0.0
25580000000,118,25580000000,imu_link,0.000741445989555,-0.378511803238,0.000722514064324,0.925595885384,0.0,0.0,0.0,0.0,0.0,0.0,0.0,0.0,0.0,0.00142842650185,-0.00539374317793,0.000378364933894,0.0,0.0,0.0,0.0,0.0,0.0,0.0,0.0,0.0,6.7331754318,0.00815047089613,6.98133934845,0.0,0.0,0.0,0.0,0.0,0.0,0.0,0.0,0.0
25584000000,119,25584000000,imu_link,0.000743726051132,-0.378522097287,0.000724380936771,0.925591672396,0.0,0.0,0.0,0.0,0.0,0.0,0.0,0.0,0.0,0.00140636748944,-0.00556152895734,0.000437807830416,0.0,0.0,0.0,0.0,0.0,0.0,0.0,0.0,0.0,6.73342886778,0.0081373015931,6.9789038304,0.0,0.0,0.0,0.0,0.0,0.0,0.0,0.0,0.0
25588000000,120,25588000000,imu_link,0.000745699006617,-0.378532723964,0.00072633152199,0.925587323414,0.0,0.0,0.0,0.0,0.0,0.0,0.0,0.0,0.0,0.00128001373231,-0.00574106389111,0.00053484592159,0.0,0.0,0.0,0.0,0.0,0.0,0.0,0.0,0.0,6.73212537845,0.00811315687696,6.97556196142,0.0,0.0,0.0,0.0,0.0,0.0,0.0,0.0,0.0
25592000000,121,25592000000,imu_link,0.00074740037303,-0.378543933532,0.000728408561549,0.92558273601,0.0,0.0,0.0,0.0,0.0,0.0,0.0,0.0,0.0,0.00117813479289,-0.00605580178367,0.000645074781655,0.0,0.0,0.0,0.0,0.0,0.0,0.0,0.0,0.0,6.73214069072,0.00803668570025,6.97681790764,0.0,0.0,0.0,0.0,0.0,0.0,0.0,0.0,0.0
25596000000,122,25596000000,imu_link,0.000749049575666,-0.378555915686,0.000730645901145,0.925577832373,0.0,0.0,0.0,0.0,0.0,0.0,0.0,0.0,0.0,0.00118417094816,-0.00647312336057,0.000729537284879,0.0,0.0,0.0,0.0,0.0,0.0,0.0,0.0,0.0,6.73215382573,0.00793792543223,6.9774373752,0.0,0.0,0.0,0.0,0.0,0.0,0.0,0.0,0.0
25600000000,123,25600000000,imu_link,0.000751028523669,-0.378568498148,0.000733074280896,0.925572682596,0.0,0.0,0.0,0.0,0.0,0.0,0.0,0.0,0.0,0.00137280601858,-0.00679757639321,0.000755849771733,0.0,0.0,0.0,0.0,0.0,0.0,0.0,0.0,0.0,6.7322275746,0.00783510078909,6.97488270035,0.0,0.0,0.0,0.0,0.0,0.0,0.0,0.0,0.0
25604000000,124,25604000000,imu_link,0.000753769825368,-0.378581194528,0.000735704636564,0.925567485232,0.0,0.0,0.0,0.0,0.0,0.0,0.0,0.0,0.0,0.00176381987068,-0.00685950755985,0.000705080141444,0.0,0.0,0.0,0.0,0.0,0.0,0.0,0.0,0.0,6.73334207828,0.00777563132685,6.97148519542,0.0,0.0,0.0,0.0,0.0,0.0,0.0,0.0,0.0
25608000000,125,25608000000,imu_link,0.00075741676651,-0.378593775658,0.000738528483833,0.925562333897,0.0,0.0,0.0,0.0,0.0,0.0,0.0,0.0,0.0,0.00221958627016,-0.00679771892199,0.000623135509095,0.0,0.0,0.0,0.0,0.0,0.0,0.0,0.0,0.0,6.73237462796,0.00780690780817,6.96653074216,0.0,0.0,0.0,0.0,0.0,0.0,0.0,0.0,0.0
25612000000,126,25612000000,imu_link,0.00076192588466,-0.378606205144,0.000741539540935,0.92555724351,0.0,0.0,0.0,0.0,0.0,0.0,0.0,0.0,0.0,0.00265405670531,-0.00671625121452,0.000546485335211,0.0,0.0,0.0,0.0,0.0,0.0,0.0,0.0,0.0,6.73179884572,0.00789740712366,6.96402329558,0.0,0.0,0.0,0.0,0.0,0.0,0.0,0.0,0.0
25616000000,127,25616000000,imu_link,0.000767218350417,-0.378618461162,0.00074473365647,0.925552223062,0.0,0.0,0.0,0.0,0.0,0.0,0.0,0.0,0.0,0.00305126443373,-0.00662295481483,0.000482818716435,0.0,0.0,0.0,0.0,0.0,0.0,0.0,0.0,0.0,6.73194727305,0.00799034462485,6.96306552712,0.0,0.0,0.0,0.0,0.0,0.0,0.0,0.0,0.0
25620000000,128,25620000000,imu_link,0.000773276507909,-0.378630362249,0.000748100386808,0.925547346802,0.0,0.0,0.0,0.0,0.0,0.0,0.0,0.0,0.0,0.00343836270547,-0.00643162449216,0.000417558364762,0.0,0.0,0.0,0.0,0.0,0.0,0.0,0.0,0.0,6.73120745502,0.00802247277696,6.95898439568,0.0,0.0,0.0,0.0,0.0,0.0,0.0,0.0,0.0
25624000000,129,25624000000,imu_link,0.000779837970898,-0.378641539844,0.000751611118312,0.925542765753,0.0,0.0,0.0,0.0,0.0,0.0,0.0,0.0,0.0,0.00369869732843,-0.00604105559014,0.00038852478795,0.0,0.0,0.0,0.0,0.0,0.0,0.0,0.0,0.0,6.73214789148,0.00805799070897,6.9563877708,0.0,0.0,0.0,0.0,0.0,0.0,0.0,0.0,0.0
25628000000,130,25628000000,imu_link,0.000786318972735,-0.378651784704,0.000755180743159,0.925538566103,0.0,0.0,0.0,0.0,0.0,0.0,0.0,0.0,0.0,0.00367281375516,-0.00553715268479,0.000430504886527,0.0,0.0,0.0,0.0,0.0,0.0,0.0,0.0,0.0,6.73441964187,0.0081003431901,6.95780306955,0.0,0.0,0.0,0.0,0.0,0.0,0.0,0.0,0.0
25632000000,131,25632000000,imu_link,0.000792280799247,-0.378661139029,0.000758718554247,0.925534731075,0.0,0.0,0.0,0.0,0.0,0.0,0.0,0.0,0.0,0.00342672509667,-0.00505582432139,0.000513587987211,0.0,0.0,0.0,0.0,0.0,0.0,0.0,0.0,0.0,6.7357568866,0.00803774067764,6.95998019056,0.0,0.0,0.0,0.0,0.0,0.0,0.0,0.0,0.0
25636000000,132,25636000000,imu_link,0.000797574051369,-0.378669843134,0.000762188474507,0.925531162547,0.0,0.0,0.0,0.0,0.0,0.0,0.0,0.0,0.0,0.00310461797442,-0.00470424066524,0.000608393220505,0.0,0.0,0.0,0.0,0.0,0.0,0.0,0.0,0.0,6.73537933289,0.00791828218718,6.96078026366,0.0,0.0,0.0,0.0,0.0,0.0,0.0,0.0,0.0
25640000000,133,25640000000,imu_link,0.000801999163562,-0.378678102576,0.000765565217763,0.925527776642,0.0,0.0,0.0,0.0,0.0,0.0,0.0,0.0,0.0,0.00268532766455,-0.00446359563716,0.000729396393277,0.0,0.0,0.0,0.0,0.0,0.0,0.0,0.0,0.0,6.73531242973,0.00780057254224,6.96202357659,0.0,0.0,0.0,0.0,0.0,0.0,0.0,0.0,0.0
25644000000,134,25644000000,imu_link,0.000805253214975,-0.378686228162,0.000768794980302,0.925524446529,0.0,0.0,0.0,0.0,0.0,0.0,0.0,0.0,0.0,0.00211560270111,-0.00439069869016,0.000883031529452,0.0,0.0,0.0,0.0,0.0,0.0,0.0,0.0,0.0,6.73520024139,0.00767153556656,6.96362482552,0.0,0.0,0.0,0.0,0.0,0.0,0.0,0.0,0.0
25648000000,135,25648000000,imu_link,0.000807102331592,-0.378694463374,0.000771837116173,0.925521072836,0.0,0.0,0.0,0.0,0.0,0.0,0.0,0.0,0.0,0.00142990153966,-0.00444921656696,0.00106228061529,0.0,0.0,0.0,0.0,0.0,0.0,0.0,0.0,0.0,6.73494303687,0.00749836225075,6.96432507366,0.0,0.0,0.0,0.0,0.0,0.0,0.0,0.0,0.0
25652000000,136,25652000000,imu_link,0.000807473096584,-0.378702823372,0.000774693547501,0.92551764943,0.0,0.0,0.0,0.0,0.0,0.0,0.0,0.0,0.0,0.000710588011623,-0.00451587996021,0.00125633521156,0.0,0.0,0.0,0.0,0.0,0.0,0.0,0.0,0.0,6.73479633244,0.00727349317838,6.96307829058,0.0,0.0,0.0,0.0,0.0,0.0,0.0,0.0,0.0
25656000000,137,25656000000,imu_link,0.000806458409677,-0.378711328427,0.000777411716276,0.925514167897,0.0,0.0,0.0,0.0,0.0,0.0,0.0,0.0,0.0,4.32449917893e-05,-0.00459353175318,0.00145477134821,0.0,0.0,0.0,0.0,0.0,0.0,0.0,0.0,0.0,6.73563808005,0.00702567283983,6.96342454868,0.0,0.0,0.0,0.0,0.0,0.0,0.0,0.0,0.0
25660000000,138,25660000000,imu_link,0.000804168533918,-0.378720159351,0.000780052567165,0.92551055409,0.0,0.0,0.0,0.0,0.0,0.0,0.0,0.0,0.0,-0.00056157159463,-0.00476891254327,0.00166063899604,0.0,0.0,0.0,0.0,0.0,0.0,0.0,0.0,0.0,6.73625345772,0.00678530411125,6.96493681331,0.0,0.0,0.0,0.0,0.0,0.0,0.0,0.0,0.0
25664000000,139,25664000000,imu_link,0.000800783171206,-0.378729582359,0.000782640284941,0.925506698877,0.0,0.0,0.0,0.0,0.0,0.0,0.0,0.0,0.0,-0.00107870911616,-0.00508820926856,0.00184382508709,0.0,0.0,0.0,0.0,0.0,0.0,0.0,0.0,0.0,6.73636688636,0.00655639993293,6.96634276645,0.0,0.0,0.0,0.0,0.0,0.0,0.0,0.0,0.0
25668000000,140,25668000000,imu_link,0.000796875412305,-0.378739736868,0.000785238676155,0.925502544625,0.0,0.0,0.0,0.0,0.0,0.0,0.0,0.0,0.0,-0.00131859504687,-0.00548313275041,0.0019480976088,0.0,0.0,0.0,0.0,0.0,0.0,0.0,0.0,0.0,6.73869698337,0.00625779683323,6.97102685098,0.0,0.0,0.0,0.0,0.0,0.0,0.0,0.0,0.0
25672000000,141,25672000000,imu_link,0.000792940018946,-0.378750546621,0.000787882645145,0.925498122052,0.0,0.0,0.0,0.0,0.0,0.0,0.0,0.0,0.0,-0.00132290222231,-0.00583713054746,0.00197478833782,0.0,0.0,0.0,0.0,0.0,0.0,0.0,0.0,0.0,6.73920604453,0.00601030833128,6.9700851184,0.0,0.0,0.0,0.0,0.0,0.0,0.0,0.0,0.0
25676000000,142,25676000000,imu_link,0.000789128191312,-0.378761631462,0.000790583200543,0.925493586573,0.0,0.0,0.0,0.0,0.0,0.0,0.0,0.0,0.0,-0.00125506983752,-0.00598583497117,0.00197772689397,0.0,0.0,0.0,0.0,0.0,0.0,0.0,0.0,0.0,6.73958785997,0.00590965431859,6.96585134245,0.0,0.0,0.0,0.0,0.0,0.0,0.0,0.0,0.0
25680000000,143,25680000000,imu_link,0.000785105814273,-0.378772657123,0.000793318174941,0.925489075284,0.0,0.0,0.0,0.0,0.0,0.0,0.0,0.0,0.0,-0.00134596875262,-0.00595377161898,0.00203349528213,0.0,0.0,0.0,0.0,0.0,0.0,0.0,0.0,0.0,6.7400740983,0.00597058823926,6.96270510985,0.0,0.0,0.0,0.0,0.0,0.0,0.0,0.0,0.0
25684000000,144,25684000000,imu_link,0.000780365711665,-0.37878345137,0.000796050326663,0.925484659139,0.0,0.0,0.0,0.0,0.0,0.0,0.0,0.0,0.0,-0.00167857247134,-0.00582838335424,0.00216798793198,0.0,0.0,0.0,0.0,0.0,0.0,0.0,0.0,0.0,6.74051281862,0.00605086423522,6.96126930857,0.0,0.0,0.0,0.0,0.0,0.0,0.0,0.0,0.0
25688000000,145,25688000000,imu_link,0.000774702115751,-0.378793887881,0.000798749523828,0.925480390035,0.0,0.0,0.0,0.0,0.0,0.0,0.0,0.0,0.0,-0.00211206822133,-0.00563464103748,0.00232744234665,0.0,0.0,0.0,0.0,0.0,0.0,0.0,0.0,0.0,6.74021235141,0.00599127559016,6.95870496122,0.0,0.0,0.0,0.0,0.0,0.0,0.0,0.0,0.0
25692000000,146,25692000000,imu_link,0.000768326308421,-0.37880396906,0.000801404535982,0.925476266822,0.0,0.0,0.0,0.0,0.0,0.0,0.0,0.0,0.0,-0.00244992017649,-0.00544231586493,0.00244169092858,0.0,0.0,0.0,0.0,0.0,0.0,0.0,0.0,0.0,6.73995842253,0.0058262151844,6.95753388779,0.0,0.0,0.0,0.0,0.0,0.0,0.0,0.0,0.0
25696000000,147,25696000000,imu_link,0.000761728024282,-0.378813690728,0.000804051190845,0.925472290773,0.0,0.0,0.0,0.0,0.0,0.0,0.0,0.0,0.0,-0.00255436404597,-0.00524799729241,0.00247976415957,0.0,0.0,0.0,0.0,0.0,0.0,0.0,0.0,0.0,6.7405794826,0.00564463729622,6.95791772658,0.0,0.0,0.0,0.0,0.0,0.0,0.0,0.0,0.0
25700000000,148,25700000000,imu_link,0.000755361657965,-0.378823181069,0.000806743965473,0.925468409011,0.0,0.0,0.0,0.0,0.0,0.0,0.0,0.0,0.0,-0.00243825479887,-0.00512317143393,0.00245705261015,0.0,0.0,0.0,0.0,0.0,0.0,0.0,0.0,0.0,6.74136881187,0.00554272577788,6.95958168017,0.0,0.0,0.0,0.0,0.0,0.0,0.0,0.0,0.0
25704000000,149,25704000000,imu_link,0.000749521692694,-0.378832652802,0.000809508367864,0.925464534212,0.0,0.0,0.0,0.0,0.0,0.0,0.0,0.0,0.0,-0.00218109902514,-0.00511342692955,0.00239048092951,0.0,0.0,0.0,0.0,0.0,0.0,0.0,0.0,0.0,6.74177158154,0.00553036008788,6.96131045394,0.0,0.0,0.0,0.0,0.0,0.0,0.0,0.0,0.0
25708000000,150,25708000000,imu_link,0.000744336877741,-0.378842421646,0.000812325567159,0.925460537058,0.0,0.0,0.0,0.0,0.0,0.0,0.0,0.0,0.0,-0.00186801363994,-0.00527433101829,0.00229097646333,0.0,0.0,0.0,0.0,0.0,0.0,0.0,0.0,0.0,6.74238414452,0.00558688480708,6.96415493907,0.0,0.0,0.0,0.0,0.0,0.0,0.0,0.0,0.0
25712000000,151,25712000000,imu_link,0.000739617402593,-0.378852704263,0.000815129024689,0.925456329063,0.0,0.0,0.0,0.0,0.0,0.0,0.0,0.0,0.0,-0.00165542001635,-0.00555220133978,0.00219674934891,0.0,0.0,0.0,0.0,0.0,0.0,0.0,0.0,0.0,6.74328814594,0.00568336657391,6.9664892903,0.0,0.0,0.0,0.0,0.0,0.0,0.0,0.0,0.0
25716000000,152,25716000000,imu_link,0.000734797174022,-0.378863569605,0.000817854651522,0.925451882495,0.0,0.0,0.0,0.0,0.0,0.0,0.0,0.0,0.0,-0.00171693391923,-0.00586702474912,0.0021801329783,0.0,0.0,0.0,0.0,0.0,0.0,0.0,0.0,0.0,6.7444957687,0.00578434855802,6.96822464873,0.0,0.0,0.0,0.0,0.0,0.0,0.0,0.0,0.0
25720000000,153,25720000000,imu_link,0.000729456622159,-0.378874816564,0.000820466065773,0.925447280023,0.0,0.0,0.0,0.0,0.0,0.0,0.0,0.0,0.0,-0.00197943527277,-0.00607297055975,0.00222605358154,0.0,0.0,0.0,0.0,0.0,0.0,0.0,0.0,0.0,6.74521369995,0.00578367641945,6.96645730684,0.0,0.0,0.0,0.0,0.0,0.0,0.0,0.0,0.0
25724000000,154,25724000000,imu_link,0.000723444408281,-0.37888627925,0.000822935077783,0.925442589685,0.0,0.0,0.0,0.0,0.0,0.0,0.0,0.0,0.0,-0.00231726192722,-0.00618921448382,0.00228751333789,0.0,0.0,0.0,0.0,0.0,0.0,0.0,0.0,0.0,6.74517795667,0.00573178983481,6.96377636699,0.0,0.0,0.0,0.0,0.0,0.0,0.0,0.0,0.0
25728000000,155,25728000000,imu_link,0.00071701393401,-0.378897707829,0.000825250575876,0.92543791356,0.0,0.0,0.0,0.0,0.0,0.0,0.0,0.0,0.0,-0.002539873184,-0.00617062281803,0.00229569755537,0.0,0.0,0.0,0.0,0.0,0.0,0.0,0.0,0.0,6.74580478979,0.0056337118531,6.96178261508,0.0,0.0,0.0,0.0,0.0,0.0,0.0,0.0,0.0
25732000000,156,25732000000,imu_link,0.000710609962703,-0.378908769547,0.000827419337069,0.925433387539,0.0,0.0,0.0,0.0,0.0,0.0,0.0,0.0,0.0,-0.00255531133479,-0.00597249624605,0.00222258519516,0.0,0.0,0.0,0.0,0.0,0.0,0.0,0.0,0.0,6.74695101847,0.00553503581875,6.96008778749,0.0,0.0,0.0,0.0,0.0,0.0,0.0,0.0,0.0
25736000000,157,25736000000,imu_link,0.000704583271561,-0.378919203485,0.000829448742204,0.925429118197,0.0,0.0,0.0,0.0,0.0,0.0,0.0,0.0,0.0,-0.0024069706013,-0.00563358848911,0.00208629619541,0.0,0.0,0.0,0.0,0.0,0.0,0.0,0.0,0.0,6.74755789012,0.00549365003278,6.95798691779,0.0,0.0,0.0,0.0,0.0,0.0,0.0,0.0,0.0
25740000000,158,25740000000,imu_link,0.000699092298158,-0.378928917148,0.000831365751096,0.925425143299,0.0,0.0,0.0,0.0,0.0,0.0,0.0,0.0,0.0,-0.00218018576546,-0.0052447836794,0.00193241608782,0.0,0.0,0.0,0.0,0.0,0.0,0.0,0.0,0.0,6.74718514859,0.00552850651441,6.95561147085,0.0,0.0,0.0,0.0,0.0,0.0,0.0,0.0,0.0
25744000000,159,25744000000,imu_link,0.000694122068987,-0.378937824261,0.0008331909171,0.925421498201,0.0,0.0,0.0,0.0,0.0,0.0,0.0,0.0,0.0,-0.00195641183706,-0.00480934546927,0.00179083768657,0.0,0.0,0.0,0.0,0.0,0.0,0.0,0.0,0.0,6.74693906913,0.00561189104378,6.95357551715,0.0,0.0,0.0,0.0,0.0,0.0,0.0,0.0,0.0
25748000000,160,25748000000,imu_link,0.000689574612588,-0.378945985779,0.00083497677597,0.925418158003,0.0,0.0,0.0,0.0,0.0,0.0,0.0,0.0,0.0,-0.0017680330187,-0.00440677156583,0.00169216176854,0.0,0.0,0.0,0.0,0.0,0.0,0.0,0.0,0.0,6.74757927251,0.00571467231368,6.95451237053,0.0,0.0,0.0,0.0,0.0,0.0,0.0,0.0,0.0
25752000000,161,25752000000,imu_link,0.000685303416837,-0.378953566768,0.000836741244744,0.925415055236,0.0,0.0,0.0,0.0,0.0,0.0,0.0,0.0,0.0,-0.00164409705278,-0.00409329119795,0.00162962116134,0.0,0.0,0.0,0.0,0.0,0.0,0.0,0.0,0.0,6.7477544036,0.00579941302862,6.95567010488,0.0,0.0,0.0,0.0,0.0,0.0,0.0,0.0,0.0
25756000000,162,25756000000,imu_link,0.000681023869337,-0.378960721914,0.000838440789634,0.925412126822,0.0,0.0,0.0,0.0,0.0,0.0,0.0,0.0,0.0,-0.00166014462132,-0.00386323389762,0.00160094399411,0.0,0.0,0.0,0.0,0.0,0.0,0.0,0.0,0.0,6.74802298583,0.0058854376938,6.95677264167,0.0,0.0,0.0,0.0,0.0,0.0,0.0,0.0,0.0
25760000000,163,25760000000,imu_link,0.000676438944681,-0.378967670864,0.000839965789563,0.925409283143,0.0,0.0,0.0,0.0,0.0,0.0,0.0,0.0,0.0,-0.0018344597364,-0.00375170114393,0.00157793822165,0.0,0.0,0.0,0.0,0.0,0.0,0.0,0.0,0.0,6.74977722365,0.00589904341496,6.96102228513,0.0,0.0,0.0,0.0,0.0,0.0,0.0,0.0,0.0
25764000000,164,25764000000,imu_link,0.000671332617887,-0.378974749206,0.000841202503384,0.92540638703,0.0,0.0,0.0,0.0,0.0,0.0,0.0,0.0,0.0,-0.00213037709116,-0.0038213854288,0.0015434099623,0.0,0.0,0.0,0.0,0.0,0.0,0.0,0.0,0.0,6.75170735233,0.00583703951066,6.96678672032,0.0,0.0,0.0,0.0,0.0,0.0,0.0,0.0,0.0
25768000000,165,25768000000,imu_link,0.000665589719621,-0.378982456494,0.000842060368925,0.925403234052,0.0,0.0,0.0,0.0,0.0,0.0,0.0,0.0,0.0,-0.00249688602566,-0.00416093262145,0.00148905706369,0.0,0.0,0.0,0.0,0.0,0.0,0.0,0.0,0.0,6.75262325753,0.00577449818781,6.97209672781,0.0,0.0,0.0,0.0,0.0,0.0,0.0,0.0,0.0
25772000000,166,25772000000,imu_link,0.000659496009886,-0.378990990244,0.000842556616012,0.925399743072,0.0,0.0,0.0,0.0,0.0,0.0,0.0,0.0,0.0,-0.00272796606436,-0.00460735976373,0.00138862866875,0.0,0.0,0.0,0.0,0.0,0.0,0.0,0.0,0.0,6.75370473585,0.00566937846672,6.97507218731,0.0,0.0,0.0,0.0,0.0,0.0,0.0,0.0,0.0
25776000000,167,25776000000,imu_link,0.000653211429471,-0.379000348431,0.000842722579664,0.925395914743,0.0,0.0,0.0,0.0,0.0,0.0,0.0,0.0,0.0,-0.00287910520368,-0.00505278049603,0.00127238967278,0.0,0.0,0.0,0.0,0.0,0.0,0.0,0.0,0.0,6.75455478008,0.00565427620439,6.97525405128,0.0,0.0,0.0,0.0,0.0,0.0,0.0,0.0,0.0
25780000000,168,25780000000,imu_link,0.000646654047448,-0.379010268725,0.000842561765122,0.925391856529,0.0,0.0,0.0,0.0,0.0,0.0,0.0,0.0,0.0,-0.00306741624339,-0.00535642142106,0.00117316647462,0.0,0.0,0.0,0.0,0.0,0.0,0.0,0.0,0.0,6.75445123478,0.00568654266005,6.9713814861,0.0,0.0,0.0,0.0,0.0,0.0,0.0,0.0,0.0
25784000000,169,25784000000,imu_link,0.000639731965563,-0.379020208791,0.000842077424999,0.925387790592,0.0,0.0,0.0,0.0,0.0,0.0,0.0,0.0,0.0,-0.00329747697642,-0.00536698445145,0.00109259464871,0.0,0.0,0.0,0.0,0.0,0.0,0.0,0.0,0.0,6.75613427017,0.00570544081621,6.96817663313,0.0,0.0,0.0,0.0,0.0,0.0,0.0,0.0,0.0
25788000000,170,25788000000,imu_link,0.000632433504731,-0.379029489012,0.000841275308528,0.925383995292,0.0,0.0,0.0,0.0,0.0,0.0,0.0,0.0,0.0,-0.00353165579368,-0.00501033301592,0.00101656407485,0.0,0.0,0.0,0.0,0.0,0.0,0.0,0.0,0.0,6.75803217155,0.0056922815659,6.96419983795,0.0,0.0,0.0,0.0,0.0,0.0,0.0,0.0,0.0
25792000000,171,25792000000,imu_link,0.000624849537532,-0.379037655106,0.000840193712255,0.925380656622,0.0,0.0,0.0,0.0,0.0,0.0,0.0,0.0,0.0,-0.00371639859744,-0.00440826535123,0.000940814292168,0.0,0.0,0.0,0.0,0.0,0.0,0.0,0.0,0.0,6.75812516898,0.00566974153919,6.95922116415,0.0,0.0,0.0,0.0,0.0,0.0,0.0,0.0,0.0
25796000000,172,25796000000,imu_link,0.000617040856847,-0.379044578379,0.000838862938724,0.925377827253,0.0,0.0,0.0,0.0,0.0,0.0,0.0,0.0,0.0,-0.00386723215013,-0.00373668564785,0.000867507577394,0.0,0.0,0.0,0.0,0.0,0.0,0.0,0.0,0.0,6.75721728471,0.00565463227947,6.9558121663,0.0,0.0,0.0,0.0,0.0,0.0,0.0,0.0,0.0
25800000000,173,25800000000,imu_link,0.000609080030336,-0.379050399976,0.000837320430899,0.925375449314,0.0,0.0,0.0,0.0,0.0,0.0,0.0,0.0,0.0,-0.00397743390257,-0.00314139782129,0.00079784625831,0.0,0.0,0.0,0.0,0.0,0.0,0.0,0.0,0.0,6.7565511473,0.00566387798903,6.95520444409,0.0,0.0,0.0,0.0,0.0,0.0,0.0,0.0,0.0
25804000000,174,25804000000,imu_link,0.000601335590823,-0.379055233752,0.000835640510921,0.925373475882,0.0,0.0,0.0,0.0,0.0,0.0,0.0,0.0,0.0,-0.00390306698752,-0.00260781312381,0.000692786371085,0.0,0.0,0.0,0.0,0.0,0.0,0.0,0.0,0.0,6.75693334892,0.00560724001259,6.95627153329,0.0,0.0,0.0,0.0,0.0,0.0,0.0,0.0,0.0
25808000000,175,25808000000,imu_link,0.000594160747599,-0.379059046837,0.000833896883483,0.925371920149,0.0,0.0,0.0,0.0,0.0,0.0,0.0,0.0,0.0,-0.00365129578515,-0.00205664450701,0.000554874134654,0.0,0.0,0.0,0.0,0.0,0.0,0.0,0.0,0.0,6.75747298452,0.00558025733558,6.95612336584,0.0,0.0,0.0,0.0,0.0,0.0,0.0,0.0,0.0
25812000000,176,25812000000,imu_link,0.000587598894485,-0.379061682149,0.000832127509288,0.925370846427,0.0,0.0,0.0,0.0,0.0,0.0,0.0,0.0,0.0,-0.00337220576378,-0.00142061367893,0.000426230881575,0.0,0.0,0.0,0.0,0.0,0.0,0.0,0.0,0.0,6.75731672157,0.00569649344743,6.95359351627,0.0,0.0,0.0,0.0,0.0,0.0,0.0,0.0,0.0
25816000000,177,25816000000,imu_link,0.000581472465297,-0.379063022977,0.000830363740764,0.925370302634,0.0,0.0,0.0,0.0,0.0,0.0,0.0,0.0,0.0,-0.00316929611728,-0.000721416218406,0.000345697477477,0.0,0.0,0.0,0.0,0.0,0.0,0.0,0.0,0.0,6.75671361147,0.00590264242824,6.95123174583,0.0,0.0,0.0,0.0,0.0,0.0,0.0,0.0,0.0
25820000000,178,25820000000,imu_link,0.00057578920904,-0.379063310838,0.00082861754797,0.925370189835,0.0,0.0,0.0,0.0,0.0,0.0,0.0,0.0,0.0,-0.00296060356081,-0.000152716370935,0.000269349195682,0.0,0.0,0.0,0.0,0.0,0.0,0.0,0.0,0.0,6.75670127803,0.00609725518983,6.95290829327,0.0,0.0,0.0,0.0,0.0,0.0,0.0,0.0,0.0
25824000000,179,25824000000,imu_link,0.000570467814804,-0.379063144129,0.000826867782531,0.925370262986,0.0,0.0,0.0,0.0,0.0,0.0,0.0,0.0,0.0,-0.0027937177283,9.26991968601e-05,0.000198903968478,0.0,0.0,0.0,0.0,0.0,0.0,0.0,0.0,0.0,6.75790151735,0.00626010754607,6.95984736949,0.0,0.0,0.0,0.0,0.0,0.0,0.0,0.0,0.0
25828000000,180,25828000000,imu_link,0.000565470332418,-0.379063129127,0.000825128958525,0.925370273751,0.0,0.0,0.0,0.0,0.0,0.0,0.0,0.0,0.0,-0.00264181971001,1.05519533623e-05,0.000142643949342,0.0,0.0,0.0,0.0,0.0,0.0,0.0,0.0,0.0,6.75855914374,0.00636981675533,6.96548392665,0.0,0.0,0.0,0.0,0.0,0.0,0.0,0.0,0.0
25832000000,181,25832000000,imu_link,0.000560305820717,-0.379063434703,0.000823360755047,0.925370153293,0.0,0.0,0.0,0.0,0.0,0.0,0.0,0.0,0.0,-0.0027247651874,-0.000162585704914,0.000160852608842,0.0,0.0,0.0,0.0,0.0,0.0,0.0,0.0,0.0,6.75957721878,0.0065375872174,6.9680488026,0.0,0.0,0.0,0.0,0.0,0.0,0.0,0.0,0.0
25836000000,182,25836000000,imu_link,0.000554350084937,-0.379064067522,0.000821515119766,0.925369899296,0.0,0.0,0.0,0.0,0.0,0.0,0.0,0.0,0.0,-0.00310562585112,-0.000339001373724,0.000275134780364,0.0,0.0,0.0,0.0,0.0,0.0,0.0,0.0,0.0,6.760952043,0.00665413804512,6.96962852845,0.0,0.0,0.0,0.0,0.0,0.0,0.0,0.0,0.0
25840000000,183,25840000000,imu_link,0.000547043263043,-0.379065087749,0.000819551996496,0.925369487463,0.0,0.0,0.0,0.0,0.0,0.0,0.0,0.0,0.0,-0.00375313618268,-0.000547641892483,0.000477021167788,0.0,0.0,0.0,0.0,0.0,0.0,0.0,0.0,0.0,6.76065667949,0.00665870616471,6.96865474892,0.0,0.0,0.0,0.0,0.0,0.0,0.0,0.0,0.0
25844000000,184,25844000000,imu_link,0.000538019762477,-0.379066776448,0.000817428261611,0.925368802877,0.0,0.0,0.0,0.0,0.0,0.0,0.0,0.0,0.0,-0.00457805766178,-0.000907970032515,0.000728369708504,0.0,0.0,0.0,0.0,0.0,0.0,0.0,0.0,0.0,6.76097276943,0.00655606185404,6.97082031801,0.0,0.0,0.0,0.0,0.0,0.0,0.0,0.0,0.0
25848000000,185,25848000000,imu_link,0.000527426358397,-0.379069455419,0.00081519990873,0.925367713527,0.0,0.0,0.0,0.0,0.0,0.0,0.0,0.0,0.0,-0.0053245519854,-0.00144225591298,0.000977945551332,0.0,0.0,0.0,0.0,0.0,0.0,0.0,0.0,0.0,6.76158671663,0.00630559251335,6.9736017726,0.0,0.0,0.0,0.0,0.0,0.0,0.0,0.0,0.0
25852000000,186,25852000000,imu_link,0.000515774956397,-0.379073296241,0.0008129205438,0.925366148729,0.0,0.0,0.0,0.0,0.0,0.0,0.0,0.0,0.0,-0.00582408728656,-0.00206952202962,0.00115537063625,0.0,0.0,0.0,0.0,0.0,0.0,0.0,0.0,0.0,6.76224452603,0.00600087461955,6.97515517858,0.0,0.0,0.0,0.0,0.0,0.0,0.0,0.0,0.0
25856000000,187,25856000000,imu_link,0.000503368586419,-0.379078261877,0.000810603944667,0.92536412342,0.0,0.0,0.0,0.0,0.0,0.0,0.0,0.0,0.0,-0.00618079387034,-0.00267694073452,0.00128171435503,0.0,0.0,0.0,0.0,0.0,0.0,0.0,0.0,0.0,6.76266570382,0.00582629976623,6.9742073765,0.0,0.0,0.0,0.0,0.0,0.0,0.0,0.0,0.0
25860000000,188,25860000000,imu_link,0.000490253701389,-0.379084138759,0.000808263486204,0.925361725004,0.0,0.0,0.0,0.0,0.0,0.0,0.0,0.0,0.0,-0.00651340877671,-0.00316899509616,0.00140534696558,0.0,0.0,0.0,0.0,0.0,0.0,0.0,0.0,0.0,6.76234264564,0.00578988587943,6.97044398966,0.0,0.0,0.0,0.0,0.0,0.0,0.0,0.0,0.0
25864000000,189,25864000000,imu_link,0.000476256677168,-0.379090657929,0.000805860659963,0.925359063737,0.0,0.0,0.0,0.0,0.0,0.0,0.0,0.0,0.0,-0.00693357415329,-0.00351564952846,0.0015439567446,0.0,0.0,0.0,0.0,0.0,0.0,0.0,0.0,0.0,6.76193930844,0.00585195176592,6.96590040868,0.0,0.0,0.0,0.0,0.0,0.0,0.0,0.0,0.0
25868000000,190,25868000000,imu_link,0.000461297585187,-0.379097459769,0.000803372205069,0.925356286948,0.0,0.0,0.0,0.0,0.0,0.0,0.0,0.0,0.0,-0.00739502011328,-0.00366796444995,0.00168680742879,0.0,0.0,0.0,0.0,0.0,0.0,0.0,0.0,0.0,6.76242269755,0.00584877353886,6.9624516441,0.0,0.0,0.0,0.0,0.0,0.0,0.0,0.0,0.0
25872000000,191,25872000000,imu_link,0.000445569684062,-0.379104106064,0.000800795302895,0.925353574025,0.0,0.0,0.0,0.0,0.0,0.0,0.0,0.0,0.0,-0.00776744862036,-0.00358360360165,0.00179155007223,0.0,0.0,0.0,0.0,0.0,0.0,0.0,0.0,0.0,6.76353841796,0.00577367206417,6.9596778491,0.0,0.0,0.0,0.0,0.0,0.0,0.0,0.0,0.0
25876000000,192,25876000000,imu_link,0.000429650429032,-0.379110227675,0.000798130836743,0.925351075895,0.0,0.0,0.0,0.0,0.0,0.0,0.0,0.0,0.0,-0.007872419333,-0.00330007267533,0.00178710488328,0.0,0.0,0.0,0.0,0.0,0.0,0.0,0.0,0.0,6.76497017116,0.00566932543201,6.95840527194,0.0,0.0,0.0,0.0,0.0,0.0,0.0,0.0,0.0
25880000000,193,25880000000,imu_link,0.000414126967937,-0.379115735421,0.000795371583845,0.925348828842,0.0,0.0,0.0,0.0,0.0,0.0,0.0,0.0,0.0,-0.00770707143808,-0.0029686372447,0.00166799253954,0.0,0.0,0.0,0.0,0.0,0.0,0.0,0.0,0.0,6.76571859204,0.00563940585613,6.95851485024,0.0,0.0,0.0,0.0,0.0,0.0,0.0,0.0,0.0
25884000000,194,25884000000,imu_link,0.000399320378001,-0.379120701476,0.000792540721833,0.925346803169,0.0,0.0,0.0,0.0,0.0,0.0,0.0,0.0,0.0,-0.007388797983,-0.0026763469911,0.00149877206337,0.0,0.0,0.0,0.0,0.0,0.0,0.0,0.0,0.0,6.76570263321,0.00572473176005,6.95854420297,0.0,0.0,0.0,0.0,0.0,0.0,0.0,0.0,0.0
25888000000,195,25888000000,imu_link,0.00038511285152,-0.379125272631,0.000789632327904,0.925344938832,0.0,0.0,0.0,0.0,0.0,0.0,0.0,0.0,0.0,-0.00712619995807,-0.00246330656533,0.00134919864958,0.0,0.0,0.0,0.0,0.0,0.0,0.0,0.0,0.0,6.76591617456,0.00590473124028,6.95966950665,0.0,0.0,0.0,0.0,0.0,0.0,0.0,0.0,0.0
25892000000,196,25892000000,imu_link,0.000371100861693,-0.379129640205,0.000786599098507,0.925343157679,0.0,0.0,0.0,0.0,0.0,0.0,0.0,0.0,0.0,-0.00705933031304,-0.00235344818267,0.00125430222879,0.0,0.0,0.0,0.0,0.0,0.0,0.0,0.0,0.0,6.76624281078,0.00613738002065,6.96136225524,0.0,0.0,0.0,0.0,0.0,0.0,0.0,0.0,0.0
25896000000,197,25896000000,imu_link,0.000356946564974,-0.379133911335,0.00078340295316,0.925341415989,0.0,0.0,0.0,0.0,0.0,0.0,0.0,0.0,0.0,-0.00715602419115,-0.00230131964131,0.00120586861337,0.0,0.0,0.0,0.0,0.0,0.0,0.0,0.0,0.0,6.76707032317,0.00626723570882,6.96285468147,0.0,0.0,0.0,0.0,0.0,0.0,0.0,0.0,0.0
25900000000,198,25900000000,imu_link,0.000342568516313,-0.379138150039,0.000779997286085,0.925339687594,0.0,0.0,0.0,0.0,0.0,0.0,0.0,0.0,0.0,-0.00729925572809,-0.0022837468643,0.00115133402686,0.0,0.0,0.0,0.0,0.0,0.0,0.0,0.0,0.0,6.76636007661,0.00631568150226,6.96076539793,0.0,0.0,0.0,0.0,0.0,0.0,0.0,0.0,0.0
25904000000,199,25904000000,imu_link,0.000328113103032,-0.379142275301,0.000776385851701,0.925338005621,0.0,0.0,0.0,0.0,0.0,0.0,0.0,0.0,0.0,-0.00737402083249,-0.00222246572679,0.00107076010197,0.0,0.0,0.0,0.0,0.0,0.0,0.0,0.0,0.0,6.76694277119,0.00638045715566,6.95998973265,0.0,0.0,0.0,0.0,0.0,0.0,0.0,0.0,0.0
25908000000,200,25908000000,imu_link,0.000314035742553,-0.379146319283,0.000772661575915,0.925336356656,0.0,0.0,0.0,0.0,0.0,0.0,0.0,0.0,0.0,-0.00722047285532,-0.00217876717786,0.000946857835463,0.0,0.0,0.0,0.0,0.0,0.0,0.0,0.0,0.0,6.76745353263,0.00645070777073,6.96002243514,0.0,0.0,0.0,0.0,0.0,0.0,0.0,0.0,0.0
25912000000,201,25912000000,imu_link,0.000300787009716,-0.379150301294,0.00076894417894,0.925334732559,0.0,0.0,0.0,0.0,0.0,0.0,0.0,0.0,0.0,-0.00683576913895,-0.00214570033543,0.00079293554422,0.0,0.0,0.0,0.0,0.0,0.0,0.0,0.0,0.0,6.76888055082,0.00656032992052,6.96182508494,0.0,0.0,0.0,0.0,0.0,0.0,0.0,0.0,0.0
25916000000,202,25916000000,imu_link,0.000288536150527,-0.379154309292,0.000765314130761,0.925333097207,0.0,0.0,0.0,0.0,0.0,0.0,0.0,0.0,0.0,-0.00635753470342,-0.00216022783416,0.000644185170097,0.0,0.0,0.0,0.0,0.0,0.0,0.0,0.0,0.0,6.76968060621,0.00674016032611,6.96331831823,0.0,0.0,0.0,0.0,0.0,0.0,0.0,0.0,0.0
25920000000,203,25920000000,imu_link,0.000277096453793,-0.379158637301,0.00076179552705,0.925331330197,0.0,0.0,0.0,0.0,0.0,0.0,0.0,0.0,0.0,-0.00596121310553,-0.00233353993188,0.000542065474033,0.0,0.0,0.0,0.0,0.0,0.0,0.0,0.0,0.0,6.77035865245,0.00697781962866,6.96664360903,0.0,0.0,0.0,0.0,0.0,0.0,0.0,0.0,0.0
25924000000,204,25924000000,imu_link,0.000266055525434,-0.379163767845,0.000758341065255,0.925329233996,0.0,0.0,0.0,0.0,0.0,0.0,0.0,0.0,0.0,-0.00576481676421,-0.00276739608325,0.000496380077952,0.0,0.0,0.0,0.0,0.0,0.0,0.0,0.0,0.0,6.77160544888,0.00722546033353,6.97216197292,0.0,0.0,0.0,0.0,0.0,0.0,0.0,0.0,0.0
25928000000,205,25928000000,imu_link,0.000255013279006,-0.379170123538,0.000754863070616,0.925326635608,0.0,0.0,0.0,0.0,0.0,0.0,0.0,0.0,0.0,-0.0057702857246,-0.00342943721129,0.000486095538562,0.0,0.0,0.0,0.0,0.0,0.0,0.0,0.0,0.0,6.77246985782,0.00739147485796,6.97644253676,0.0,0.0,0.0,0.0,0.0,0.0,0.0,0.0,0.0
25932000000,206,25932000000,imu_link,0.000243809272835,-0.379177736055,0.00075135427433,0.925323522074,0.0,0.0,0.0,0.0,0.0,0.0,0.0,0.0,0.0,-0.00585137423706,-0.00410853067684,0.000502866663632,0.0,0.0,0.0,0.0,0.0,0.0,0.0,0.0,0.0,6.77206870837,0.00746075574958,6.97506085838,0.0,0.0,0.0,0.0,0.0,0.0,0.0,0.0,0.0
25936000000,207,25936000000,imu_link,0.000232479583067,-0.379186402736,0.000747829008683,0.925319976379,0.0,0.0,0.0,0.0,0.0,0.0,0.0,0.0,0.0,-0.00591298898077,-0.00467813943096,0.000519365991068,0.0,0.0,0.0,0.0,0.0,0.0,0.0,0.0,0.0,6.77072842931,0.00747802479352,6.96959724265,0.0,0.0,0.0,0.0,0.0,0.0,0.0,0.0,0.0
25940000000,208,25940000000,imu_link,0.000221200581844,-0.379195822934,0.000744314531264,0.925316121623,0.0,0.0,0.0,0.0,0.0,0.0,0.0,0.0,0.0,-0.00588773787141,-0.00508537522237,0.000514950219931,0.0,0.0,0.0,0.0,0.0,0.0,0.0,0.0,0.0,6.77072335569,0.00748548284665,6.96573621457,0.0,0.0,0.0,0.0,0.0,0.0,0.0,0.0,0.0
25944000000,209,25944000000,imu_link,0.000210344051118,-0.379205858168,0.000740848226077,0.92531201442,0.0,0.0,0.0,0.0,0.0,0.0,0.0,0.0,0.0,-0.00568334610491,-0.00541794242692,0.000457299940739,0.0,0.0,0.0,0.0,0.0,0.0,0.0,0.0,0.0,6.77101707024,0.00748227917242,6.96394206892,0.0,0.0,0.0,0.0,0.0,0.0,0.0,0.0,0.0
25948000000,210,25948000000,imu_link,0.000200302905466,-0.37921643811,0.00073744605439,0.925307683487,0.0,0.0,0.0,0.0,0.0,0.0,0.0,0.0,0.0,-0.00529412164534,-0.00571266950204,0.000332512454595,0.0,0.0,0.0,0.0,0.0,0.0,0.0,0.0,0.0,6.77183448478,0.00754466625157,6.96396852168,0.0,0.0,0.0,0.0,0.0,0.0,0.0,0.0,0.0
25952000000,211,25952000000,imu_link,0.000191249211176,-0.379227408755,0.000734080096024,0.925303191932,0.0,0.0,0.0,0.0,0.0,0.0,0.0,0.0,0.0,-0.00483053511101,-0.00592424591733,0.000162136146594,0.0,0.0,0.0,0.0,0.0,0.0,0.0,0.0,0.0,6.77334920703,0.00771373862167,6.96470947588,0.0,0.0,0.0,0.0,0.0,0.0,0.0,0.0,0.0
25956000000,212,25956000000,imu_link,0.000182919946739,-0.379238303092,0.000730716695685,0.925298731255,0.0,0.0,0.0,0.0,0.0,0.0,0.0,0.0,0.0,-0.00449486639021,-0.00588335202126,2.59391636262e-05,0.0,0.0,0.0,0.0,0.0,0.0,0.0,0.0,0.0,6.77517893687,0.0080039108082,6.96293154063,0.0,0.0,0.0,0.0,0.0,0.0,0.0,0.0,0.0
25960000000,213,25960000000,imu_link,0.000174724437574,-0.379248552246,0.000727332945966,0.925294534771,0.0,0.0,0.0,0.0,0.0,0.0,0.0,0.0,0.0,-0.00443663167117,-0.00553481341889,-8.99355890745e-06,0.0,0.0,0.0,0.0,0.0,0.0,0.0,0.0,0.0,6.77705924456,0.00827047392356,6.96080841939,0.0,0.0,0.0,0.0,0.0,0.0,0.0,0.0,0.0
25964000000,214,25964000000,imu_link,0.000166254329703,-0.3792577831,0.000723916065127,0.925290755527,0.0,0.0,0.0,0.0,0.0,0.0,0.0,0.0,0.0,-0.00456962260648,-0.00498448436162,2.75083031409e-05,0.0,0.0,0.0,0.0,0.0,0.0,0.0,0.0,0.0,6.77702632836,0.00838339995672,6.95708671769,0.0,0.0,0.0,0.0,0.0,0.0,0.0,0.0,0.0
25968000000,215,25968000000,imu_link,0.000157426032658,-0.379266065525,0.00072048344033,0.92528736491,0.0,0.0,0.0,0.0,0.0,0.0,0.0,0.0,0.0,-0.00473801169423,-0.00447187399417,8.79279425615e-05,0.0,0.0,0.0,0.0,0.0,0.0,0.0,0.0,0.0,6.77656079609,0.00837340691629,6.95614461893,0.0,0.0,0.0,0.0,0.0,0.0,0.0,0.0,0.0
25972000000,216,25972000000,imu_link,0.000148421973747,-0.379273754508,0.000717108855306,0.925284217345,0.0,0.0,0.0,0.0,0.0,0.0,0.0,0.0,0.0,-0.00480812590301,-0.0041511640216,0.000147975663608,0.0,0.0,0.0,0.0,0.0,0.0,0.0,0.0,0.0,6.7770472238,0.0083087816944,6.95940130047,0.0,0.0,0.0,0.0,0.0,0.0,0.0,0.0,0.0
25976000000,217,25976000000,imu_link,0.000139642305066,-0.379281166651,0.000713890448066,0.92528118293,0.0,0.0,0.0,0.0,0.0,0.0,0.0,0.0,0.0,-0.00467460560091,-0.00400169710276,0.000177616305328,0.0,0.0,0.0,0.0,0.0,0.0,0.0,0.0,0.0,6.77767781634,0.00821000749502,6.96274999196,0.0,0.0,0.0,0.0,0.0,0.0,0.0,0.0,0.0
25980000000,218,25980000000,imu_link,0.000131303628376,-0.37928831659,0.000710844401543,0.925278255639,0.0,0.0,0.0,0.0,0.0,0.0,0.0,0.0,0.0,-0.00443781210503,-0.00386022130031,0.000173670845938,0.0,0.0,0.0,0.0,0.0,0.0,0.0,0.0,0.0,6.77603472105,0.00819432507931,6.95926407038,0.0,0.0,0.0,0.0,0.0,0.0,0.0,0.0,0.0
25984000000,219,25984000000,imu_link,0.000123403608895,-0.379295019119,0.000707951188034,0.925275511428,0.0,0.0,0.0,0.0,0.0,0.0,0.0,0.0,0.0,-0.00420574122881,-0.00361865809833,0.000161094157188,0.0,0.0,0.0,0.0,0.0,0.0,0.0,0.0,0.0,6.7753836381,0.00825771852099,6.95573227515,0.0,0.0,0.0,0.0,0.0,0.0,0.0,0.0,0.0
25988000000,220,25988000000,imu_link,0.000115624607446,-0.379300998713,0.000705154701914,0.925273063351,0.0,0.0,0.0,0.0,0.0,0.0,0.0,0.0,0.0,-0.00413117198057,-0.00322807679974,0.000182743700528,0.0,0.0,0.0,0.0,0.0,0.0,0.0,0.0,0.0,6.77705267386,0.00833935031893,6.95527367544,0.0,0.0,0.0,0.0,0.0,0.0,0.0,0.0,0.0
25992000000,221,25992000000,imu_link,0.000107694865873,-0.379306135238,0.000702415585385,0.925270960738,0.0,0.0,0.0,0.0,0.0,0.0,0.0,0.0,0.0,-0.00418975242151,-0.00277246829495,0.000237702366425,0.0,0.0,0.0,0.0,0.0,0.0,0.0,0.0,0.0,6.77665716573,0.00836747591422,6.95245795624,0.0,0.0,0.0,0.0,0.0,0.0,0.0,0.0,0.0
25996000000,222,25996000000,imu_link,9.94364240468e-05,-0.379310428534,0.000699718314171,0.925269203698,0.0,0.0,0.0,0.0,0.0,0.0,0.0,0.0,0.0,-0.00433360718796,-0.00231670346107,0.000319233731488,0.0,0.0,0.0,0.0,0.0,0.0,0.0,0.0,0.0,6.77549739465,0.00840784956308,6.9498867763,0.0,0.0,0.0,0.0,0.0,0.0,0.0,0.0,0.0
26000000000,223,26000000000,imu_link,9.06903051163e-05,-0.37931409071,0.000697038426958,0.925267705316,0.0,0.0,0.0,0.0,0.0,0.0,0.0,0.0,0.0,-0.00455571858216,-0.00197549875195,0.000419644805097,0.0,0.0,0.0,0.0,0.0,0.0,0.0,0.0,0.0,6.77542907546,0.00848762687112,6.95116002376,0.0,0.0,0.0,0.0,0.0,0.0,0.0,0.0,0.0
26004000000,224,26004000000,imu_link,8.15276933396e-05,-0.379317191361,0.000694380488268,0.925266437048,0.0,0.0,0.0,0.0,0.0,0.0,0.0,0.0,0.0,-0.00474405431213,-0.00167192925452,0.000508684076499,0.0,0.0,0.0,0.0,0.0,0.0,0.0,0.0,0.0,6.77434279231,0.00846439626589,6.94939097783,0.0,0.0,0.0,0.0,0.0,0.0,0.0,0.0,0.0
26008000000,225,26008000000,imu_link,7.22200083197e-05,-0.379319591026,0.000691767484893,0.925265456021,0.0,0.0,0.0,0.0,0.0,0.0,0.0,0.0,0.0,-0.00480241597825,-0.00129309978304,0.00055685873133,0.0,0.0,0.0,0.0,0.0,0.0,0.0,0.0,0.0,6.77560972264,0.00840133055688,6.94985027319,0.0,0.0,0.0,0.0,0.0,0.0,0.0,0.0,0.0
26012000000,226,26012000000,imu_link,6.31631453949e-05,-0.379321283692,0.000689262979104,0.925264764629,0.0,0.0,0.0,0.0,0.0,0.0,0.0,0.0,0.0,-0.00466556575798,-0.000911170095033,0.000559356688075,0.0,0.0,0.0,0.0,0.0,0.0,0.0,0.0,0.0,6.77584873795,0.0083320889033,6.94951670129,0.0,0.0,0.0,0.0,0.0,0.0,0.0,0.0,0.0
26016000000,227,26016000000,imu_link,5.49177833141e-05,-0.379322387709,0.000686939856482,0.92526431428,0.0,0.0,0.0,0.0,0.0,0.0,0.0,0.0,0.0,-0.00425554268627,-0.000593398961634,0.000489258982547,0.0,0.0,0.0,0.0,0.0,0.0,0.0,0.0,0.0,6.77675989506,0.00828955502625,6.95138509303,0.0,0.0,0.0,0.0,0.0,0.0,0.0,0.0,0.0
26020000000,228,26020000000,imu_link,4.78693918944e-05,-0.379323104428,0.000684841906292,0.9252640224,0.0,0.0,0.0,0.0,0.0,0.0,0.0,0.0,0.0,-0.00365895042144,-0.000384572481944,0.000366347041978,0.0,0.0,0.0,0.0,0.0,0.0,0.0,0.0,0.0,6.77683976616,0.00834070803021,6.9526210588,0.0,0.0,0.0,0.0,0.0,0.0,0.0,0.0,0.0
26024000000,229,26024000000,imu_link,4.20747523615e-05,-0.379323715563,0.000682978001492,0.925263773517,0.0,0.0,0.0,0.0,0.0,0.0,0.0,0.0,0.0,-0.00303450012731,-0.00032799432937,0.000236818151912,0.0,0.0,0.0,0.0,0.0,0.0,0.0,0.0,0.0,6.77656459572,0.00847605169273,6.95396059415,0.0,0.0,0.0,0.0,0.0,0.0,0.0,0.0,0.0
26028000000,230,26028000000,imu_link,3.73011769092e-05,-0.379324217175,0.000681317481401,0.925263569303,0.0,0.0,0.0,0.0,0.0,0.0,0.0,0.0,0.0,-0.00252351254228,-0.000269198057892,0.000137235935224,0.0,0.0,0.0,0.0,0.0,0.0,0.0,0.0,0.0,6.77633368455,0.00867571917734,6.95265493174,0.0,0.0,0.0,0.0,0.0,0.0,0.0,0.0,0.0
26032000000,231,26032000000,imu_link,3.31444268886e-05,-0.379324518745,0.000679830734679,0.925263446922,0.0,0.0,0.0,0.0,0.0,0.0,0.0,0.0,0.0,-0.00220512464872,-0.000161338936215,0.000100608999405,0.0,0.0,0.0,0.0,0.0,0.0,0.0,0.0,0.0,6.77755989131,0.00883050619035,6.95303011722,0.0,0.0,0.0,0.0,0.0,0.0,0.0,0.0,0.0
26036000000,232,26036000000,imu_link,2.91832015731e-05,-0.379324607831,0.00067845047907,0.925263411547,0.0,0.0,0.0,0.0,0.0,0.0,0.0,0.0,0.0,-0.00209440058742,-4.65995591758e-05,0.00011275841281,0.0,0.0,0.0,0.0,0.0,0.0,0.0,0.0,0.0,6.77876442746,0.0089199152693,6.95398239828,0.0,0.0,0.0,0.0,0.0,0.0,0.0,0.0,0.0
26040000000,233,26040000000,imu_link,2.50754779007e-05,-0.379324471014,0.000677126525184,0.925263468727,0.0,0.0,0.0,0.0,0.0,0.0,0.0,0.0,0.0,-0.0021514217765,7.55148064277e-05,0.000166555897316,0.0,0.0,0.0,0.0,0.0,0.0,0.0,0.0,0.0,6.77902060547,0.00898950045205,6.95356152831,0.0,0.0,0.0,0.0,0.0,0.0,0.0,0.0,0.0
26044000000,234,26044000000,imu_link,2.04827499856e-05,-0.379324297103,0.000675789011121,0.925263541115,0.0,0.0,0.0,0.0,0.0,0.0,0.0,0.0,0.0,-0.0023783596156,9.57243011494e-05,0.000252263904559,0.0,0.0,0.0,0.0,0.0,0.0,0.0,0.0,0.0,6.77865815241,0.00904743213935,6.95396866141,0.0,0.0,0.0,0.0,0.0,0.0,0.0,0.0,0.0
26048000000,235,26048000000,imu_link,1.53252828704e-05,-0.37932428311,0.000674397898051,0.925263547967,0.0,0.0,0.0,0.0,0.0,0.0,0.0,0.0,0.0,-0.00264984497893,9.50136229911e-06,0.000334600733267,0.0,0.0,0.0,0.0,0.0,0.0,0.0,0.0,0.0,6.77853797947,0.0089780855436,6.95475764412,0.0,0.0,0.0,0.0,0.0,0.0,0.0,0.0,0.0
26052000000,236,26052000000,imu_link,9.7135235686e-06,-0.379324578443,0.000672979248128,0.925263428,0.0,0.0,0.0,0.0,0.0,0.0,0.0,0.0,0.0,-0.00286534101022,-0.000157501990149,0.00040806847198,0.0,0.0,0.0,0.0,0.0,0.0,0.0,0.0,0.0,6.77837708889,0.00884641663479,6.95495000878,0.0,0.0,0.0,0.0,0.0,0.0,0.0,0.0,0.0
26056000000,237,26056000000,imu_link,4.0594558938e-06,-0.379325320713,0.000671597583337,0.925263124741,0.0,0.0,0.0,0.0,0.0,0.0,0.0,0.0,0.0,-0.00287804902022,-0.000399018784942,0.00043326711651,0.0,0.0,0.0,0.0,0.0,0.0,0.0,0.0,0.0,6.77927557842,0.00867446529959,6.95688285226,0.0,0.0,0.0,0.0,0.0,0.0,0.0,0.0,0.0
26060000000,238,26060000000,imu_link,-1.24325398482e-06,-0.379326524896,0.000670316812423,0.925262632005,0.0,0.0,0.0,0.0,0.0,0.0,0.0,0.0,0.0,-0.00269651873763,-0.00064876849268,0.000413368918458,0.0,0.0,0.0,0.0,0.0,0.0,0.0,0.0,0.0,6.77981289681,0.00856682512552,6.95681931277,0.0,0.0,0.0,0.0,0.0,0.0,0.0,0.0,0.0
26064000000,239,26064000000,imu_link,-5.95920576762e-06,-0.379328279852,0.000669173491641,0.925261913339,0.0,0.0,0.0,0.0,0.0,0.0,0.0,0.0,0.0,-0.0023991815641,-0.000946620913274,0.0003657465787,0.0,0.0,0.0,0.0,0.0,0.0,0.0,0.0,0.0,6.78006790814,0.00854036561951,6.9570886875,0.0,0.0,0.0,0.0,0.0,0.0,0.0,0.0,0.0
26068000000,240,26068000000,imu_link,-9.90792183184e-06,-0.379330642952,0.000668192801819,0.925260945214,0.0,0.0,0.0,0.0,0.0,0.0,0.0,0.0,0.0,-0.00201359352863,-0.00127553756145,0.000295549246018,0.0,0.0,0.0,0.0,0.0,0.0,0.0,0.0,0.0,6.78015329089,0.00853720242957,6.95696068657,0.0,0.0,0.0,0.0,0.0,0.0,0.0,0.0,0.0
26072000000,241,26072000000,imu_link,-1.31681017255e-05,-0.379333784387,0.00066737476875,0.925259657858,0.0,0.0,0.0,0.0,0.0,0.0,0.0,0.0,0.0,-0.00166446698957,-0.00169639691551,0.000240310580658,0.0,0.0,0.0,0.0,0.0,0.0,0.0,0.0,0.0,6.78037767407,0.0086132155313,6.95798877393,0.0,0.0,0.0,0.0,0.0,0.0,0.0,0.0,0.0
26076000000,242,26076000000,imu_link,-1.58027662521e-05,-0.379337834921,0.000666719354415,0.92525799766,0.0,0.0,0.0,0.0,0.0,0.0,0.0,0.0,0.0,-0.00134454734236,-0.00218789938737,0.000197021729608,0.0,0.0,0.0,0.0,0.0,0.0,0.0,0.0,0.0,6.7805487701,0.00865704669525,6.95849171575,0.0,0.0,0.0,0.0,0.0,0.0,0.0,0.0,0.0
26080000000,243,26080000000,imu_link,-1.79056826047e-05,-0.379342632002,0.00066620890415,0.925256031264,0.0,0.0,0.0,0.0,0.0,0.0,0.0,0.0,0.0,-0.00107130132649,-0.00259152762702,0.000163326386424,0.0,0.0,0.0,0.0,0.0,0.0,0.0,0.0,0.0,6.78021295062,0.00867837415651,6.9552415691,0.0,0.0,0.0,0.0,0.0,0.0,0.0,0.0,0.0
26084000000,244,26084000000,imu_link,-1.98317107501e-05,-0.379347812561,0.000665813405381,0.925253907533,0.0,0.0,0.0,0.0,0.0,0.0,0.0,0.0,0.0,-0.000967794031522,-0.00279883747931,0.000183004526145,0.0,0.0,0.0,0.0,0.0,0.0,0.0,0.0,0.0,6.78183234543,0.00875895544811,6.95379162453,0.0,0.0,0.0,0.0,0.0,0.0,0.0,0.0,0.0
26088000000,245,26088000000,imu_link,-2.21728654114e-05,-0.37935281714,0.000665476271864,0.925251855863,0.0,0.0,0.0,0.0,0.0,0.0,0.0,0.0,0.0,-0.00114871308247,-0.00270361877374,0.000288722287696,0.0,0.0,0.0,0.0,0.0,0.0,0.0,0.0,0.0,6.78416879083,0.00883657980584,6.95212906874,0.0,0.0,0.0,0.0,0.0,0.0,0.0,0.0,0.0
26092000000,246,26092000000,imu_link,-2.54937000839e-05,-0.379357583897,0.000665166319511,0.925249901618,0.0,0.0,0.0,0.0,0.0,0.0,0.0,0.0,0.0,-0.00159670261846,-0.00257479116827,0.000487089404861,0.0,0.0,0.0,0.0,0.0,0.0,0.0,0.0,0.0,6.78510300484,0.00882398387295,6.95291399362,0.0,0.0,0.0,0.0,0.0,0.0,0.0,0.0,0.0
26096000000,247,26096000000,imu_link,-2.99235952927e-05,-0.379362582302,0.000664891925365,0.925247852293,0.0,0.0,0.0,0.0,0.0,0.0,0.0,0.0,0.0,-0.00210311531094,-0.00269962334764,0.000713933450233,0.0,0.0,0.0,0.0,0.0,0.0,0.0,0.0,0.0,6.78600803065,0.00864463309059,6.95824888348,0.0,0.0,0.0,0.0,0.0,0.0,0.0,0.0,0.0
26100000000,248,26100000000,imu_link,-3.50729941041e-05,-0.379368443316,0.000664713319731,0.925245449133,0.0,0.0,0.0,0.0,0.0,0.0,0.0,0.0,0.0,-0.0024180976689,-0.00316556531985,0.000894828605138,0.0,0.0,0.0,0.0,0.0,0.0,0.0,0.0,0.0,6.78744664273,0.00835216517938,6.96577559838,0.0,0.0,0.0,0.0,0.0,0.0,0.0,0.0,0.0
26104000000,249,26104000000,imu_link,-4.05358479233e-05,-0.379375531961,0.000664642411458,0.925242542448,0.0,0.0,0.0,0.0,0.0,0.0,0.0,0.0,0.0,-0.00254309743016,-0.00382890390045,0.00100425514211,0.0,0.0,0.0,0.0,0.0,0.0,0.0,0.0,0.0,6.78779468112,0.0081148957561,6.96892456234,0.0,0.0,0.0,0.0,0.0,0.0,0.0,0.0,0.0
26108000000,250,26108000000,imu_link,-4.577571961e-05,-0.379383700326,0.000664698550677,0.925239192862,0.0,0.0,0.0,0.0,0.0,0.0,0.0,0.0,0.0,-0.00241620958774,-0.00441249457405,0.001020858334,0.0,0.0,0.0,0.0,0.0,0.0,0.0,0.0,0.0,6.78858435536,0.00791245431231,6.96802981978,0.0,0.0,0.0,0.0,0.0,0.0,0.0,0.0,0.0
26112000000,251,26112000000,imu_link,-5.02915283371e-05,-0.379392485198,0.000664914785884,0.925235590287,0.0,0.0,0.0,0.0,0.0,0.0,0.0,0.0,0.0,-0.0020510856554,-0.00474593705013,0.00095764300317,0.0,0.0,0.0,0.0,0.0,0.0,0.0,0.0,0.0,6.78987104899,0.00777638796607,6.96514393351,0.0,0.0,0.0,0.0,0.0,0.0,0.0,0.0,0.0
26116000000,252,26116000000,imu_link,-5.36554109322e-05,-0.379401347728,0.000665324079795,0.925231955678,0.0,0.0,0.0,0.0,0.0,0.0,0.0,0.0,0.0,-0.00148158824113,-0.004788327884,0.000828448033032,0.0,0.0,0.0,0.0,0.0,0.0,0.0,0.0,0.0,6.79038662922,0.00773348041008,6.96029958062,0.0,0.0,0.0,0.0,0.0,0.0,0.0,0.0,0.0
26120000000,253,26120000000,imu_link,-5.556485595e-05,-0.379410065505,0.000665954079445,0.925228380245,0.0,0.0,0.0,0.0,0.0,0.0,0.0,0.0,0.0,-0.000766824410175,-0.00471062680812,0.000654626443609,0.0,0.0,0.0,0.0,0.0,0.0,0.0,0.0,0.0,6.79032404455,0.00779665335833,6.9573569254,0.0,0.0,0.0,0.0,0.0,0.0,0.0,0.0,0.0
26124000000,254,26124000000,imu_link,-5.61383720229e-05,-0.379418564867,0.000666774364956,0.925224894226,0.0,0.0,0.0,0.0,0.0,0.0,0.0,0.0,0.0,-0.000112631326288,-0.00459307260576,0.000489199234124,0.0,0.0,0.0,0.0,0.0,0.0,0.0,0.0,0.0,6.78992751435,0.00792560706959,6.95512542346,0.0,0.0,0.0,0.0,0.0,0.0,0.0,0.0,0.0
26128000000,255,26128000000,imu_link,-5.58503959088e-05,-0.379426668411,0.000667698488589,0.925221570413,0.0,0.0,0.0,0.0,0.0,0.0,0.0,0.0,0.0,0.000305741251784,-0.00437948015924,0.000373760009779,0.0,0.0,0.0,0.0,0.0,0.0,0.0,0.0,0.0,6.79108702644,0.00808766818471,6.95473527078,0.0,0.0,0.0,0.0,0.0,0.0,0.0,0.0,0.0
26132000000,256,26132000000,imu_link,-5.52143506045e-05,-0.379434099528,0.000668639175071,0.92521852229,0.0,0.0,0.0,0.0,0.0,0.0,0.0,0.0,0.0,0.000470136194186,-0.00401622347115,0.000315315535133,0.0,0.0,0.0,0.0,0.0,0.0,0.0,0.0,0.0,6.79152971455,0.0082195607944,6.95231865864,0.0,0.0,0.0,0.0,0.0,0.0,0.0,0.0,0.0
26136000000,257,26136000000,imu_link,-5.45984271247e-05,-0.379440754786,0.00066956960849,0.92521579229,0.0,0.0,0.0,0.0,0.0,0.0,0.0,0.0,0.0,0.000459150638847,-0.00359694278901,0.000314304890873,0.0,0.0,0.0,0.0,0.0,0.0,0.0,0.0,0.0,6.79010084012,0.0082848067634,6.94870310881,0.0,0.0,0.0,0.0,0.0,0.0,0.0,0.0,0.0
26140000000,258,26140000000,imu_link,-5.42393006925e-05,-0.379446824901,0.000670475946722,0.925213302213,0.0,0.0,0.0,0.0,0.0,0.0,0.0,0.0,0.0,0.00033598539491,-0.00328064669761,0.000351813550566,0.0,0.0,0.0,0.0,0.0,0.0,0.0,0.0,0.0,6.78946395715,0.00825266150196,6.9491305026,0.0,0.0,0.0,0.0,0.0,0.0,0.0,0.0,0.0
26144000000,259,26144000000,imu_link,-5.41360828062e-05,-0.379452851558,0.000671379106111,0.9252108299,0.0,0.0,0.0,0.0,0.0,0.0,0.0,0.0,0.0,0.000217012349584,-0.00325708630603,0.000398890063446,0.0,0.0,0.0,0.0,0.0,0.0,0.0,0.0,0.0,6.7898283241,0.00813050950028,6.95403046042,0.0,0.0,0.0,0.0,0.0,0.0,0.0,0.0,0.0
26148000000,260,26148000000,imu_link,-5.43231064013e-05,-0.379459372129,0.000672262526889,0.925208154966,0.0,0.0,0.0,0.0,0.0,0.0,0.0,0.0,0.0,7.88288463233e-05,-0.0035239180269,0.000444880002303,0.0,0.0,0.0,0.0,0.0,0.0,0.0,0.0,0.0,6.79079470182,0.00801157659827,6.96002212146,0.0,0.0,0.0,0.0,0.0,0.0,0.0,0.0,0.0
26152000000,261,26152000000,imu_link,-5.47799778754e-05,-0.379466568876,0.000673113798035,0.925205202656,0.0,0.0,0.0,0.0,0.0,0.0,0.0,0.0,0.0,-5.2338440758e-05,-0.0038892551995,0.000481280473334,0.0,0.0,0.0,0.0,0.0,0.0,0.0,0.0,0.0,6.78950543007,0.00787941787756,6.9585164817,0.0,0.0,0.0,0.0,0.0,0.0,0.0,0.0,0.0
26156000000,262,26156000000,imu_link,-5.55153793076e-05,-0.379474412105,0.000673930934231,0.925201985132,0.0,0.0,0.0,0.0,0.0,0.0,0.0,0.0,0.0,-0.000187888501981,-0.00423854427634,0.000518407512905,0.0,0.0,0.0,0.0,0.0,0.0,0.0,0.0,0.0,6.78821458966,0.0077434909238,6.95531041015,0.0,0.0,0.0,0.0,0.0,0.0,0.0,0.0,0.0
26160000000,263,26160000000,imu_link,-5.65082171321e-05,-0.379482599,0.000674713876722,0.925198626579,0.0,0.0,0.0,0.0,0.0,0.0,0.0,0.0,0.0,-0.000313586368874,-0.00442419514893,0.000551472715089,0.0,0.0,0.0,0.0,0.0,0.0,0.0,0.0,0.0,6.78843978647,0.00760764125961,6.95208513928,0.0,0.0,0.0,0.0,0.0,0.0,0.0,0.0,0.0
26164000000,264,26164000000,imu_link,-5.77548258614e-05,-0.37949065914,0.000675452706047,0.925195319948,0.0,0.0,0.0,0.0,0.0,0.0,0.0,0.0,0.0,-0.000439306475988,-0.00435562016868,0.000579202881729,0.0,0.0,0.0,0.0,0.0,0.0,0.0,0.0,0.0,6.78891902365,0.00749551946838,6.94746983896,0.0,0.0,0.0,0.0,0.0,0.0,0.0,0.0,0.0
26168000000,265,26168000000,imu_link,-5.91735189813e-05,-0.379498081074,0.000676154981256,0.92519227503,0.0,0.0,0.0,0.0,0.0,0.0,0.0,0.0,0.0,-0.000525625188545,-0.00401066946197,0.000594875284955,0.0,0.0,0.0,0.0,0.0,0.0,0.0,0.0,0.0,6.78945752813,0.00733503644393,6.94277470164,0.0,0.0,0.0,0.0,0.0,0.0,0.0,0.0,0.0
26172000000,266,26172000000,imu_link,-6.03611769134e-05,-0.379504743476,0.00067686557716,0.925189541601,0.0,0.0,0.0,0.0,0.0,0.0,0.0,0.0,0.0,-0.000416904362548,-0.00360028639611,0.000554802865399,0.0,0.0,0.0,0.0,0.0,0.0,0.0,0.0,0.0,6.78885386776,0.00709543530041,6.93994551559,0.0,0.0,0.0,0.0,0.0,0.0,0.0,0.0,0.0
26176000000,267,26176000000,imu_link,-6.08751662697e-05,-0.379510812384,0.000677668848814,0.925187051543,0.0,0.0,0.0,0.0,0.0,0.0,0.0,0.0,0.0,-8.74751558489e-05,-0.0032797897979,0.000469779520171,0.0,0.0,0.0,0.0,0.0,0.0,0.0,0.0,0.0,6.78999611168,0.00697439410421,6.9429810293,0.0,0.0,0.0,0.0,0.0,0.0,0.0,0.0,0.0
26180000000,268,26180000000,imu_link,-6.05913168286e-05,-0.379516465005,0.000678582656366,0.925184732172,0.0,0.0,0.0,0.0,0.0,0.0,0.0,0.0,0.0,0.000302720938306,-0.00305510307793,0.000369473321963,0.0,0.0,0.0,0.0,0.0,0.0,0.0,0.0,0.0,6.78930893893,0.00700594766024,6.94316502899,0.0,0.0,0.0,0.0,0.0,0.0,0.0,0.0,0.0
26184000000,269,26184000000,imu_link,-5.97619173858e-05,-0.379521869419,0.000679569224328,0.92518251456,0.0,0.0,0.0,0.0,0.0,0.0,0.0,0.0,0.0,0.000568982388447,-0.00292116243196,0.000299582122126,0.0,0.0,0.0,0.0,0.0,0.0,0.0,0.0,0.0,6.78911601093,0.0070967105948,6.9440934639,0.0,0.0,0.0,0.0,0.0,0.0,0.0,0.0,0.0
26188000000,270,26188000000,imu_link,-5.88842343298e-05,-0.37952725274,0.000680576219411,0.925180305549,0.0,0.0,0.0,0.0,0.0,0.0,0.0,0.0,0.0,0.000595201659927,-0.0029097889895,0.000299866893385,0.0,0.0,0.0,0.0,0.0,0.0,0.0,0.0,0.0,6.78972420718,0.00717637874727,6.94676052805,0.0,0.0,0.0,0.0,0.0,0.0,0.0,0.0,0.0
26192000000,271,26192000000,imu_link,-5.83246694925e-05,-0.379532743148,0.000681618852427,0.925178052524,0.0,0.0,0.0,0.0,0.0,0.0,0.0,0.0,0.0,0.000454768350939,-0.002967572249,0.000376731741529,0.0,0.0,0.0,0.0,0.0,0.0,0.0,0.0,0.0,6.79076514604,0.00713958287529,6.94933060311,0.0,0.0,0.0,0.0,0.0,0.0,0.0,0.0,0.0
26196000000,272,26196000000,imu_link,-5.81825169985e-05,-0.379538411941,0.000682703239519,0.925175726223,0.0,0.0,0.0,0.0,0.0,0.0,0.0,0.0,0.0,0.000269538569113,-0.0030638553906,0.000475277316271,0.0,0.0,0.0,0.0,0.0,0.0,0.0,0.0,0.0,6.79149399134,0.00701868937572,6.95049887701,0.0,0.0,0.0,0.0,0.0,0.0,0.0,0.0,0.0
26200000000,273,26200000000,imu_link,-5.8369956496e-05,-0.379544302248,0.000683812566436,0.925173308967,0.0,0.0,0.0,0.0,0.0,0.0,0.0,0.0,0.0,0.000121727864861,-0.00318347358568,0.000549385190717,0.0,0.0,0.0,0.0,0.0,0.0,0.0,0.0,0.0,6.79027643127,0.00686097109416,6.94796059705,0.0,0.0,0.0,0.0,0.0,0.0,0.0,0.0,0.0
26204000000,274,26204000000,imu_link,-5.87256049107e-05,-0.379550365584,0.000684929183887,0.925170820664,0.0,0.0,0.0,0.0,0.0,0.0,0.0,0.0,0.0,4.523897173e-05,-0.00327693953138,0.000584698303548,0.0,0.0,0.0,0.0,0.0,0.0,0.0,0.0,0.0,6.79099722402,0.00670038573771,6.94826933445,0.0,0.0,0.0,0.0,0.0,0.0,0.0,0.0,0.0
26208000000,275,26208000000,imu_link,-5.91008300768e-05,-0.379556633283,0.000686041612012,0.925168248474,0.0,0.0,0.0,0.0,0.0,0.0,0.0,0.0,0.0,3.53155713873e-05,-0.00338738839531,0.000586498291732,0.0,0.0,0.0,0.0,0.0,0.0,0.0,0.0,0.0,6.79070301914,0.00657328426168,6.94743080794,0.0,0.0,0.0,0.0,0.0,0.0,0.0,0.0,0.0
26212000000,276,26212000000,imu_link,-5.92111748574e-05,-0.379563110427,0.000687175450886,0.925165590306,0.0,0.0,0.0,0.0,0.0,0.0,0.0,0.0,0.0,0.000161833944058,-0.00350068233875,0.00054615731405,0.0,0.0,0.0,0.0,0.0,0.0,0.0,0.0,0.0,6.79073859757,0.00641724448114,6.94674568117,0.0,0.0,0.0,0.0,0.0,0.0,0.0,0.0,0.0
26216000000,277,26216000000,imu_link,-5.88267378746e-05,-0.37956980319,0.000688352038694,0.925162843621,0.0,0.0,0.0,0.0,0.0,0.0,0.0,0.0,0.0,0.000398747729723,-0.00361739396949,0.000472055812486,0.0,0.0,0.0,0.0,0.0,0.0,0.0,0.0,0.0,6.79065883363,0.00627741168572,6.94582657063,0.0,0.0,0.0,0.0,0.0,0.0,0.0,0.0,0.0
26220000000,278,26220000000,imu_link,-5.7885157428e-05,-0.379576746599,0.000689595848002,0.925159994027,0.0,0.0,0.0,0.0,0.0,0.0,0.0,0.0,0.0,0.000669140278096,-0.00375306238799,0.000397441858971,0.0,0.0,0.0,0.0,0.0,0.0,0.0,0.0,0.0,6.78986971215,0.00623278980386,6.94399314262,0.0,0.0,0.0,0.0,0.0,0.0,0.0,0.0,0.0
26224000000,279,26224000000,imu_link,-5.6579263988e-05,-0.379584036724,0.000690907803147,0.925157002086,0.0,0.0,0.0,0.0,0.0,0.0,0.0,0.0,0.0,0.000850473801728,-0.00394058993145,0.000359861434939,0.0,0.0,0.0,0.0,0.0,0.0,0.0,0.0,0.0,6.79012348316,0.00626085054293,6.94464838836,0.0,0.0,0.0,0.0,0.0,0.0,0.0,0.0,0.0
26228000000,280,26228000000,imu_link,-5.53204121668e-05,-0.379591800623,0.000692236348263,0.92515381567,0.0,0.0,0.0,0.0,0.0,0.0,0.0,0.0,0.0,0.000831692835709,-0.00419664195444,0.000376517502803,0.0,0.0,0.0,0.0,0.0,0.0,0.0,0.0,0.0,6.79110301873,0.0062962192,6.94706614512,0.0,0.0,0.0,0.0,0.0,0.0,0.0,0.0,0.0
26232000000,281,26232000000,imu_link,-5.41952761865e-05,-0.379599966263,0.000693570783526,0.925150464322,0.0,0.0,0.0,0.0,0.0,0.0,0.0,0.0,0.0,0.000770813289564,-0.0044137348616,0.000404666840543,0.0,0.0,0.0,0.0,0.0,0.0,0.0,0.0,0.0,6.79108497939,0.00621697357466,6.94541914617,0.0,0.0,0.0,0.0,0.0,0.0,0.0,0.0,0.0
26236000000,282,26236000000,imu_link,-5.29122394351e-05,-0.379608265803,0.000694935777869,0.925147057931,0.0,0.0,0.0,0.0,0.0,0.0,0.0,0.0,0.0,0.000849606462219,-0.00448617610501,0.0003888486097,0.0,0.0,0.0,0.0,0.0,0.0,0.0,0.0,0.0,6.79204141411,0.0060550617232,6.94390578951,0.0,0.0,0.0,0.0,0.0,0.0,0.0,0.0,0.0
26240000000,283,26240000000,imu_link,-5.09236412791e-05,-0.379616488827,0.000696372505081,0.925143682831,0.0,0.0,0.0,0.0,0.0,0.0,0.0,0.0,0.0,0.00118962310064,-0.00444509013098,0.000288103017462,0.0,0.0,0.0,0.0,0.0,0.0,0.0,0.0,0.0,6.79420764645,0.00590248664538,6.94497575408,0.0,0.0,0.0,0.0,0.0,0.0,0.0,0.0,0.0
26244000000,284,26244000000,imu_link,-4.77654104029e-05,-0.379624456914,0.000697893621592,0.925140412249,0.0,0.0,0.0,0.0,0.0,0.0,0.0,0.0,0.0,0.00174677147332,-0.00430773455924,0.000105103297547,0.0,0.0,0.0,0.0,0.0,0.0,0.0,0.0,0.0,6.79489029872,0.00583896265428,6.9441750751,0.0,0.0,0.0,0.0,0.0,0.0,0.0,0.0,0.0
26248000000,285,26248000000,imu_link,-4.34523126928e-05,-0.37963210212,0.000699492501183,0.925137274064,0.0,0.0,0.0,0.0,0.0,0.0,0.0,0.0,0.0,0.00229585467629,-0.00413365392343,-7.81721545719e-05,0.0,0.0,0.0,0.0,0.0,0.0,0.0,0.0,0.0,6.79464708465,0.00591833628125,6.9423551298,0.0,0.0,0.0,0.0,0.0,0.0,0.0,0.0,0.0
26252000000,286,26252000000,imu_link,-3.81646192568e-05,-0.379639324633,0.000701150345066,0.925134309235,0.0,0.0,0.0,0.0,0.0,0.0,0.0,0.0,0.0,0.00275801606399,-0.00390556519183,-0.000235942481575,0.0,0.0,0.0,0.0,0.0,0.0,0.0,0.0,0.0,6.79392456728,0.00602746800288,6.93942204771,0.0,0.0,0.0,0.0,0.0,0.0,0.0,0.0,0.0
26256000000,287,26256000000,imu_link,-3.21723111742e-05,-0.379646025059,0.00070285078677,0.925131558549,0.0,0.0,0.0,0.0,0.0,0.0,0.0,0.0,0.0,0.00309222067683,-0.00362366487674,-0.000350052953527,0.0,0.0,0.0,0.0,0.0,0.0,0.0,0.0,0.0,6.79424099452,0.00612331294824,6.93855866229,0.0,0.0,0.0,0.0,0.0,0.0,0.0,0.0,0.0
26260000000,288,26260000000,imu_link,-2.55799258553e-05,-0.379652122426,0.000704577183748,0.925129055243,0.0,0.0,0.0,0.0,0.0,0.0,0.0,0.0,0.0,0.00337493868965,-0.00329796282834,-0.000452032635147,0.0,0.0,0.0,0.0,0.0,0.0,0.0,0.0,0.0,6.79351179735,0.00609187396268,6.93597543408,0.0,0.0,0.0,0.0,0.0,0.0,0.0,0.0,0.0
26264000000,289,26264000000,imu_link,-1.8319555704e-05,-0.379657808206,0.000706365468812,0.925126720715,0.0,0.0,0.0,0.0,0.0,0.0,0.0,0.0,0.0,0.00369581990557,-0.00307577511503,-0.000550260526175,0.0,0.0,0.0,0.0,0.0,0.0,0.0,0.0,0.0,6.79316212143,0.00598240876506,6.93653554517,0.0,0.0,0.0,0.0,0.0,0.0,0.0,0.0,0.0
26268000000,290,26268000000,imu_link,-1.03391486126e-05,-0.379663486688,0.000708304876875,0.925124388973,0.0,0.0,0.0,0.0,0.0,0.0,0.0,0.0,0.0,0.00405757272849,-0.0030721259964,-0.000617041304761,0.0,0.0,0.0,0.0,0.0,0.0,0.0,0.0,0.0,6.79402191237,0.00593007334657,6.94128852528,0.0,0.0,0.0,0.0,0.0,0.0,0.0,0.0,0.0
26272000000,291,26272000000,imu_link,-2.03373188549e-06,-0.379669557088,0.000710373903184,0.925121896177,0.0,0.0,0.0,0.0,0.0,0.0,0.0,0.0,0.0,0.00423237592532,-0.00328410141457,-0.000618726938148,0.0,0.0,0.0,0.0,0.0,0.0,0.0,0.0,0.0,6.79575558879,0.00597377598448,6.94749899123,0.0,0.0,0.0,0.0,0.0,0.0,0.0,0.0,0.0
26276000000,292,26276000000,imu_link,6.03339883856e-06,-0.379676186674,0.000712531354468,0.925119173693,0.0,0.0,0.0,0.0,0.0,0.0,0.0,0.0,0.0,0.00413874141234,-0.00358627703269,-0.000532509013822,0.0,0.0,0.0,0.0,0.0,0.0,0.0,0.0,0.0,6.79694402173,0.0059881576166,6.95061108135,0.0,0.0,0.0,0.0,0.0,0.0,0.0,0.0,0.0
26280000000,293,26280000000,imu_link,1.36615356476e-05,-0.379683137862,0.000714777500887,0.925116319027,0.0,0.0,0.0,0.0,0.0,0.0,0.0,0.0,0.0,0.0039524041064,-0.00375997406723,-0.000408096398841,0.0,0.0,0.0,0.0,0.0,0.0,0.0,0.0,0.0,6.79753695848,0.00585559496244,6.9485242686,0.0,0.0,0.0,0.0,0.0,0.0,0.0,0.0,0.0
26284000000,294,26284000000,imu_link,2.09131144093e-05,-0.379690102083,0.000717128968862,0.925113458808,0.0,0.0,0.0,0.0,0.0,0.0,0.0,0.0,0.0,0.00379821389863,-0.0037669212284,-0.000287890609832,0.0,0.0,0.0,0.0,0.0,0.0,0.0,0.0,0.0,6.798099878,0.00565025724054,6.94570880908,0.0,0.0,0.0,0.0,0.0,0.0,0.0,0.0,0.0
26288000000,295,26288000000,imu_link,2.80955883138e-05,-0.379696991346,0.000719621965837,0.925110629124,0.0,0.0,0.0,0.0,0.0,0.0,0.0,0.0,0.0,0.00379314412018,-0.00372642599762,-0.000209317935418,0.0,0.0,0.0,0.0,0.0,0.0,0.0,0.0,0.0,6.79776874869,0.00542487497191,6.9437215497,0.0,0.0,0.0,0.0,0.0,0.0,0.0,0.0,0.0
26292000000,296,26292000000,imu_link,3.56255397423e-05,-0.379703935708,0.000722287302,0.925107776553,0.0,0.0,0.0,0.0,0.0,0.0,0.0,0.0,0.0,0.00398657052766,-0.00375637944643,-0.000195560604737,0.0,0.0,0.0,0.0,0.0,0.0,0.0,0.0,0.0,6.79845580655,0.00522646564944,6.9456637669,0.0,0.0,0.0,0.0,0.0,0.0,0.0,0.0,0.0
26296000000,297,26296000000,imu_link,4.37612318323e-05,-0.379711125912,0.000725122998505,0.925104822785,0.0,0.0,0.0,0.0,0.0,0.0,0.0,0.0,0.0,0.00429901449058,-0.00388952291963,-0.000231719896651,0.0,0.0,0.0,0.0,0.0,0.0,0.0,0.0,0.0,6.79965335459,0.00512832091995,6.94881496785,0.0,0.0,0.0,0.0,0.0,0.0,0.0,0.0,0.0
26300000000,298,26300000000,imu_link,5.2644819224e-05,-0.379718463573,0.000728110316218,0.925101808184,0.0,0.0,0.0,0.0,0.0,0.0,0.0,0.0,0.0,0.00467368926395,-0.00396954743519,-0.000303553942785,0.0,0.0,0.0,0.0,0.0,0.0,0.0,0.0,0.0,6.79910636986,0.00509753923871,6.94607394378,0.0,0.0,0.0,0.0,0.0,0.0,0.0,0.0,0.0
26304000000,299,26304000000,imu_link,6.20020352244e-05,-0.379725707773,0.000731217216416,0.925098831657,0.0,0.0,0.0,0.0,0.0,0.0,0.0,0.0,0.0,0.00491550346712,-0.00391925689508,-0.000338180041357,0.0,0.0,0.0,0.0,0.0,0.0,0.0,0.0,0.0,6.79908704225,0.00509776584407,6.94317031554,0.0,0.0,0.0,0.0,0.0,0.0,0.0,0.0,0.0
26308000000,300,26308000000,imu_link,7.11174035979e-05,-0.379732662177,0.000734379293078,0.925095973889,0.0,0.0,0.0,0.0,0.0,0.0,0.0,0.0,0.0,0.00481421521968,-0.00376257417203,-0.000266792722337,0.0,0.0,0.0,0.0,0.0,0.0,0.0,0.0,0.0,6.80043810046,0.0050636434569,6.9432802659,0.0,0.0,0.0,0.0,0.0,0.0,0.0,0.0,0.0
26312000000,301,26312000000,imu_link,7.92353549116e-05,-0.379739425046,0.000737534221186,0.925093194673,0.0,0.0,0.0,0.0,0.0,0.0,0.0,0.0,0.0,0.00435157223275,-0.00365869985272,-8.07590087713e-05,0.0,0.0,0.0,0.0,0.0,0.0,0.0,0.0,0.0,6.80140421894,0.00499542065562,6.94561605689,0.0,0.0,0.0,0.0,0.0,0.0,0.0,0.0,0.0
26316000000,302,26316000000,imu_link,8.58012187712e-05,-0.379746200866,0.000740618992383,0.925090410203,0.0,0.0,0.0,0.0,0.0,0.0,0.0,0.0,0.0,0.00362033422237,-0.00366511795151,0.000181487000871,0.0,0.0,0.0,0.0,0.0,0.0,0.0,0.0,0.0,6.8037097474,0.00480216760936,6.95132000706,0.0,0.0,0.0,0.0,0.0,0.0,0.0,0.0,0.0
26320000000,303,26320000000,imu_link,9.08262838642e-05,-0.379753002919,0.000743637821087,0.925087615054,0.0,0.0,0.0,0.0,0.0,0.0,0.0,0.0,0.0,0.00289511517843,-0.00367871196268,0.000443546935013,0.0,0.0,0.0,0.0,0.0,0.0,0.0,0.0,0.0,6.80228185435,0.00444504132025,6.94836170712,0.0,0.0,0.0,0.0,0.0,0.0,0.0,0.0,0.0
26324000000,304,26324000000,imu_link,9.4764067202e-05,-0.3797597666,0.000746639891953,0.925084835688,0.0,0.0,0.0,0.0,0.0,0.0,0.0,0.0,0.0,0.002389031367,-0.00365756265925,0.000642237346099,0.0,0.0,0.0,0.0,0.0,0.0,0.0,0.0,0.0,6.80382363573,0.00401430267587,6.94991757127,0.0,0.0,0.0,0.0,0.0,0.0,0.0,0.0,0.0
26328000000,305,26328000000,imu_link,9.82277553228e-05,-0.379766639112,0.000749736369093,0.925082011534,0.0,0.0,0.0,0.0,0.0,0.0,0.0,0.0,0.0,0.0021876295644,-0.00371622476056,0.000775947273461,0.0,0.0,0.0,0.0,0.0,0.0,0.0,0.0,0.0,6.80507748881,0.00362671228181,6.95269179755,0.0,0.0,0.0,0.0,0.0,0.0,0.0,0.0,0.0
26332000000,306,26332000000,imu_link,0.00010177505715,-0.379773860966,0.000753040711547,0.925079043703,0.0,0.0,0.0,0.0,0.0,0.0,0.0,0.0,0.0,0.00226565058787,-0.00390511248379,0.000856287674478,0.0,0.0,0.0,0.0,0.0,0.0,0.0,0.0,0.0,6.80609252523,0.00335612661862,6.95587526956,0.0,0.0,0.0,0.0,0.0,0.0,0.0,0.0,0.0
26336000000,307,26336000000,imu_link,0.000105884959702,-0.379781486572,0.000756607846783,0.925075909745,0.0,0.0,0.0,0.0,0.0,0.0,0.0,0.0,0.0,0.00257563300542,-0.00412360792994,0.000871092293512,0.0,0.0,0.0,0.0,0.0,0.0,0.0,0.0,0.0,6.8064922996,0.0031798144478,6.95667460582,0.0,0.0,0.0,0.0,0.0,0.0,0.0,0.0,0.0
26340000000,308,26340000000,imu_link,0.000110781805885,-0.37978953829,0.000760435415868,0.925072600432,0.0,0.0,0.0,0.0,0.0,0.0,0.0,0.0,0.0,0.00298892636378,-0.00435428321261,0.000842208419447,0.0,0.0,0.0,0.0,0.0,0.0,0.0,0.0,0.0,6.80596468568,0.00312056331885,6.95551340992,0.0,0.0,0.0,0.0,0.0,0.0,0.0,0.0,0.0
26344000000,309,26344000000,imu_link,0.000116501547503,-0.379797922675,0.000764507364318,0.925069154111,0.0,0.0,0.0,0.0,0.0,0.0,0.0,0.0,0.0,0.00341583284071,-0.0045344698841,0.0007990497277,0.0,0.0,0.0,0.0,0.0,0.0,0.0,0.0,0.0,6.80535985622,0.00313444485452,6.95263233151,0.0,0.0,0.0,0.0,0.0,0.0,0.0,0.0,0.0
26348000000,310,26348000000,imu_link,0.000123042642365,-0.379806374165,0.00076880922569,0.925065679796,0.0,0.0,0.0,0.0,0.0,0.0,0.0,0.0,0.0,0.00383937332018,-0.00457112505342,0.000749432885871,0.0,0.0,0.0,0.0,0.0,0.0,0.0,0.0,0.0,6.8048155901,0.00313217907965,6.94833735248,0.0,0.0,0.0,0.0,0.0,0.0,0.0,0.0,0.0
26352000000,311,26352000000,imu_link,0.000130387739132,-0.379814595987,0.000773332175774,0.925062299325,0.0,0.0,0.0,0.0,0.0,0.0,0.0,0.0,0.0,0.00425331856828,-0.00444737003271,0.000698960947551,0.0,0.0,0.0,0.0,0.0,0.0,0.0,0.0,0.0,6.80516989326,0.00308484373384,6.94551851307,0.0,0.0,0.0,0.0,0.0,0.0,0.0,0.0,0.0
26356000000,312,26356000000,imu_link,0.000138335907317,-0.379822275328,0.000778034854257,0.925059141185,0.0,0.0,0.0,0.0,0.0,0.0,0.0,0.0,0.0,0.0045665848833,-0.0041544548932,0.00066744193263,0.0,0.0,0.0,0.0,0.0,0.0,0.0,0.0,0.0,6.80685556569,0.00305744651381,6.94513651015,0.0,0.0,0.0,0.0,0.0,0.0,0.0,0.0,0.0
26360000000,313,26360000000,imu_link,0.000146302298663,-0.379829230011,0.000782833289403,0.92505628034,0.0,0.0,0.0,0.0,0.0,0.0,0.0,0.0,0.0,0.00459346023227,-0.00376281975708,0.00070810566387,0.0,0.0,0.0,0.0,0.0,0.0,0.0,0.0,0.0,6.80815673735,0.0030879363608,6.94536212988,0.0,0.0,0.0,0.0,0.0,0.0,0.0,0.0,0.0
26364000000,314,26364000000,imu_link,0.000153447532358,-0.379835420928,0.000787632317731,0.925053733087,0.0,0.0,0.0,0.0,0.0,0.0,0.0,0.0,0.0,0.00421404037576,-0.00334968008459,0.000864151250899,0.0,0.0,0.0,0.0,0.0,0.0,0.0,0.0,0.0,6.81053239401,0.003091447129,6.94920527723,0.0,0.0,0.0,0.0,0.0,0.0,0.0,0.0,0.0
26368000000,315,26368000000,imu_link,0.000159031421842,-0.379841006592,0.000792331665604,0.925051434587,0.0,0.0,0.0,0.0,0.0,0.0,0.0,0.0,0.0,0.00347316492038,-0.00302188366931,0.00111442887985,0.0,0.0,0.0,0.0,0.0,0.0,0.0,0.0,0.0,6.81123907869,0.00296767999584,6.95167689654,0.0,0.0,0.0,0.0,0.0,0.0,0.0,0.0,0.0
26372000000,316,26372000000,imu_link,0.000162880999766,-0.379846173845,0.000796919628005,0.925049308201,0.0,0.0,0.0,0.0,0.0,0.0,0.0,0.0,0.0,0.0026499989107,-0.00279499204694,0.00139219010271,0.0,0.0,0.0,0.0,0.0,0.0,0.0,0.0,0.0,6.81041314201,0.00264280067827,6.95132733788,0.0,0.0,0.0,0.0,0.0,0.0,0.0,0.0,0.0
26376000000,317,26376000000,imu_link,0.000165304935625,-0.379851083681,0.000801434067243,0.925047287766,0.0,0.0,0.0,0.0,0.0,0.0,0.0,0.0,0.0,0.0019767345035,-0.00265524565562,0.00162888298793,0.0,0.0,0.0,0.0,0.0,0.0,0.0,0.0,0.0,6.80997946229,0.00223149451507,6.95136145251,0.0,0.0,0.0,0.0,0.0,0.0,0.0,0.0,0.0
26380000000,318,26380000000,imu_link,0.000166882177235,-0.379855761492,0.000805916586775,0.925045362731,0.0,0.0,0.0,0.0,0.0,0.0,0.0,0.0,0.0,0.00157914111828,-0.00252947287437,0.00177487082743,0.0,0.0,0.0,0.0,0.0,0.0,0.0,0.0,0.0,6.81038012381,0.00182615436154,6.95211291032,0.0,0.0,0.0,0.0,0.0,0.0,0.0,0.0,0.0
26384000000,319,26384000000,imu_link,0.000168009007918,-0.379860175211,0.000810358031768,0.925043546208,0.0,0.0,0.0,0.0,0.0,0.0,0.0,0.0,0.0,0.00136311201225,-0.00238653682376,0.00184135275206,0.0,0.0,0.0,0.0,0.0,0.0,0.0,0.0,0.0,6.81010045578,0.00153726994193,6.95097197452,0.0,0.0,0.0,0.0,0.0,0.0,0.0,0.0,0.0
26388000000,320,26388000000,imu_link,0.000168719360181,-0.37986420936,0.000814690408055,0.925041885679,0.0,0.0,0.0,0.0,0.0,0.0,0.0,0.0,0.0,0.00114990693526,-0.00218119010347,0.0018699127926,0.0,0.0,0.0,0.0,0.0,0.0,0.0,0.0,0.0,6.81112981276,0.00136351097172,6.95127539713,0.0,0.0,0.0,0.0,0.0,0.0,0.0,0.0,0.0
26392000000,321,26392000000,imu_link,0.00016872695836,-0.379867672579,0.000818841967054,0.92504045985,0.0,0.0,0.0,0.0,0.0,0.0,0.0,0.0,0.0,0.000790738212013,-0.0018722750951,0.0019196128054,0.0,0.0,0.0,0.0,0.0,0.0,0.0,0.0,0.0,6.81120319702,0.00125807024384,6.94885037885,0.0,0.0,0.0,0.0,0.0,0.0,0.0,0.0,0.0
26396000000,322,26396000000,imu_link,0.000167789496273,-0.379870388885,0.000822795563026,0.925039341057,0.0,0.0,0.0,0.0,0.0,0.0,0.0,0.0,0.0,0.000316308742461,-0.00146812601664,0.00200736110285,0.0,0.0,0.0,0.0,0.0,0.0,0.0,0.0,0.0,6.81083954309,0.00105823929182,6.94610560848,0.0,0.0,0.0,0.0,0.0,0.0,0.0,0.0,0.0
26400000000,323,26400000000,imu_link,0.000165781347644,-0.379872371726,0.00082659982857,0.925038523765,0.0,0.0,0.0,0.0,0.0,0.0,0.0,0.0,0.0,-0.000206991495985,-0.0010711897957,0.00214146832829,0.0,0.0,0.0,0.0,0.0,0.0,0.0,0.0,0.0,6.81090992077,0.000794083040581,6.94617505872,0.0,0.0,0.0,0.0,0.0,0.0,0.0,0.0,0.0
26404000000,324,26404000000,imu_link,0.000162846632993,-0.379874022949,0.000830335854022,0.925037842854,0.0,0.0,0.0,0.0,0.0,0.0,0.0,0.0,0.0,-0.000648381639073,-0.000891529377333,0.00228581053315,0.0,0.0,0.0,0.0,0.0,0.0,0.0,0.0,0.0,6.81049584511,0.000526806587999,6.94863841364,0.0,0.0,0.0,0.0,0.0,0.0,0.0,0.0,0.0
26408000000,325,26408000000,imu_link,0.000159304740495,-0.379875774845,0.00083403377659,0.925037120712,0.0,0.0,0.0,0.0,0.0,0.0,0.0,0.0,0.0,-0.000936488468613,-0.000945675100866,0.0023835380892,0.0,0.0,0.0,0.0,0.0,0.0,0.0,0.0,0.0,6.81058230289,0.000276169955914,6.9522499725,0.0,0.0,0.0,0.0,0.0,0.0,0.0,0.0,0.0
26412000000,326,26412000000,imu_link,0.000155512916566,-0.379878051013,0.000837684355131,0.925036183324,0.0,0.0,0.0,0.0,0.0,0.0,0.0,0.0,0.0,-0.0010612803044,-0.0012289436448,0.00240924356655,0.0,0.0,0.0,0.0,0.0,0.0,0.0,0.0,0.0,6.81177760236,7.22559998257e-05,6.95765850908,0.0,0.0,0.0,0.0,0.0,0.0,0.0,0.0,0.0
26416000000,327,26416000000,imu_link,0.000151494218573,-0.379881054767,0.000841256890685,0.925034947213,0.0,0.0,0.0,0.0,0.0,0.0,0.0,0.0,0.0,-0.0011813185877,-0.00162211488899,0.00241642120419,0.0,0.0,0.0,0.0,0.0,0.0,0.0,0.0,0.0,6.81155550346,-2.53369744296e-05,6.95826900278,0.0,0.0,0.0,0.0,0.0,0.0,0.0,0.0,0.0
26420000000,328,26420000000,imu_link,0.000147053074727,-0.379884773108,0.000844711700765,0.925033417774,0.0,0.0,0.0,0.0,0.0,0.0,0.0,0.0,0.0,-0.00139934637286,-0.0020081708568,0.00244238821383,0.0,0.0,0.0,0.0,0.0,0.0,0.0,0.0,0.0,6.81230116115,-8.66009585782e-05,6.95846612494,0.0,0.0,0.0,0.0,0.0,0.0,0.0,0.0,0.0
26424000000,329,26424000000,imu_link,0.000142052794713,-0.379889056876,0.000848024356884,0.925031656292,0.0,0.0,0.0,0.0,0.0,0.0,0.0,0.0,0.0,-0.0016851790051,-0.00231353880852,0.0024829828683,0.0,0.0,0.0,0.0,0.0,0.0,0.0,0.0,0.0,6.81149680477,-0.000169946915003,6.95482597386,0.0,0.0,0.0,0.0,0.0,0.0,0.0,0.0,0.0
26428000000,330,26428000000,imu_link,0.000136645888364,-0.379893554102,0.00085120122369,0.925029807269,0.0,0.0,0.0,0.0,0.0,0.0,0.0,0.0,0.0,-0.00189912684973,-0.00242873168518,0.00249746688818,0.0,0.0,0.0,0.0,0.0,0.0,0.0,0.0,0.0,6.81150007707,-0.000328645260227,6.95074736857,0.0,0.0,0.0,0.0,0.0,0.0,0.0,0.0,0.0
26432000000,331,26432000000,imu_link,0.000131066603493,-0.379897910163,0.00085428317767,0.925028016265,0.0,0.0,0.0,0.0,0.0,0.0,0.0,0.0,0.0,-0.00199682675446,-0.00235235349009,0.00248627669864,0.0,0.0,0.0,0.0,0.0,0.0,0.0,0.0,0.0,6.81222867882,-0.000472581651311,6.94794733301,0.0,0.0,0.0,0.0,0.0,0.0,0.0,0.0,0.0
26436000000,332,26436000000,imu_link,0.00012557684312,-0.379901918437,0.000857271354784,0.925026368102,0.0,0.0,0.0,0.0,0.0,0.0,0.0,0.0,0.0,-0.00197309404467,-0.00216440896178,0.00242581469518,0.0,0.0,0.0,0.0,0.0,0.0,0.0,0.0,0.0,6.81198981399,-0.000581499748687,6.94513055991,0.0,0.0,0.0,0.0,0.0,0.0,0.0,0.0,0.0
26440000000,333,26440000000,imu_link,0.00012026580024,-0.379905632726,0.00086007492629,0.925024840764,0.0,0.0,0.0,0.0,0.0,0.0,0.0,0.0,0.0,-0.00192538243381,-0.00200557418465,0.00230641435936,0.0,0.0,0.0,0.0,0.0,0.0,0.0,0.0,0.0,6.81307155242,-0.000651594701593,6.94722776033,0.0,0.0,0.0,0.0,0.0,0.0,0.0,0.0,0.0
26444000000,334,26444000000,imu_link,0.000115029163257,-0.379909372494,0.000862566057203,0.925023303187,0.0,0.0,0.0,0.0,0.0,0.0,0.0,0.0,0.0,-0.00195032809405,-0.00201935454922,0.00214777903008,0.0,0.0,0.0,0.0,0.0,0.0,0.0,0.0,0.0,6.81429610927,-0.000682229805606,6.95198036415,0.0,0.0,0.0,0.0,0.0,0.0,0.0,0.0,0.0
26448000000,335,26448000000,imu_link,0.000109743788384,-0.379913597272,0.000864690669009,0.925021566707,0.0,0.0,0.0,0.0,0.0,0.0,0.0,0.0,0.0,-0.00204268969519,-0.0022814600362,0.00198763134187,0.0,0.0,0.0,0.0,0.0,0.0,0.0,0.0,0.0,6.81422931577,-0.000673547069619,6.95566794501,0.0,0.0,0.0,0.0,0.0,0.0,0.0,0.0,0.0
26452000000,336,26452000000,imu_link,0.000104408925878,-0.379918539675,0.000866439972311,0.925019535789,0.0,0.0,0.0,0.0,0.0,0.0,0.0,0.0,0.0,-0.00213716476644,-0.00266929899553,0.00182361430032,0.0,0.0,0.0,0.0,0.0,0.0,0.0,0.0,0.0,6.81350159085,-0.000674261466306,6.95588635253,0.0,0.0,0.0,0.0,0.0,0.0,0.0,0.0,0.0
26456000000,337,26456000000,imu_link,9.91624917496e-05,-0.379923935675,0.000867845362724,0.925017318817,0.0,0.0,0.0,0.0,0.0,0.0,0.0,0.0,0.0,-0.00216178201355,-0.00291449076556,0.00164785772175,0.0,0.0,0.0,0.0,0.0,0.0,0.0,0.0,0.0,6.81313454186,-0.000703609366156,6.95198223618,0.0,0.0,0.0,0.0,0.0,0.0,0.0,0.0,0.0
26460000000,338,26460000000,imu_link,9.41149935839e-05,-0.379929065842,0.000868933359345,0.92501521124,0.0,0.0,0.0,0.0,0.0,0.0,0.0,0.0,0.0,-0.00212995523006,-0.00277086172143,0.00146320942876,0.0,0.0,0.0,0.0,0.0,0.0,0.0,0.0,0.0,6.81455283139,-0.000706327237865,6.9469739077,0.0,0.0,0.0,0.0,0.0,0.0,0.0,0.0,0.0
26464000000,339,26464000000,imu_link,8.92716935491e-05,-0.37993322714,0.000869745896023,0.925013501787,0.0,0.0,0.0,0.0,0.0,0.0,0.0,0.0,0.0,-0.00208743745469,-0.00224722500235,0.0012967981431,0.0,0.0,0.0,0.0,0.0,0.0,0.0,0.0,0.0,6.81587465249,-0.000684180761423,6.94219413802,0.0,0.0,0.0,0.0,0.0,0.0,0.0,0.0,0.0
26468000000,340,26468000000,imu_link,8.4695531578e-05,-0.379936218574,0.000870336397196,0.925012272976,0.0,0.0,0.0,0.0,0.0,0.0,0.0,0.0,0.0,-0.00200557634158,-0.00161497525735,0.00114309667357,0.0,0.0,0.0,0.0,0.0,0.0,0.0,0.0,0.0,6.8153844452,-0.000668295418739,6.93915018034,0.0,0.0,0.0,0.0,0.0,0.0,0.0,0.0,0.0
26472000000,341,26472000000,imu_link,8.04920032377e-05,-0.379938375299,0.000870773610641,0.925011387092,0.0,0.0,0.0,0.0,0.0,0.0,0.0,0.0,0.0,-0.0018620020635,-0.00116394028023,0.00100122707356,0.0,0.0,0.0,0.0,0.0,0.0,0.0,0.0,0.0,6.81508797329,-0.000666281975178,6.94157802665,0.0,0.0,0.0,0.0,0.0,0.0,0.0,0.0,0.0
26476000000,342,26476000000,imu_link,7.6905547904e-05,-0.379940485833,0.00087111178548,0.925010520197,0.0,0.0,0.0,0.0,0.0,0.0,0.0,0.0,0.0,-0.00159539722203,-0.00113924265434,0.000838186169947,0.0,0.0,0.0,0.0,0.0,0.0,0.0,0.0,0.0,6.81623765866,-0.000672620274468,6.95060865542,0.0,0.0,0.0,0.0,0.0,0.0,0.0,0.0,0.0
26480000000,343,26480000000,imu_link,7.41506884676e-05,-0.379943354211,0.00087142376499,0.92500934196,0.0,0.0,0.0,0.0,0.0,0.0,0.0,0.0,0.0,-0.0012160741894,-0.00154925790048,0.000668256965643,0.0,0.0,0.0,0.0,0.0,0.0,0.0,0.0,0.0,6.81596957152,-0.000638870671304,6.95686305298,0.0,0.0,0.0,0.0,0.0,0.0,0.0,0.0,0.0
26484000000,344,26484000000,imu_link,7.23754188942e-05,-0.379947424452,0.000871795085502,0.925007669908,0.0,0.0,0.0,0.0,0.0,0.0,0.0,0.0,0.0,-0.00075224154964,-0.00219936044459,0.000509867848044,0.0,0.0,0.0,0.0,0.0,0.0,0.0,0.0,0.0,6.81623248047,-0.000561270084492,6.96062811095,0.0,0.0,0.0,0.0,0.0,0.0,0.0,0.0,0.0
26488000000,345,26488000000,imu_link,7.15059429468e-05,-0.37995257851,0.000872246079513,0.925005552501,0.0,0.0,0.0,0.0,0.0,0.0,0.0,0.0,0.0,-0.000318628970908,-0.00278562811667,0.000374873519128,0.0,0.0,0.0,0.0,0.0,0.0,0.0,0.0,0.0,6.81401564567,-0.000450656358244,6.95455549494,0.0,0.0,0.0,0.0,0.0,0.0,0.0,0.0,0.0
26492000000,346,26492000000,imu_link,7.12417428306e-05,-0.379958309842,0.00087276143646,0.925003197829,0.0,0.0,0.0,0.0,0.0,0.0,0.0,0.0,0.0,-2.67030661796e-05,-0.00309795496173,0.000289777614976,0.0,0.0,0.0,0.0,0.0,0.0,0.0,0.0,0.0,6.81553633211,-0.000287473689744,6.95170404193,0.0,0.0,0.0,0.0,0.0,0.0,0.0,0.0,0.0
26496000000,347,26496000000,imu_link,7.12786139351e-05,-0.379964103309,0.000873310637112,0.925000817537,0.0,0.0,0.0,0.0,0.0,0.0,0.0,0.0,0.0,0.000118946251358,-0.00313169019773,0.000248246520559,0.0,0.0,0.0,0.0,0.0,0.0,0.0,0.0,0.0,6.81671776347,-0.000142429796976,6.94832227211,0.0,0.0,0.0,0.0,0.0,0.0,0.0,0.0,0.0
26500000000,348,26500000000,imu_link,7.13294775045e-05,-0.379969774455,0.000873851284482,0.924998487456,0.0,0.0,0.0,0.0,0.0,0.0,0.0,0.0,0.0,0.000123844424488,-0.00306558406672,0.000241606022389,0.0,0.0,0.0,0.0,0.0,0.0,0.0,0.0,0.0,6.8154115272,-6.71168680833e-05,6.94403534097,0.0,0.0,0.0,0.0,0.0,0.0,0.0,0.0,0.0
26504000000,349,26504000000,imu_link,7.12500869663e-05,-0.379975193857,0.000874345527776,0.924996260802,0.0,0.0,0.0,0.0,0.0,0.0,0.0,0.0,0.0,5.48922303463e-05,-0.00292944734091,0.00024483631627,0.0,0.0,0.0,0.0,0.0,0.0,0.0,0.0,0.0,6.81340970375,-6.42245823721e-05,6.93886902371,0.0,0.0,0.0,0.0,0.0,0.0,0.0,0.0,0.0
26508000000,350,26508000000,imu_link,7.12123367114e-05,-0.379980055786,0.000874776039272,0.924994263172,0.0,0.0,0.0,0.0,0.0,0.0,0.0,0.0,0.0,6.22780847759e-05,-0.0026281262737,0.000207329357847,0.0,0.0,0.0,0.0,0.0,0.0,0.0,0.0,0.0,6.81385743939,-0.000141698235369,6.93653108221,0.0,0.0,0.0,0.0,0.0,0.0,0.0,0.0,0.0
26512000000,351,26512000000,imu_link,7.13654608463e-05,-0.379983938867,0.000875127134069,0.92499266768,0.0,0.0,0.0,0.0,0.0,0.0,0.0,0.0,0.0,0.000135882379571,-0.00209909583832,0.000134124388384,0.0,0.0,0.0,0.0,0.0,0.0,0.0,0.0,0.0,6.81390166771,-0.000185724645782,6.93230914167,0.0,0.0,0.0,0.0,0.0,0.0,0.0,0.0,0.0
26516000000,352,26516000000,imu_link,7.16655075154e-05,-0.379986520797,0.000875389887724,0.924991606756,0.0,0.0,0.0,0.0,0.0,0.0,0.0,0.0,0.0,0.000187599667281,-0.00139582186715,6.50724966453e-05,0.0,0.0,0.0,0.0,0.0,0.0,0.0,0.0,0.0,6.81319936807,-0.000184625760481,6.92776927735,0.0,0.0,0.0,0.0,0.0,0.0,0.0,0.0,0.0
26520000000,353,26520000000,imu_link,7.17557350918e-05,-0.379987783072,0.000875534389022,0.924991088069,0.0,0.0,0.0,0.0,0.0,0.0,0.0,0.0,0.0,6.86502425765e-05,-0.000682378480811,4.99608700407e-05,0.0,0.0,0.0,0.0,0.0,0.0,0.0,0.0,0.0,6.81329691251,-0.000142970055238,6.92753049299,0.0,0.0,0.0,0.0,0.0,0.0,0.0,0.0,0.0
26524000000,354,26524000000,imu_link,7.13029432775e-05,-0.379987873763,0.000875556340005,0.924991050827,0.0,0.0,0.0,0.0,0.0,0.0,0.0,0.0,0.0,-0.000205282009151,-4.88208760535e-05,9.61994676878e-05,0.0,0.0,0.0,0.0,0.0,0.0,0.0,0.0,0.0,6.81293161467,-0.000148957330905,6.92833625555,0.0,0.0,0.0,0.0,0.0,0.0,0.0,0.0,0.0
26528000000,355,26528000000,imu_link,7.00686298181e-05,-0.379986895921,0.000875452954262,0.924991452718,0.0,0.0,0.0,0.0,0.0,0.0,0.0,0.0,0.0,-0.000590093366633,0.0005291407455,0.000186485829481,0.0,0.0,0.0,0.0,0.0,0.0,0.0,0.0,0.0,6.81295970404,-0.000206123068382,6.92903654084,0.0,0.0,0.0,0.0,0.0,0.0,0.0,0.0,0.0
26532000000,356,26532000000,imu_link,6.80952168593e-05,-0.379984867736,0.000875239013386,0.924992286244,0.0,0.0,0.0,0.0,0.0,0.0,0.0,0.0,0.0,-0.000952483835956,0.00109724809901,0.000275552878785,0.0,0.0,0.0,0.0,0.0,0.0,0.0,0.0,0.0,6.8119113237,-0.000392100552752,6.92695327912,0.0,0.0,0.0,0.0,0.0,0.0,0.0,0.0,0.0
26536000000,357,26536000000,imu_link,6.56347072576e-05,-0.379981620768,0.000874945066624,0.924993620541,0.0,0.0,0.0,0.0,0.0,0.0,0.0,0.0,0.0,-0.00119244835495,0.00175628308935,0.000330834498068,0.0,0.0,0.0,0.0,0.0,0.0,0.0,0.0,0.0,6.81230049572,-0.000586518158177,6.92576744438,0.0,0.0,0.0,0.0,0.0,0.0,0.0,0.0,0.0
26540000000,358,26540000000,imu_link,6.28812383258e-05,-0.379977026828,0.000874595966737,0.924995508211,0.0,0.0,0.0,0.0,0.0,0.0,0.0,0.0,0.0,-0.00133784859414,0.00248451578947,0.000360699645006,0.0,0.0,0.0,0.0,0.0,0.0,0.0,0.0,0.0,6.81244221481,-0.000673138858508,6.9245416806,0.0,0.0,0.0,0.0,0.0,0.0,0.0,0.0,0.0
26544000000,359,26544000000,imu_link,5.98295723495e-05,-0.379970986891,0.000874211889406,0.924997989887,0.0,0.0,0.0,0.0,0.0,0.0,0.0,0.0,0.0,-0.00148179571469,0.00326626960037,0.000400871448032,0.0,0.0,0.0,0.0,0.0,0.0,0.0,0.0,0.0,6.81240233608,-0.000709308771501,6.92322656524,0.0,0.0,0.0,0.0,0.0,0.0,0.0,0.0,0.0
26548000000,360,26548000000,imu_link,5.63370202977e-05,-0.379963653395,0.000873828737203,0.92500100289,0.0,0.0,0.0,0.0,0.0,0.0,0.0,0.0,0.0,-0.00168497979299,0.00396567650808,0.000484790334424,0.0,0.0,0.0,0.0,0.0,0.0,0.0,0.0,0.0,6.81303860181,-0.000736867506319,6.92550111899,0.0,0.0,0.0,0.0,0.0,0.0,0.0,0.0,0.0
26552000000,361,26552000000,imu_link,5.20370920545e-05,-0.379955507658,0.000873442419102,0.925004349498,0.0,0.0,0.0,0.0,0.0,0.0,0.0,0.0,0.0,-0.00205864766678,0.00440506981015,0.000636544272562,0.0,0.0,0.0,0.0,0.0,0.0,0.0,0.0,0.0,6.81567586287,-0.000757485040723,6.93412107384,0.0,0.0,0.0,0.0,0.0,0.0,0.0,0.0,0.0
26556000000,362,26556000000,imu_link,4.66166047968e-05,-0.379947232262,0.000873043180317,0.925007749329,0.0,0.0,0.0,0.0,0.0,0.0,0.0,0.0,0.0,-0.00257930805004,0.00447563806066,0.000843423095683,0.0,0.0,0.0,0.0,0.0,0.0,0.0,0.0,0.0,6.81771944055,-0.000826457645036,6.94335038192,0.0,0.0,0.0,0.0,0.0,0.0,0.0,0.0,0.0
26560000000,363,26560000000,imu_link,3.97127502148e-05,-0.379939545127,0.000872598966931,0.925010907526,0.0,0.0,0.0,0.0,0.0,0.0,0.0,0.0,0.0,-0.00327416632963,0.00415830702895,0.00110454201288,0.0,0.0,0.0,0.0,0.0,0.0,0.0,0.0,0.0,6.81814844273,-0.000929036429099,6.95002546167,0.0,0.0,0.0,0.0,0.0,0.0,0.0,0.0,0.0
26564000000,364,26564000000,imu_link,3.12041343284e-05,-0.379933007376,0.000872081581889,0.925013593633,0.0,0.0,0.0,0.0,0.0,0.0,0.0,0.0,0.0,-0.00403076968935,0.00353772673106,0.00137578465812,0.0,0.0,0.0,0.0,0.0,0.0,0.0,0.0,0.0,6.81767720194,-0.00113355955358,6.95353728725,0.0,0.0,0.0,0.0,0.0,0.0,0.0,0.0,0.0
26568000000,365,26568000000,imu_link,2.13203529178e-05,-0.379927882496,0.000871496816857,0.925015699402,0.0,0.0,0.0,0.0,0.0,0.0,0.0,0.0,0.0,-0.0046802000475,0.00277461773605,0.00160613143604,0.0,0.0,0.0,0.0,0.0,0.0,0.0,0.0,0.0,6.81759215794,-0.00141316351914,6.95510573492,0.0,0.0,0.0,0.0,0.0,0.0,0.0,0.0,0.0
26572000000,366,26572000000,imu_link,1.04721347848e-05,-0.379924022036,0.000870859363584,0.925017285771,0.0,0.0,0.0,0.0,0.0,0.0,0.0,0.0,0.0,-0.00513681389972,0.0020915664084,0.00176521071871,0.0,0.0,0.0,0.0,0.0,0.0,0.0,0.0,0.0,6.81768032889,-0.00169173823116,6.95314633729,0.0,0.0,0.0,0.0,0.0,0.0,0.0,0.0,0.0
26576000000,367,26576000000,imu_link,-8.68548259683e-07,-0.379921098277,0.000870201115574,0.925018487293,0.0,0.0,0.0,0.0,0.0,0.0,0.0,0.0,0.0,-0.00536893924049,0.00158544165163,0.00184931507646,0.0,0.0,0.0,0.0,0.0,0.0,0.0,0.0,0.0,6.81908240305,-0.00191189417831,6.95124960098,0.0,0.0,0.0,0.0,0.0,0.0,0.0,0.0,0.0
26580000000,368,26580000000,imu_link,-1.24960530215e-05,-0.37991875858,0.000869554586609,0.925019448767,0.0,0.0,0.0,0.0,0.0,0.0,0.0,0.0,0.0,-0.00549962500941,0.00126983318924,0.00190932424517,0.0,0.0,0.0,0.0,0.0,0.0,0.0,0.0,0.0,6.81846329648,-0.00199574007614,6.94566742603,0.0,0.0,0.0,0.0,0.0,0.0,0.0,0.0,0.0
26584000000,369,26584000000,imu_link,-2.44948457608e-05,-0.379916904011,0.000868947489461,0.925020210794,0.0,0.0,0.0,0.0,0.0,0.0,0.0,0.0,0.0,-0.00566407103464,0.00100773112755,0.00199817516231,0.0,0.0,0.0,0.0,0.0,0.0,0.0,0.0,0.0,6.81813391918,-0.00195998727798,6.94353583202,0.0,0.0,0.0,0.0,0.0,0.0,0.0,0.0,0.0
26588000000,370,26588000000,imu_link,-3.71689532178e-05,-0.379915755036,0.000868390517762,0.925020682791,0.0,0.0,0.0,0.0,0.0,0.0,0.0,0.0,0.0,-0.00596719927803,0.000626585650698,0.00214975779535,0.0,0.0,0.0,0.0,0.0,0.0,0.0,0.0,0.0,6.8192908591,-0.00190580132891,6.94710327867,0.0,0.0,0.0,0.0,0.0,0.0,0.0,0.0,0.0
26592000000,371,26592000000,imu_link,-5.0706945388e-05,-0.379915688824,0.000867861176485,0.925020709839,0.0,0.0,0.0,0.0,0.0,0.0,0.0,0.0,0.0,-0.00636198467491,4.16495346338e-05,0.00232681193074,0.0,0.0,0.0,0.0,0.0,0.0,0.0,0.0,0.0,6.81890247946,-0.00192292042205,6.94903510346,0.0,0.0,0.0,0.0,0.0,0.0,0.0,0.0,0.0
26596000000,372,26596000000,imu_link,-6.48822248798e-05,-0.379916854134,0.000867369250504,0.925020230809,0.0,0.0,0.0,0.0,0.0,0.0,0.0,0.0,0.0,-0.00665017655692,-0.000623799501571,0.00246536299727,0.0,0.0,0.0,0.0,0.0,0.0,0.0,0.0,0.0,6.81820868721,-0.00205095556796,6.94829121102,0.0,0.0,0.0,0.0,0.0,0.0,0.0,0.0,0.0
26600000000,373,26600000000,imu_link,-7.91745720689e-05,-0.379919007867,0.000866927079336,0.925019345544,0.0,0.0,0.0,0.0,0.0,0.0,0.0,0.0,0.0,-0.00669531204822,-0.00115807450769,0.00251075721004,0.0,0.0,0.0,0.0,0.0,0.0,0.0,0.0,0.0,6.81932627288,-0.00218962805014,6.94731340442,0.0,0.0,0.0,0.0,0.0,0.0,0.0,0.0,0.0
26604000000,374,26604000000,imu_link,-9.30775568079e-05,-0.379921654491,0.000866549426876,0.925018257591,0.0,0.0,0.0,0.0,0.0,0.0,0.0,0.0,0.0,-0.00650319388098,-0.00142471475562,0.00246670298369,0.0,0.0,0.0,0.0,0.0,0.0,0.0,0.0,0.0,6.82120335649,-0.00225618978325,6.94497748356,0.0,0.0,0.0,0.0,0.0,0.0,0.0,0.0,0.0
26608000000,375,26608000000,imu_link,-0.000106301967164,-0.379924359797,0.000866225978323,0.925017145347,0.0,0.0,0.0,0.0,0.0,0.0,0.0,0.0,0.0,-0.00617907697096,-0.00145676662495,0.00236287802902,0.0,0.0,0.0,0.0,0.0,0.0,0.0,0.0,0.0,6.82154225128,-0.00223578664596,6.94090930768,0.0,0.0,0.0,0.0,0.0,0.0,0.0,0.0,0.0
26612000000,376,26612000000,imu_link,-0.000118681240672,-0.379926891336,0.000865933791823,0.925016104353,0.0,0.0,0.0,0.0,0.0,0.0,0.0,0.0,0.0,-0.00578217627853,-0.00136323085802,0.0022167713338,0.0,0.0,0.0,0.0,0.0,0.0,0.0,0.0,0.0,6.82102018262,-0.0021603744524,6.93742216445,0.0,0.0,0.0,0.0,0.0,0.0,0.0,0.0,0.0
26616000000,377,26616000000,imu_link,-0.000130076505386,-0.379929280454,0.000865653252059,0.925015121811,0.0,0.0,0.0,0.0,0.0,0.0,0.0,0.0,0.0,-0.00532478670068,-0.00128668296381,0.00203521548657,0.0,0.0,0.0,0.0,0.0,0.0,0.0,0.0,0.0,6.82001098482,-0.00206811840608,6.9356582851,0.0,0.0,0.0,0.0,0.0,0.0,0.0,0.0,0.0
26620000000,378,26620000000,imu_link,-0.000140309954051,-0.379931698762,0.000865391885857,0.92501412729,0.0,0.0,0.0,0.0,0.0,0.0,0.0,0.0,0.0,-0.00478380910819,-0.00130296285995,0.00182338272197,0.0,0.0,0.0,0.0,0.0,0.0,0.0,0.0,0.0,6.8192810458,-0.00194256900012,6.93524610059,0.0,0.0,0.0,0.0,0.0,0.0,0.0,0.0,0.0
26624000000,379,26624000000,imu_link,-0.000149230023759,-0.379934276359,0.00086516131287,0.925013067407,0.0,0.0,0.0,0.0,0.0,0.0,0.0,0.0,0.0,-0.00417058591383,-0.00138962285749,0.00158814475897,0.0,0.0,0.0,0.0,0.0,0.0,0.0,0.0,0.0,6.81868916598,-0.00178576596146,6.9345806765,0.0,0.0,0.0,0.0,0.0,0.0,0.0,0.0,0.0
26628000000,380,26628000000,imu_link,-0.000156930363104,-0.379936975496,0.000864951692521,0.925011957697,0.0,0.0,0.0,0.0,0.0,0.0,0.0,0.0,0.0,-0.00360252863185,-0.00145583005579,0.00136613929063,0.0,0.0,0.0,0.0,0.0,0.0,0.0,0.0,0.0,6.8180792599,-0.00153361745709,6.93258587999,0.0,0.0,0.0,0.0,0.0,0.0,0.0,0.0,0.0
26632000000,381,26632000000,imu_link,-0.00016391504554,-0.379939496272,0.00086472358676,0.925010921318,0.0,0.0,0.0,0.0,0.0,0.0,0.0,0.0,0.0,-0.00327496178821,-0.00135971461074,0.00122161969752,0.0,0.0,0.0,0.0,0.0,0.0,0.0,0.0,0.0,6.81977004283,-0.00121907040939,6.93248320559,0.0,0.0,0.0,0.0,0.0,0.0,0.0,0.0,0.0
26636000000,382,26636000000,imu_link,-0.000170793959769,-0.379941554577,0.000864446403381,0.925010074901,0.0,0.0,0.0,0.0,0.0,0.0,0.0,0.0,0.0,-0.00323515115349,-0.00110977420566,0.00117878404197,0.0,0.0,0.0,0.0,0.0,0.0,0.0,0.0,0.0,6.82134993945,-0.00100561288528,6.93231695172,0.0,0.0,0.0,0.0,0.0,0.0,0.0,0.0,0.0
