%time,field.header.seq,field.header.stamp,field.header.frame_id,field.orientation.x,field.orientation.y,field.orientation.z,field.orientation.w,field.orientation_covariance0,field.orientation_covariance1,field.orientation_covariance2,field.orientation_covariance3,field.orientation_covariance4,field.orientation_covariance5,field.orientation_covariance6,field.orientation_covariance7,field.orientation_covariance8,field.angular_velocity.x,field.angular_velocity.y,field.angular_velocity.z,field.angular_velocity_covariance0,field.angular_velocity_covariance1,field.angular_velocity_covariance2,field.angular_velocity_covariance3,field.angular_velocity_covariance4,field.angular_velocity_covariance5,field.angular_velocity_covariance6,field.angular_velocity_covariance7,field.angular_velocity_covariance8,field.linear_acceleration.x,field.linear_acceleration.y,field.linear_acceleration.z,field.linear_acceleration_covariance0,field.linear_acceleration_covariance1,field.linear_acceleration_covariance2,field.linear_acceleration_covariance3,field.linear_acceleration_covariance4,field.linear_acceleration_covariance5,field.linear_acceleration_covariance6,field.linear_acceleration_covariance7,field.linear_acceleration_covariance8
26620000000,0,26620000000,imu_link,-0.000432586423178,-0.370835424613,-0.000232606916765,0.928698469157,0.0,0.0,0.0,0.0,0.0,0.0,0.0,0.0,0.0,-0.00494645835772,-0.0139071797646,0.00122892480804,0.0,0.0,0.0,0.0,0.0,0.0,0.0,0.0,0.0,6.30146717858,-0.0117990330447,7.24977933018,0.0,0.0,0.0,0.0,0.0,0.0,0.0,0.0,0.0
26624000000,1,26624000000,imu_link,-0.000442150493885,-0.370861387125,-0.000233958271944,0.928688096891,0.0,0.0,0.0,0.0,0.0,0.0,0.0,0.0,0.0,-0.00469085802067,-0.0139796944151,0.00113902552285,0.0,0.0,0.0,0.0,0.0,0.0,0.0,0.0,0.0,6.30239240138,-0.0117268155358,7.24633831348,0.0,0.0,0.0,0.0,0.0,0.0,0.0,0.0,0.0
26628000000,2,26628000000,imu_link,-0.000451145075111,-0.37088734319,-0.000235288302964,0.928677726539,0.0,0.0,0.0,0.0,0.0,0.0,0.0,0.0,0.0,-0.0044224651469,-0.0139762840365,0.0010433280889,0.0,0.0,0.0,0.0,0.0,0.0,0.0,0.0,0.0,6.30341610322,-0.0115501346772,7.24255387175,0.0,0.0,0.0,0.0,0.0,0.0,0.0,0.0,0.0
26632000000,3,26632000000,imu_link,-0.000459495911642,-0.370913078979,-0.000236581291503,0.928667443564,0.0,0.0,0.0,0.0,0.0,0.0,0.0,0.0,0.0,-0.004116686378,-0.0138577301363,0.000941209940141,0.0,0.0,0.0,0.0,0.0,0.0,0.0,0.0,0.0,6.30456583509,-0.0113165138121,7.23866193403,0.0,0.0,0.0,0.0,0.0,0.0,0.0,0.0,0.0
26636000000,4,26636000000,imu_link,-0.000467066352745,-0.370938286435,-0.000237802693506,0.928657371131,0.0,0.0,0.0,0.0,0.0,0.0,0.0,0.0,0.0,-0.00374106039779,-0.0135732857777,0.000829866835344,0.0,0.0,0.0,0.0,0.0,0.0,0.0,0.0,0.0,6.30610704197,-0.0111296568487,7.23502447731,0.0,0.0,0.0,0.0,0.0,0.0,0.0,0.0,0.0
26640000000,5,26640000000,imu_link,-0.000473756411481,-0.370962775632,-0.000238962189323,0.928647585227,0.0,0.0,0.0,0.0,0.0,0.0,0.0,0.0,0.0,-0.00332081041102,-0.0131865444904,0.000695529696684,0.0,0.0,0.0,0.0,0.0,0.0,0.0,0.0,0.0,6.30738897894,-0.010925305704,7.23229634329,0.0,0.0,0.0,0.0,0.0,0.0,0.0,0.0,0.0
26644000000,6,26644000000,imu_link,-0.000479710517235,-0.370986626516,-0.000240116083733,0.928638053909,0.0,0.0,0.0,0.0,0.0,0.0,0.0,0.0,0.0,-0.00297806693455,-0.0128428527786,0.000561806603371,0.0,0.0,0.0,0.0,0.0,0.0,0.0,0.0,0.0,6.30856739191,-0.0106841644188,7.23126171432,0.0,0.0,0.0,0.0,0.0,0.0,0.0,0.0,0.0
26648000000,7,26648000000,imu_link,-0.00048503431493,-0.371010131986,-0.000241327570563,0.928628660158,0.0,0.0,0.0,0.0,0.0,0.0,0.0,0.0,0.0,-0.00269609439244,-0.012656863526,0.000418246781461,0.0,0.0,0.0,0.0,0.0,0.0,0.0,0.0,0.0,6.3097848975,-0.0104613480406,7.23151339781,0.0,0.0,0.0,0.0,0.0,0.0,0.0,0.0,0.0
26652000000,8,26652000000,imu_link,-0.000489494076236,-0.371033520655,-0.000242631681243,0.928619312784,0.0,0.0,0.0,0.0,0.0,0.0,0.0,0.0,0.0,-0.00231209495469,-0.0125939015056,0.000214990995756,0.0,0.0,0.0,0.0,0.0,0.0,0.0,0.0,0.0,6.31167894491,-0.0103182125381,7.23284307909,0.0,0.0,0.0,0.0,0.0,0.0,0.0,0.0,0.0
26656000000,9,26656000000,imu_link,-0.000492748370953,-0.371056925659,-0.000243993024559,0.928609958802,0.0,0.0,0.0,0.0,0.0,0.0,0.0,0.0,0.0,-0.00176300242563,-0.0126025514581,-3.52217260331e-05,0.0,0.0,0.0,0.0,0.0,0.0,0.0,0.0,0.0,6.31369387452,-0.0101941602055,7.23366571462,0.0,0.0,0.0,0.0,0.0,0.0,0.0,0.0,0.0
26660000000,10,26660000000,imu_link,-0.000494794989447,-0.371080349921,-0.000245370470892,0.928600597067,0.0,0.0,0.0,0.0,0.0,0.0,0.0,0.0,0.0,-0.0012052594705,-0.0126127801125,-0.000266762440481,0.0,0.0,0.0,0.0,0.0,0.0,0.0,0.0,0.0,6.31530240426,-0.00997701633607,7.23251273526,0.0,0.0,0.0,0.0,0.0,0.0,0.0,0.0,0.0
26664000000,11,26664000000,imu_link,-0.000495955514639,-0.371103689351,-0.000246760531395,0.928591269013,0.0,0.0,0.0,0.0,0.0,0.0,0.0,0.0,0.0,-0.000796188595865,-0.0125670311968,-0.000436999990597,0.0,0.0,0.0,0.0,0.0,0.0,0.0,0.0,0.0,6.31658727051,-0.00970283140013,7.22974998425,0.0,0.0,0.0,0.0,0.0,0.0,0.0,0.0,0.0
26668000000,12,26668000000,imu_link,-0.000496738413619,-0.371126606067,-0.000248185575847,0.928582109414,0.0,0.0,0.0,0.0,0.0,0.0,0.0,0.0,0.0,-0.000627360112132,-0.0123394550266,-0.000523186517754,0.0,0.0,0.0,0.0,0.0,0.0,0.0,0.0,0.0,6.31773551347,-0.00949700291883,7.22496045185,0.0,0.0,0.0,0.0,0.0,0.0,0.0,0.0,0.0
26672000000,13,26672000000,imu_link,-0.00049748186146,-0.371148609667,-0.000249663810695,0.928573314134,0.0,0.0,0.0,0.0,0.0,0.0,0.0,0.0,0.0,-0.00061893631208,-0.0118478812586,-0.000554931027658,0.0,0.0,0.0,0.0,0.0,0.0,0.0,0.0,0.0,6.32101094787,-0.00936288816512,7.22348590689,0.0,0.0,0.0,0.0,0.0,0.0,0.0,0.0,0.0
26676000000,14,26676000000,imu_link,-0.000498135833283,-0.371169462371,-0.000251184371409,0.928564978324,0.0,0.0,0.0,0.0,0.0,0.0,0.0,0.0,0.0,-0.000585277763259,-0.0112282476562,-0.000590843180404,0.0,0.0,0.0,0.0,0.0,0.0,0.0,0.0,0.0,6.32232625345,-0.0092960805426,7.21995460883,0.0,0.0,0.0,0.0,0.0,0.0,0.0,0.0,0.0
26680000000,15,26680000000,imu_link,-0.000498582314924,-0.37118924143,-0.000252734685989,0.92855707126,0.0,0.0,0.0,0.0,0.0,0.0,0.0,0.0,0.0,-0.00049449362341,-0.0106501708972,-0.000642843131291,0.0,0.0,0.0,0.0,0.0,0.0,0.0,0.0,0.0,6.32352136543,-0.00922484662812,7.21907336187,0.0,0.0,0.0,0.0,0.0,0.0,0.0,0.0,0.0
26684000000,16,26684000000,imu_link,-0.000498732913041,-0.371208287547,-0.000254305499406,0.928549456869,0.0,0.0,0.0,0.0,0.0,0.0,0.0,0.0,0.0,-0.000360945387041,-0.0102555206958,-0.000707054991768,0.0,0.0,0.0,0.0,0.0,0.0,0.0,0.0,0.0,6.32544656548,-0.00914749215278,7.22183881464,0.0,0.0,0.0,0.0,0.0,0.0,0.0,0.0,0.0
26688000000,17,26688000000,imu_link,-0.000498825861836,-0.371226998756,-0.00025592349147,0.928541975933,0.0,0.0,0.0,0.0,0.0,0.0,0.0,0.0,0.0,-0.000342946120572,-0.0100752427671,-0.000739558314483,0.0,0.0,0.0,0.0,0.0,0.0,0.0,0.0,0.0,6.32713609225,-0.00900845253442,7.22447159461,0.0,0.0,0.0,0.0,0.0,0.0,0.0,0.0,0.0
26692000000,18,26692000000,imu_link,-0.000498934209609,-0.371245556218,-0.000257572034344,0.928534556012,0.0,0.0,0.0,0.0,0.0,0.0,0.0,0.0,0.0,-0.000355770518308,-0.00999253147532,-0.000750837756423,0.0,0.0,0.0,0.0,0.0,0.0,0.0,0.0,0.0,6.32796801295,-0.00895574191112,7.22319391312,0.0,0.0,0.0,0.0,0.0,0.0,0.0,0.0,0.0
26696000000,19,26696000000,imu_link,-0.000499038875523,-0.371264150585,-0.000259206654177,0.928527120908,0.0,0.0,0.0,0.0,0.0,0.0,0.0,0.0,0.0,-0.000351475753311,-0.0100124862774,-0.000745068343058,0.0,0.0,0.0,0.0,0.0,0.0,0.0,0.0,0.0,6.33029898161,-0.00892282016683,7.2247953267,0.0,0.0,0.0,0.0,0.0,0.0,0.0,0.0,0.0
26700000000,20,26700000000,imu_link,-0.000498938821267,-0.371282907525,-0.000260774633393,0.928519620491,0.0,0.0,0.0,0.0,0.0,0.0,0.0,0.0,0.0,-0.000244056229148,-0.0101000777571,-0.000752181193424,0.0,0.0,0.0,0.0,0.0,0.0,0.0,0.0,0.0,6.33131578189,-0.00892933417953,7.2233737824,0.0,0.0,0.0,0.0,0.0,0.0,0.0,0.0,0.0
26704000000,21,26704000000,imu_link,-0.000498472297355,-0.371301916696,-0.000262234299064,0.928512018994,0.0,0.0,0.0,0.0,0.0,0.0,0.0,0.0,0.0,-5.38039399595e-05,-0.0102359220476,-0.00077000363011,0.0,0.0,0.0,0.0,0.0,0.0,0.0,0.0,0.0,6.33241792323,-0.00889540323642,7.22179409093,0.0,0.0,0.0,0.0,0.0,0.0,0.0,0.0,0.0
26708000000,22,26708000000,imu_link,-0.000497579686413,-0.371321351828,-0.000263577169367,0.928504246957,0.0,0.0,0.0,0.0,0.0,0.0,0.0,0.0,0.0,0.000165706041601,-0.0104653112137,-0.000795012669836,0.0,0.0,0.0,0.0,0.0,0.0,0.0,0.0,0.0,6.33373098893,-0.00881841879035,7.22134988495,0.0,0.0,0.0,0.0,0.0,0.0,0.0,0.0,0.0
26712000000,23,26712000000,imu_link,-0.000496307822281,-0.371341502244,-0.00026483141581,0.928496188605,0.0,0.0,0.0,0.0,0.0,0.0,0.0,0.0,0.0,0.000358252140594,-0.0108505130081,-0.000824496947178,0.0,0.0,0.0,0.0,0.0,0.0,0.0,0.0,0.0,6.33547448233,-0.00871110932231,7.22255929535,0.0,0.0,0.0,0.0,0.0,0.0,0.0,0.0,0.0
26716000000,24,26716000000,imu_link,-0.000494769797257,-0.371362695079,-0.000266047509853,0.928487712964,0.0,0.0,0.0,0.0,0.0,0.0,0.0,0.0,0.0,0.000488935092679,-0.011411906133,-0.000856516996035,0.0,0.0,0.0,0.0,0.0,0.0,0.0,0.0,0.0,6.33756362453,-0.00863958713503,7.22492777582,0.0,0.0,0.0,0.0,0.0,0.0,0.0,0.0,0.0
26720000000,25,26720000000,imu_link,-0.000493032614792,-0.371385118513,-0.000267259680795,0.928478744635,0.0,0.0,0.0,0.0,0.0,0.0,0.0,0.0,0.0,0.000582162973506,-0.0120746619098,-0.000892045513803,0.0,0.0,0.0,0.0,0.0,0.0,0.0,0.0,0.0,6.3398998909,-0.00859338403557,7.22680094097,0.0,0.0,0.0,0.0,0.0,0.0,0.0,0.0,0.0
26724000000,26,26724000000,imu_link,-0.000491077639985,-0.371408698699,-0.000268463962218,0.928469313063,0.0,0.0,0.0,0.0,0.0,0.0,0.0,0.0,0.0,0.000684776158216,-0.0126976654543,-0.000929172367403,0.0,0.0,0.0,0.0,0.0,0.0,0.0,0.0,0.0,6.34012741024,-0.00852328865263,7.22245713009,0.0,0.0,0.0,0.0,0.0,0.0,0.0,0.0,0.0
26728000000,27,26728000000,imu_link,-0.00048892278798,-0.371433088486,-0.000269661359365,0.928459557016,0.0,0.0,0.0,0.0,0.0,0.0,0.0,0.0,0.0,0.000778873523955,-0.0131337413875,-0.000963336855967,0.0,0.0,0.0,0.0,0.0,0.0,0.0,0.0,0.0,6.34156347487,-0.00845661146916,7.21844648188,0.0,0.0,0.0,0.0,0.0,0.0,0.0,0.0,0.0
26732000000,28,26732000000,imu_link,-0.000486587087993,-0.371457733171,-0.000270854833484,0.928449698335,0.0,0.0,0.0,0.0,0.0,0.0,0.0,0.0,0.0,0.000863566391509,-0.013271110158,-0.000995178282973,0.0,0.0,0.0,0.0,0.0,0.0,0.0,0.0,0.0,6.34367525526,-0.00839579821659,7.21437415673,0.0,0.0,0.0,0.0,0.0,0.0,0.0,0.0,0.0
26736000000,29,26736000000,imu_link,-0.00048402504266,-0.371482076601,-0.000272038009338,0.928439959545,0.0,0.0,0.0,0.0,0.0,0.0,0.0,0.0,0.0,0.000970542581266,-0.0131089648969,-0.00103234690751,0.0,0.0,0.0,0.0,0.0,0.0,0.0,0.0,0.0,6.34652239423,-0.00835877250834,7.21150545603,0.0,0.0,0.0,0.0,0.0,0.0,0.0,0.0,0.0
26740000000,30,26740000000,imu_link,-0.000481159065284,-0.371505912325,-0.000273188268711,0.928430423329,0.0,0.0,0.0,0.0,0.0,0.0,0.0,0.0,0.0,0.00111772781756,-0.012835617572,-0.00107336864673,0.0,0.0,0.0,0.0,0.0,0.0,0.0,0.0,0.0,6.3472587127,-0.00832689001097,7.20711709776,0.0,0.0,0.0,0.0,0.0,0.0,0.0,0.0,0.0
26744000000,31,26744000000,imu_link,-0.00047784873204,-0.371529296865,-0.000274281574673,0.928421067189,0.0,0.0,0.0,0.0,0.0,0.0,0.0,0.0,0.0,0.00133456552869,-0.0125926746585,-0.00112933728033,0.0,0.0,0.0,0.0,0.0,0.0,0.0,0.0,0.0,6.34762197924,-0.00828606442741,7.20414278039,0.0,0.0,0.0,0.0,0.0,0.0,0.0,0.0,0.0
26748000000,32,26748000000,imu_link,-0.000474209956038,-0.371552520271,-0.000275358313468,0.928411775013,0.0,0.0,0.0,0.0,0.0,0.0,0.0,0.0,0.0,0.00149010289505,-0.0125059513396,-0.00118261240977,0.0,0.0,0.0,0.0,0.0,0.0,0.0,0.0,0.0,6.34924254971,-0.00818617492363,7.20572763779,0.0,0.0,0.0,0.0,0.0,0.0,0.0,0.0,0.0
26752000000,33,26752000000,imu_link,-0.000470512170388,-0.37157579262,-0.000276450041021,0.928402462584,0.0,0.0,0.0,0.0,0.0,0.0,0.0,0.0,0.0,0.00151471290256,-0.0125324217543,-0.00120054726416,0.0,0.0,0.0,0.0,0.0,0.0,0.0,0.0,0.0,6.3511715463,-0.00807250086237,7.20731039359,0.0,0.0,0.0,0.0,0.0,0.0,0.0,0.0,0.0
26756000000,34,26756000000,imu_link,-0.000466925030411,-0.371599130369,-0.000277549203067,0.928393123228,0.0,0.0,0.0,0.0,0.0,0.0,0.0,0.0,0.0,0.00146197251045,-0.0125677964902,-0.00118346084578,0.0,0.0,0.0,0.0,0.0,0.0,0.0,0.0,0.0,6.35262320012,-0.00800605832635,7.20595626412,0.0,0.0,0.0,0.0,0.0,0.0,0.0,0.0,0.0
26760000000,35,26760000000,imu_link,-0.000463139338262,-0.371622468782,-0.000278579650102,0.928383783029,0.0,0.0,0.0,0.0,0.0,0.0,0.0,0.0,0.0,0.00156690686121,-0.0125682500172,-0.00118845475286,0.0,0.0,0.0,0.0,0.0,0.0,0.0,0.0,0.0,6.35486967049,-0.00811230005529,7.20568839743,0.0,0.0,0.0,0.0,0.0,0.0,0.0,0.0,0.0
26764000000,36,26764000000,imu_link,-0.000458661201021,-0.371645731009,-0.000279473720085,0.928374473016,0.0,0.0,0.0,0.0,0.0,0.0,0.0,0.0,0.0,0.0019136710246,-0.0125272116234,-0.00125379186216,0.0,0.0,0.0,0.0,0.0,0.0,0.0,0.0,0.0,6.3566993881,-0.00820312224183,7.20472690767,0.0,0.0,0.0,0.0,0.0,0.0,0.0,0.0,0.0
26768000000,37,26768000000,imu_link,-0.000453191456918,-0.371669013273,-0.00028020018163,0.928365154817,0.0,0.0,0.0,0.0,0.0,0.0,0.0,0.0,0.0,0.00240510867648,-0.0125379333801,-0.0013602591317,0.0,0.0,0.0,0.0,0.0,0.0,0.0,0.0,0.0,6.35742877796,-0.00813740980716,7.20316773598,0.0,0.0,0.0,0.0,0.0,0.0,0.0,0.0,0.0
26772000000,38,26772000000,imu_link,-0.000446862267594,-0.371692536369,-0.000280815291318,0.928355739932,0.0,0.0,0.0,0.0,0.0,0.0,0.0,0.0,0.0,0.00282475302425,-0.012667595435,-0.00146835423531,0.0,0.0,0.0,0.0,0.0,0.0,0.0,0.0,0.0,6.35827413872,-0.00796158551273,7.2028909786,0.0,0.0,0.0,0.0,0.0,0.0,0.0,0.0,0.0
26776000000,39,26776000000,imu_link,-0.000440377089479,-0.371716558023,-0.000281456031764,0.928346124752,0.0,0.0,0.0,0.0,0.0,0.0,0.0,0.0,0.0,0.0028924214372,-0.012936211936,-0.00150938091738,0.0,0.0,0.0,0.0,0.0,0.0,0.0,0.0,0.0,6.361285421,-0.00771697796629,7.2074728709,0.0,0.0,0.0,0.0,0.0,0.0,0.0,0.0,0.0
26780000000,40,26780000000,imu_link,-0.000434402253399,-0.371740996629,-0.000282261389767,0.928336341553,0.0,0.0,0.0,0.0,0.0,0.0,0.0,0.0,0.0,0.00262496055752,-0.0131610129466,-0.00149105611345,0.0,0.0,0.0,0.0,0.0,0.0,0.0,0.0,0.0,6.36442035724,-0.007582763075,7.20946199118,0.0,0.0,0.0,0.0,0.0,0.0,0.0,0.0,0.0
26784000000,41,26784000000,imu_link,-0.000429252978835,-0.371765575191,-0.000283276010249,0.928326501076,0.0,0.0,0.0,0.0,0.0,0.0,0.0,0.0,0.0,0.0022028727678,-0.013236693408,-0.00143478004787,0.0,0.0,0.0,0.0,0.0,0.0,0.0,0.0,0.0,6.36541770244,-0.00761795020475,7.2052229486,0.0,0.0,0.0,0.0,0.0,0.0,0.0,0.0,0.0
26788000000,42,26788000000,imu_link,-0.000425116883677,-0.371789974299,-0.000284487728619,0.928316731161,0.0,0.0,0.0,0.0,0.0,0.0,0.0,0.0,0.0,0.00169594474409,-0.0131403823221,-0.00133788452174,0.0,0.0,0.0,0.0,0.0,0.0,0.0,0.0,0.0,6.36599477767,-0.00769767653452,7.19968949092,0.0,0.0,0.0,0.0,0.0,0.0,0.0,0.0,0.0
26792000000,43,26792000000,imu_link,-0.000422044640681,-0.371813734238,-0.000285880292425,0.928307215949,0.0,0.0,0.0,0.0,0.0,0.0,0.0,0.0,0.0,0.00116849382424,-0.0127964719736,-0.00122388856885,0.0,0.0,0.0,0.0,0.0,0.0,0.0,0.0,0.0,6.36694606819,-0.00781859822248,7.19409106662,0.0,0.0,0.0,0.0,0.0,0.0,0.0,0.0,0.0
26796000000,44,26796000000,imu_link,-0.000419963262149,-0.371836532563,-0.000287452880382,0.928298084698,0.0,0.0,0.0,0.0,0.0,0.0,0.0,0.0,0.0,0.000675056352798,-0.0122788575387,-0.0011229811144,0.0,0.0,0.0,0.0,0.0,0.0,0.0,0.0,0.0,6.36811336048,-0.00795579042856,7.19022680987,0.0,0.0,0.0,0.0,0.0,0.0,0.0,0.0,0.0
26800000000,45,26800000000,imu_link,-0.000418768339456,-0.371858345393,-0.000289212368325,0.928289347106,0.0,0.0,0.0,0.0,0.0,0.0,0.0,0.0,0.0,0.000228801622699,-0.0117483407541,-0.00104465871615,0.0,0.0,0.0,0.0,0.0,0.0,0.0,0.0,0.0,6.3684424248,-0.00806587061096,7.1867628913,0.0,0.0,0.0,0.0,0.0,0.0,0.0,0.0,0.0
26804000000,46,26804000000,imu_link,-0.000418426953213,-0.371879553265,-0.000291140882428,0.928280850831,0.0,0.0,0.0,0.0,0.0,0.0,0.0,0.0,0.0,-0.000198826621747,-0.0114227732224,-0.000964252417318,0.0,0.0,0.0,0.0,0.0,0.0,0.0,0.0,0.0,6.36987129525,-0.0081806166031,7.18852930114,0.0,0.0,0.0,0.0,0.0,0.0,0.0,0.0,0.0
26808000000,47,26808000000,imu_link,-0.000419112967463,-0.371900543493,-0.00029319333711,0.928272440683,0.0,0.0,0.0,0.0,0.0,0.0,0.0,0.0,0.0,-0.000698743870756,-0.0113058651399,-0.000830685560769,0.0,0.0,0.0,0.0,0.0,0.0,0.0,0.0,0.0,6.37230205224,-0.00824975025762,7.19294069048,0.0,0.0,0.0,0.0,0.0,0.0,0.0,0.0,0.0
26812000000,48,26812000000,imu_link,-0.000421117598947,-0.371921775509,-0.000295371106537,0.928263932466,0.0,0.0,0.0,0.0,0.0,0.0,0.0,0.0,0.0,-0.0013340493063,-0.0114364901312,-0.000643716484242,0.0,0.0,0.0,0.0,0.0,0.0,0.0,0.0,0.0,6.37404362012,-0.00833911172929,7.1964520822,0.0,0.0,0.0,0.0,0.0,0.0,0.0,0.0,0.0
26816000000,49,26816000000,imu_link,-0.000424293632873,-0.371943429808,-0.000297641451574,0.928255253908,0.0,0.0,0.0,0.0,0.0,0.0,0.0,0.0,0.0,-0.00189492356951,-0.0116643158683,-0.000468962818697,0.0,0.0,0.0,0.0,0.0,0.0,0.0,0.0,0.0,6.37510660125,-0.00849402956139,7.19615284853,0.0,0.0,0.0,0.0,0.0,0.0,0.0,0.0,0.0
26820000000,50,26820000000,imu_link,-0.000428360201293,-0.37196544363,-0.000299987238781,0.928246430244,0.0,0.0,0.0,0.0,0.0,0.0,0.0,0.0,0.0,-0.00232225262025,-0.0118582821533,-0.000338461253486,0.0,0.0,0.0,0.0,0.0,0.0,0.0,0.0,0.0,6.37573664167,-0.00863887739162,7.19319600794,0.0,0.0,0.0,0.0,0.0,0.0,0.0,0.0,0.0
26824000000,51,26824000000,imu_link,-0.000432913790022,-0.371987748713,-0.000302393064061,0.928237488982,0.0,0.0,0.0,0.0,0.0,0.0,0.0,0.0,0.0,-0.00255943759593,-0.0120153951907,-0.000275828975389,0.0,0.0,0.0,0.0,0.0,0.0,0.0,0.0,0.0,6.3768041916,-0.00875774602815,7.19130522498,0.0,0.0,0.0,0.0,0.0,0.0,0.0,0.0,0.0
26828000000,52,26828000000,imu_link,-0.000437635717401,-0.372010313201,-0.000304843243004,0.928228443013,0.0,0.0,0.0,0.0,0.0,0.0,0.0,0.0,0.0,-0.00264579967243,-0.0121552801285,-0.000265176365147,0.0,0.0,0.0,0.0,0.0,0.0,0.0,0.0,0.0,6.37749101186,-0.00882035562782,7.18867455805,0.0,0.0,0.0,0.0,0.0,0.0,0.0,0.0,0.0
26832000000,53,26832000000,imu_link,-0.00044239150952,-0.372033158156,-0.000307365234438,0.928219283924,0.0,0.0,0.0,0.0,0.0,0.0,0.0,0.0,0.0,-0.00267485627629,-0.0123064794446,-0.000292285160652,0.0,0.0,0.0,0.0,0.0,0.0,0.0,0.0,0.0,6.37804740849,-0.00877863525511,7.18597388792,0.0,0.0,0.0,0.0,0.0,0.0,0.0,0.0,0.0
26836000000,54,26836000000,imu_link,-0.000447281097472,-0.372056356636,-0.000310021059413,0.928209982339,0.0,0.0,0.0,0.0,0.0,0.0,0.0,0.0,0.0,-0.00276182465945,-0.0124970511623,-0.000329610451453,0.0,0.0,0.0,0.0,0.0,0.0,0.0,0.0,0.0,6.3794022893,-0.00868639927809,7.18516396459,0.0,0.0,0.0,0.0,0.0,0.0,0.0,0.0,0.0
26840000000,55,26840000000,imu_link,-0.000452218562791,-0.372079928437,-0.000312802614894,0.928200530331,0.0,0.0,0.0,0.0,0.0,0.0,0.0,0.0,0.0,-0.00280740997276,-0.0126982735323,-0.000379162874762,0.0,0.0,0.0,0.0,0.0,0.0,0.0,0.0,0.0,6.38025116668,-0.00863237950163,7.18295105409,0.0,0.0,0.0,0.0,0.0,0.0,0.0,0.0,0.0
26844000000,56,26844000000,imu_link,-0.000457001549521,-0.37210397072,-0.000315653306267,0.928190889035,0.0,0.0,0.0,0.0,0.0,0.0,0.0,0.0,0.0,-0.00274854767394,-0.0129517996174,-0.00044012403689,0.0,0.0,0.0,0.0,0.0,0.0,0.0,0.0,0.0,6.38113713049,-0.00859230338669,7.18152413321,0.0,0.0,0.0,0.0,0.0,0.0,0.0,0.0,0.0
26848000000,57,26848000000,imu_link,-0.000461495000212,-0.372128676009,-0.000318544870073,0.928180981298,0.0,0.0,0.0,0.0,0.0,0.0,0.0,0.0,0.0,-0.00262173595612,-0.0133090148776,-0.000513155050384,0.0,0.0,0.0,0.0,0.0,0.0,0.0,0.0,0.0,6.38205153575,-0.00851181330913,7.18080893929,0.0,0.0,0.0,0.0,0.0,0.0,0.0,0.0,0.0
26852000000,58,26852000000,imu_link,-0.000465515338505,-0.372154356113,-0.000321424601999,0.928170682153,0.0,0.0,0.0,0.0,0.0,0.0,0.0,0.0,0.0,-0.0023999025557,-0.0138341714454,-0.00059598060927,0.0,0.0,0.0,0.0,0.0,0.0,0.0,0.0,0.0,6.38298359245,-0.00845514294669,7.18118061147,0.0,0.0,0.0,0.0,0.0,0.0,0.0,0.0,0.0
26856000000,59,26856000000,imu_link,-0.000468833671122,-0.372181276029,-0.000324219903823,0.928159885391,0.0,0.0,0.0,0.0,0.0,0.0,0.0,0.0,0.0,-0.00205831806797,-0.0145020522849,-0.000687793620806,0.0,0.0,0.0,0.0,0.0,0.0,0.0,0.0,0.0,6.38525034179,-0.0083611853008,7.18401213336,0.0,0.0,0.0,0.0,0.0,0.0,0.0,0.0,0.0
26860000000,60,26860000000,imu_link,-0.000471317444035,-0.372209482373,-0.000326893667247,0.928148572284,0.0,0.0,0.0,0.0,0.0,0.0,0.0,0.0,0.0,-0.0016483109871,-0.0151950374857,-0.000787079100047,0.0,0.0,0.0,0.0,0.0,0.0,0.0,0.0,0.0,6.38580968038,-0.0081687609794,7.18182038714,0.0,0.0,0.0,0.0,0.0,0.0,0.0,0.0,0.0
26864000000,61,26864000000,imu_link,-0.000473076853725,-0.372238641461,-0.000329444925598,0.928136876472,0.0,0.0,0.0,0.0,0.0,0.0,0.0,0.0,0.0,-0.00128928833116,-0.0157083154944,-0.000865322150555,0.0,0.0,0.0,0.0,0.0,0.0,0.0,0.0,0.0,6.38711753943,-0.00793768444844,7.17784366933,0.0,0.0,0.0,0.0,0.0,0.0,0.0,0.0,0.0
26868000000,62,26868000000,imu_link,-0.00047445580745,-0.372268075728,-0.000331896207118,0.928125069444,0.0,0.0,0.0,0.0,0.0,0.0,0.0,0.0,0.0,-0.00109410408419,-0.015856677353,-0.000889819674275,0.0,0.0,0.0,0.0,0.0,0.0,0.0,0.0,0.0,6.38993988495,-0.00770093380945,7.17423684066,0.0,0.0,0.0,0.0,0.0,0.0,0.0,0.0,0.0
26872000000,63,26872000000,imu_link,-0.000475881226667,-0.372297224161,-0.000334259192738,0.928113375989,0.0,0.0,0.0,0.0,0.0,0.0,0.0,0.0,0.0,-0.001099252597,-0.0157029216164,-0.000840109390333,0.0,0.0,0.0,0.0,0.0,0.0,0.0,0.0,0.0,6.39234495755,-0.00751504412709,7.17118510336,0.0,0.0,0.0,0.0,0.0,0.0,0.0,0.0,0.0
26876000000,64,26876000000,imu_link,-0.000477558392235,-0.372325733202,-0.000336525870461,0.928101937873,0.0,0.0,0.0,0.0,0.0,0.0,0.0,0.0,0.0,-0.00119819569926,-0.0153587419815,-0.000748360021213,0.0,0.0,0.0,0.0,0.0,0.0,0.0,0.0,0.0,6.39444953414,-0.00744360442721,7.16887788446,0.0,0.0,0.0,0.0,0.0,0.0,0.0,0.0,0.0
26880000000,65,26880000000,imu_link,-0.000479160990987,-0.37235343405,-0.000338667004126,0.928090823067,0.0,0.0,0.0,0.0,0.0,0.0,0.0,0.0,0.0,-0.00114028004374,-0.0149235277031,-0.00070373537087,0.0,0.0,0.0,0.0,0.0,0.0,0.0,0.0,0.0,6.39552275176,-0.00749248004772,7.16611034712,0.0,0.0,0.0,0.0,0.0,0.0,0.0,0.0,0.0
26884000000,66,26884000000,imu_link,-0.000480247342963,-0.372380185359,-0.000340655912952,0.928080088607,0.0,0.0,0.0,0.0,0.0,0.0,0.0,0.0,0.0,-0.000872447040355,-0.0144120360711,-0.000728917365559,0.0,0.0,0.0,0.0,0.0,0.0,0.0,0.0,0.0,6.3968829752,-0.00751630025285,7.16428587572,0.0,0.0,0.0,0.0,0.0,0.0,0.0,0.0,0.0
26888000000,67,26888000000,imu_link,-0.000480593683633,-0.37240588295,-0.000342508260999,0.928069776505,0.0,0.0,0.0,0.0,0.0,0.0,0.0,0.0,0.0,-0.000503703956051,-0.0138443370271,-0.000803005508251,0.0,0.0,0.0,0.0,0.0,0.0,0.0,0.0,0.0,6.39800178015,-0.00743700920805,7.16231107966,0.0,0.0,0.0,0.0,0.0,0.0,0.0,0.0,0.0
26892000000,68,26892000000,imu_link,-0.00048041851111,-0.37243061895,-0.000344270573846,0.928059849764,0.0,0.0,0.0,0.0,0.0,0.0,0.0,0.0,0.0,-0.000245010895989,-0.0133263018377,-0.000858036262316,0.0,0.0,0.0,0.0,0.0,0.0,0.0,0.0,0.0,6.39899052869,-0.00725061840991,7.16140429159,0.0,0.0,0.0,0.0,0.0,0.0,0.0,0.0,0.0
26896000000,69,26896000000,imu_link,-0.000480109682089,-0.372454703015,-0.000345995613504,0.928050183979,0.0,0.0,0.0,0.0,0.0,0.0,0.0,0.0,0.0,-0.000176098980213,-0.012975176348,-0.000865427752863,0.0,0.0,0.0,0.0,0.0,0.0,0.0,0.0,0.0,6.40078868779,-0.00709041957786,7.16385819009,0.0,0.0,0.0,0.0,0.0,0.0,0.0,0.0,0.0
26900000000,70,26900000000,imu_link,-0.000480296998363,-0.372478316091,-0.000347773685295,0.928040706225,0.0,0.0,0.0,0.0,0.0,0.0,0.0,0.0,0.0,-0.000416235222333,-0.0127216821972,-0.000797494576809,0.0,0.0,0.0,0.0,0.0,0.0,0.0,0.0,0.0,6.40325925164,-0.00691249732375,7.16712700454,0.0,0.0,0.0,0.0,0.0,0.0,0.0,0.0,0.0
26904000000,71,26904000000,imu_link,-0.000481424747297,-0.372501501886,-0.000349693610545,0.928031398735,0.0,0.0,0.0,0.0,0.0,0.0,0.0,0.0,0.0,-0.000879067195784,-0.0124918351898,-0.000688039865159,0.0,0.0,0.0,0.0,0.0,0.0,0.0,0.0,0.0,6.40457484465,-0.0068462816018,7.16677225005,0.0,0.0,0.0,0.0,0.0,0.0,0.0,0.0,0.0
26908000000,72,26908000000,imu_link,-0.000483688245968,-0.372524015661,-0.000351811305884,0.928022359661,0.0,0.0,0.0,0.0,0.0,0.0,0.0,0.0,0.0,-0.00144296062194,-0.0121301654999,-0.000568065353887,0.0,0.0,0.0,0.0,0.0,0.0,0.0,0.0,0.0,6.40550570518,-0.00689037144092,7.16341460426,0.0,0.0,0.0,0.0,0.0,0.0,0.0,0.0,0.0
26912000000,73,26912000000,imu_link,-0.000487107310499,-0.372545549454,-0.000354151676074,0.92801371266,0.0,0.0,0.0,0.0,0.0,0.0,0.0,0.0,0.0,-0.00202070952824,-0.0116025636945,-0.000455844986497,0.0,0.0,0.0,0.0,0.0,0.0,0.0,0.0,0.0,6.40674242671,-0.00699439361245,7.1605050297,0.0,0.0,0.0,0.0,0.0,0.0,0.0,0.0,0.0
26916000000,74,26916000000,imu_link,-0.00049136508655,-0.372565839445,-0.000356689956326,0.92800556389,0.0,0.0,0.0,0.0,0.0,0.0,0.0,0.0,0.0,-0.00244684158228,-0.010932724674,-0.000391056332834,0.0,0.0,0.0,0.0,0.0,0.0,0.0,0.0,0.0,6.40816678195,-0.00715515714282,7.15859826666,0.0,0.0,0.0,0.0,0.0,0.0,0.0,0.0,0.0
26920000000,75,26920000000,imu_link,-0.000496227093304,-0.372584906611,-0.00035935235886,0.927997905165,0.0,0.0,0.0,0.0,0.0,0.0,0.0,0.0,0.0,-0.00275042585974,-0.0102741207551,-0.000335703733705,0.0,0.0,0.0,0.0,0.0,0.0,0.0,0.0,0.0,6.40973542251,-0.00726963144855,7.15880658239,0.0,0.0,0.0,0.0,0.0,0.0,0.0,0.0,0.0
26924000000,76,26924000000,imu_link,-0.000501417479281,-0.372602934052,-0.000362051199356,0.927990663226,0.0,0.0,0.0,0.0,0.0,0.0,0.0,0.0,0.0,-0.00290966499594,-0.00971409520316,-0.00029110348222,0.0,0.0,0.0,0.0,0.0,0.0,0.0,0.0,0.0,6.41108631885,-0.00733948408662,7.15973124974,0.0,0.0,0.0,0.0,0.0,0.0,0.0,0.0,0.0
26928000000,77,26928000000,imu_link,-0.000506829005909,-0.372620242448,-0.000364697034716,0.927983709468,0.0,0.0,0.0,0.0,0.0,0.0,0.0,0.0,0.0,-0.00300245620672,-0.00932682633724,-0.000225078079715,0.0,0.0,0.0,0.0,0.0,0.0,0.0,0.0,0.0,6.41233524806,-0.00735088835106,7.16154541173,0.0,0.0,0.0,0.0,0.0,0.0,0.0,0.0,0.0
26932000000,78,26932000000,imu_link,-0.000512438631079,-0.37263708554,-0.000367221836366,0.927976942082,0.0,0.0,0.0,0.0,0.0,0.0,0.0,0.0,0.0,-0.0030718601304,-0.00907627333217,-0.00013185976182,0.0,0.0,0.0,0.0,0.0,0.0,0.0,0.0,0.0,6.41290407399,-0.00733502675067,7.16116330335,0.0,0.0,0.0,0.0,0.0,0.0,0.0,0.0,0.0
26936000000,79,26936000000,imu_link,-0.000518230762168,-0.372653668033,-0.000369593355129,0.927970278909,0.0,0.0,0.0,0.0,0.0,0.0,0.0,0.0,0.0,-0.00312800247516,-0.00893601400491,-2.66481271074e-05,0.0,0.0,0.0,0.0,0.0,0.0,0.0,0.0,0.0,6.41495598165,-0.00732068845924,7.16329646,0.0,0.0,0.0,0.0,0.0,0.0,0.0,0.0,0.0
26940000000,80,26940000000,imu_link,-0.000524144963862,-0.372670271532,-0.000371849805351,0.927963606892,0.0,0.0,0.0,0.0,0.0,0.0,0.0,0.0,0.0,-0.00316319947519,-0.00894746079882,4.94799179372e-05,0.0,0.0,0.0,0.0,0.0,0.0,0.0,0.0,0.0,6.41544497956,-0.00730906803512,7.162609112,0.0,0.0,0.0,0.0,0.0,0.0,0.0,0.0,0.0
26944000000,81,26944000000,imu_link,-0.000530020611522,-0.372687193489,-0.000374043118397,0.927956806635,0.0,0.0,0.0,0.0,0.0,0.0,0.0,0.0,0.0,-0.00313352082973,-0.00911912474374,7.14831451366e-05,0.0,0.0,0.0,0.0,0.0,0.0,0.0,0.0,0.0,6.41688000519,-0.00728658686508,7.16427254323,0.0,0.0,0.0,0.0,0.0,0.0,0.0,0.0,0.0
26948000000,82,26948000000,imu_link,-0.000535820219111,-0.372704511937,-0.000376181649743,0.927949846794,0.0,0.0,0.0,0.0,0.0,0.0,0.0,0.0,0.0,-0.00308799979864,-0.00933282575459,8.25961710531e-05,0.0,0.0,0.0,0.0,0.0,0.0,0.0,0.0,0.0,6.41725032329,-0.00723190348813,7.16207535147,0.0,0.0,0.0,0.0,0.0,0.0,0.0,0.0,0.0
26952000000,83,26952000000,imu_link,-0.000541359566856,-0.372722334384,-0.000378218997821,0.927942684292,0.0,0.0,0.0,0.0,0.0,0.0,0.0,0.0,0.0,-0.00294834952478,-0.00960441268889,8.08695160665e-05,0.0,0.0,0.0,0.0,0.0,0.0,0.0,0.0,0.0,6.41799583619,-0.00716170996118,7.16090306659,0.0,0.0,0.0,0.0,0.0,0.0,0.0,0.0,0.0
26956000000,84,26956000000,imu_link,-0.000546558801934,-0.372740848797,-0.000380142927901,0.927935243647,0.0,0.0,0.0,0.0,0.0,0.0,0.0,0.0,0.0,-0.00276935471388,-0.00997726679746,6.98685221875e-05,0.0,0.0,0.0,0.0,0.0,0.0,0.0,0.0,0.0,6.41890121207,-0.00706712564838,7.16077502246,0.0,0.0,0.0,0.0,0.0,0.0,0.0,0.0,0.0
26960000000,85,26960000000,imu_link,-0.000551196693069,-0.372760507758,-0.000381946691962,0.927927343144,0.0,0.0,0.0,0.0,0.0,0.0,0.0,0.0,0.0,-0.00248642203155,-0.0105939302104,2.06035682349e-05,0.0,0.0,0.0,0.0,0.0,0.0,0.0,0.0,0.0,6.42049796828,-0.00698624677395,7.16438564689,0.0,0.0,0.0,0.0,0.0,0.0,0.0,0.0,0.0
26964000000,86,26964000000,imu_link,-0.000555263424026,-0.37278168872,-0.000383686753283,0.927918831053,0.0,0.0,0.0,0.0,0.0,0.0,0.0,0.0,0.0,-0.0022094294167,-0.0114139796123,-5.68299119697e-05,0.0,0.0,0.0,0.0,0.0,0.0,0.0,0.0,0.0,6.42134104611,-0.00683233238253,7.16575596111,0.0,0.0,0.0,0.0,0.0,0.0,0.0,0.0,0.0
26968000000,87,26968000000,imu_link,-0.000558834824828,-0.372804684712,-0.000385403314026,0.927909589467,0.0,0.0,0.0,0.0,0.0,0.0,0.0,0.0,0.0,-0.00197509036394,-0.0123919628971,-0.000138895462027,0.0,0.0,0.0,0.0,0.0,0.0,0.0,0.0,0.0,6.42161130984,-0.00667272304865,7.16463254223,0.0,0.0,0.0,0.0,0.0,0.0,0.0,0.0,0.0
26972000000,88,26972000000,imu_link,-0.000561871651536,-0.372829520766,-0.00038714634754,0.927899608182,0.0,0.0,0.0,0.0,0.0,0.0,0.0,0.0,0.0,-0.00173185883849,-0.0133834392414,-0.000251480180243,0.0,0.0,0.0,0.0,0.0,0.0,0.0,0.0,0.0,6.42333503624,-0.00657038984877,7.16423506847,0.0,0.0,0.0,0.0,0.0,0.0,0.0,0.0,0.0
26976000000,89,26976000000,imu_link,-0.000564386564709,-0.372855929382,-0.00038896365697,0.927888994492,0.0,0.0,0.0,0.0,0.0,0.0,0.0,0.0,0.0,-0.00150343654281,-0.0142307967898,-0.000383797069221,0.0,0.0,0.0,0.0,0.0,0.0,0.0,0.0,0.0,6.4240639544,-0.00645907610205,7.15952230626,0.0,0.0,0.0,0.0,0.0,0.0,0.0,0.0,0.0
26980000000,90,26980000000,imu_link,-0.00056644064654,-0.372883387985,-0.000390901133209,0.927877958196,0.0,0.0,0.0,0.0,0.0,0.0,0.0,0.0,0.0,-0.00131195388394,-0.0147965948022,-0.000525838137644,0.0,0.0,0.0,0.0,0.0,0.0,0.0,0.0,0.0,6.42603570178,-0.00634859031224,7.15526599835,0.0,0.0,0.0,0.0,0.0,0.0,0.0,0.0,0.0
26984000000,91,26984000000,imu_link,-0.000567969398292,-0.372911196899,-0.000392968452339,0.927866780424,0.0,0.0,0.0,0.0,0.0,0.0,0.0,0.0,0.0,-0.00109241251293,-0.0149853552131,-0.000684147612119,0.0,0.0,0.0,0.0,0.0,0.0,0.0,0.0,0.0,6.42778219864,-0.00626729867477,7.14916786361,0.0,0.0,0.0,0.0,0.0,0.0,0.0,0.0,0.0
26988000000,92,26988000000,imu_link,-0.000568887610546,-0.372938750353,-0.000395124458564,0.927855704691,0.0,0.0,0.0,0.0,0.0,0.0,0.0,0.0,0.0,-0.000825720274187,-0.0148476679966,-0.000839038428631,0.0,0.0,0.0,0.0,0.0,0.0,0.0,0.0,0.0,6.42845387778,-0.0061929781622,7.14184637788,0.0,0.0,0.0,0.0,0.0,0.0,0.0,0.0,0.0
26992000000,93,26992000000,imu_link,-0.00056935175769,-0.372965787214,-0.000397350330576,0.927844835907,0.0,0.0,0.0,0.0,0.0,0.0,0.0,0.0,0.0,-0.000628137847279,-0.0145693065016,-0.000955932523257,0.0,0.0,0.0,0.0,0.0,0.0,0.0,0.0,0.0,6.4292686207,-0.00603498120649,7.13813106093,0.0,0.0,0.0,0.0,0.0,0.0,0.0,0.0,0.0
26996000000,94,26996000000,imu_link,-0.000569689875162,-0.372992168157,-0.000399671025187,0.927834229919,0.0,0.0,0.0,0.0,0.0,0.0,0.0,0.0,0.0,-0.000587408152373,-0.0142159529911,-0.00102318629537,0.0,0.0,0.0,0.0,0.0,0.0,0.0,0.0,0.0,6.4289148771,-0.00583556109228,7.13317591993,0.0,0.0,0.0,0.0,0.0,0.0,0.0,0.0,0.0
27000000000,95,27000000000,imu_link,-0.000570156648229,-0.373017846095,-0.000402128714486,0.927823905549,0.0,0.0,0.0,0.0,0.0,0.0,0.0,0.0,0.0,-0.000672702925722,-0.0138372824128,-0.0010624901869,0.0,0.0,0.0,0.0,0.0,0.0,0.0,0.0,0.0,6.42978000754,-0.00571834177088,7.13160558951,0.0,0.0,0.0,0.0,0.0,0.0,0.0,0.0,0.0
27004000000,96,27004000000,imu_link,-0.000570861842269,-0.373042667471,-0.000404752255899,0.927813924523,0.0,0.0,0.0,0.0,0.0,0.0,0.0,0.0,0.0,-0.000814316508,-0.0133758778592,-0.00109465010481,0.0,0.0,0.0,0.0,0.0,0.0,0.0,0.0,0.0,6.42882238503,-0.00566703752505,7.12564076814,0.0,0.0,0.0,0.0,0.0,0.0,0.0,0.0,0.0
27008000000,97,27008000000,imu_link,-0.000571856039131,-0.373066546818,-0.000407548654428,0.92780432125,0.0,0.0,0.0,0.0,0.0,0.0,0.0,0.0,0.0,-0.000980711290838,-0.0128684134399,-0.0011205891994,0.0,0.0,0.0,0.0,0.0,0.0,0.0,0.0,0.0,6.42862256796,-0.00564698248372,7.12188521387,0.0,0.0,0.0,0.0,0.0,0.0,0.0,0.0,0.0
27012000000,98,27012000000,imu_link,-0.000573105962206,-0.373089324591,-0.000410504197877,0.927795159996,0.0,0.0,0.0,0.0,0.0,0.0,0.0,0.0,0.0,-0.00112912714354,-0.0122749464718,-0.00114631038148,0.0,0.0,0.0,0.0,0.0,0.0,0.0,0.0,0.0,6.42858117513,-0.00565430935374,7.11720788388,0.0,0.0,0.0,0.0,0.0,0.0,0.0,0.0,0.0
27016000000,99,27016000000,imu_link,-0.000574444528781,-0.373110854096,-0.000413563740416,0.927786499974,0.0,0.0,0.0,0.0,0.0,0.0,0.0,0.0,0.0,-0.00118976170414,-0.0116023642159,-0.00117755876182,0.0,0.0,0.0,0.0,0.0,0.0,0.0,0.0,0.0,6.42921128309,-0.00568085478804,7.1140025699,0.0,0.0,0.0,0.0,0.0,0.0,0.0,0.0,0.0
27020000000,100,27020000000,imu_link,-0.00057551021922,-0.373130891057,-0.000416660765973,0.92777843978,0.0,0.0,0.0,0.0,0.0,0.0,0.0,0.0,0.0,-0.00107030531373,-0.0107980147257,-0.00124530067972,0.0,0.0,0.0,0.0,0.0,0.0,0.0,0.0,0.0,6.43041585549,-0.0057201275257,7.11117909773,0.0,0.0,0.0,0.0,0.0,0.0,0.0,0.0,0.0
27024000000,101,27024000000,imu_link,-0.000575841290166,-0.37314954493,-0.000419730706296,0.92777093582,0.0,0.0,0.0,0.0,0.0,0.0,0.0,0.0,0.0,-0.000724598161716,-0.0100524956116,-0.00136927687338,0.0,0.0,0.0,0.0,0.0,0.0,0.0,0.0,0.0,6.43108249173,-0.00572084094192,7.11064091688,0.0,0.0,0.0,0.0,0.0,0.0,0.0,0.0,0.0
27028000000,102,27028000000,imu_link,-0.000575379127469,-0.373167098795,-0.000422768313798,0.927763874368,0.0,0.0,0.0,0.0,0.0,0.0,0.0,0.0,0.0,-0.000350699558963,-0.00945949998553,-0.00150186595162,0.0,0.0,0.0,0.0,0.0,0.0,0.0,0.0,0.0,6.43193602959,-0.00557557586462,7.11166100903,0.0,0.0,0.0,0.0,0.0,0.0,0.0,0.0,0.0
27032000000,103,27032000000,imu_link,-0.00057457766302,-0.373184064545,-0.000425835115828,0.927757049283,0.0,0.0,0.0,0.0,0.0,0.0,0.0,0.0,0.0,-0.000198807142088,-0.00914250185713,-0.00157849773237,0.0,0.0,0.0,0.0,0.0,0.0,0.0,0.0,0.0,6.43408731722,-0.00534752251514,7.11693751829,0.0,0.0,0.0,0.0,0.0,0.0,0.0,0.0,0.0
27036000000,104,27036000000,imu_link,-0.000573961543345,-0.373200751848,-0.000428975195787,0.927750335688,0.0,0.0,0.0,0.0,0.0,0.0,0.0,0.0,0.0,-0.000298484936587,-0.0089925517625,-0.00157780219982,0.0,0.0,0.0,0.0,0.0,0.0,0.0,0.0,0.0,6.43625666563,-0.00516967159826,7.12092555204,0.0,0.0,0.0,0.0,0.0,0.0,0.0,0.0,0.0
27040000000,105,27040000000,imu_link,-0.000573847153198,-0.373217554467,-0.000432189701779,0.927743574998,0.0,0.0,0.0,0.0,0.0,0.0,0.0,0.0,0.0,-0.000545101512474,-0.00905491792354,-0.00151874686359,0.0,0.0,0.0,0.0,0.0,0.0,0.0,0.0,0.0,6.43819176533,-0.00510349795067,7.12508807109,0.0,0.0,0.0,0.0,0.0,0.0,0.0,0.0,0.0
27044000000,106,27044000000,imu_link,-0.000574475718658,-0.3732346863,-0.000435451579473,0.927736681016,0.0,0.0,0.0,0.0,0.0,0.0,0.0,0.0,0.0,-0.000898544736409,-0.00923265156978,-0.00140220248625,0.0,0.0,0.0,0.0,0.0,0.0,0.0,0.0,0.0,6.43830920133,-0.00509495733303,7.12403550472,0.0,0.0,0.0,0.0,0.0,0.0,0.0,0.0,0.0
27048000000,107,27048000000,imu_link,-0.000575997630567,-0.373252340546,-0.000438791002574,0.927729575882,0.0,0.0,0.0,0.0,0.0,0.0,0.0,0.0,0.0,-0.00132735809786,-0.00951455880976,-0.00127165543373,0.0,0.0,0.0,0.0,0.0,0.0,0.0,0.0,0.0,6.43821626939,-0.0051370695154,7.12234804298,0.0,0.0,0.0,0.0,0.0,0.0,0.0,0.0,0.0
27052000000,108,27052000000,imu_link,-0.000578431990886,-0.37327069718,-0.000442236895707,0.927722187117,0.0,0.0,0.0,0.0,0.0,0.0,0.0,0.0,0.0,-0.00177040846446,-0.00989347478355,-0.00115102089465,0.0,0.0,0.0,0.0,0.0,0.0,0.0,0.0,0.0,6.43783618591,-0.00521942038719,7.12000554408,0.0,0.0,0.0,0.0,0.0,0.0,0.0,0.0,0.0
27056000000,109,27056000000,imu_link,-0.00058176301541,-0.373289953435,-0.000445843493906,0.927714435287,0.0,0.0,0.0,0.0,0.0,0.0,0.0,0.0,0.0,-0.00221623543073,-0.0103786866622,-0.00105855695143,0.0,0.0,0.0,0.0,0.0,0.0,0.0,0.0,0.0,6.43958751954,-0.00530328225838,7.12177815588,0.0,0.0,0.0,0.0,0.0,0.0,0.0,0.0,0.0
27060000000,110,27060000000,imu_link,-0.000585997972263,-0.373310357337,-0.000449624083481,0.927706220497,0.0,0.0,0.0,0.0,0.0,0.0,0.0,0.0,0.0,-0.00266788441364,-0.0109975906869,-0.000970986711485,0.0,0.0,0.0,0.0,0.0,0.0,0.0,0.0,0.0,6.4413803193,-0.00537307537741,7.12341713964,0.0,0.0,0.0,0.0,0.0,0.0,0.0,0.0,0.0
27064000000,111,27064000000,imu_link,-0.000591199395672,-0.373332041167,-0.00045356171678,0.92769748938,0.0,0.0,0.0,0.0,0.0,0.0,0.0,0.0,0.0,-0.00314535949634,-0.0116878360685,-0.000863927037694,0.0,0.0,0.0,0.0,0.0,0.0,0.0,0.0,0.0,6.44176352571,-0.00544077660568,7.12152922031,0.0,0.0,0.0,0.0,0.0,0.0,0.0,0.0,0.0
27068000000,112,27068000000,imu_link,-0.00059738222424,-0.373354966385,-0.000457627794002,0.927688257329,0.0,0.0,0.0,0.0,0.0,0.0,0.0,0.0,0.0,-0.00362442571639,-0.0123573439585,-0.000740791150469,0.0,0.0,0.0,0.0,0.0,0.0,0.0,0.0,0.0,6.44281217851,-0.00552358069958,7.11942806846,0.0,0.0,0.0,0.0,0.0,0.0,0.0,0.0,0.0
27072000000,113,27072000000,imu_link,-0.000604282101811,-0.373378635932,-0.00046179773064,0.92767872446,0.0,0.0,0.0,0.0,0.0,0.0,0.0,0.0,0.0,-0.00397633243983,-0.0127588859209,-0.000655399984094,0.0,0.0,0.0,0.0,0.0,0.0,0.0,0.0,0.0,6.44512289211,-0.00565476692561,7.11613858169,0.0,0.0,0.0,0.0,0.0,0.0,0.0,0.0,0.0
27076000000,114,27076000000,imu_link,-0.000611511520687,-0.373402518597,-0.000466049044968,0.927669104777,0.0,0.0,0.0,0.0,0.0,0.0,0.0,0.0,0.0,-0.00414435603546,-0.01287399645,-0.000631708754748,0.0,0.0,0.0,0.0,0.0,0.0,0.0,0.0,0.0,6.44910523069,-0.00577240400696,7.11577255454,0.0,0.0,0.0,0.0,0.0,0.0,0.0,0.0,0.0
27080000000,115,27080000000,imu_link,-0.000618701222962,-0.373426193995,-0.000470358048476,0.927659567735,0.0,0.0,0.0,0.0,0.0,0.0,0.0,0.0,0.0,-0.00413672777643,-0.0127624035389,-0.000665799499142,0.0,0.0,0.0,0.0,0.0,0.0,0.0,0.0,0.0,6.45161295715,-0.00580557066632,7.11362963423,0.0,0.0,0.0,0.0,0.0,0.0,0.0,0.0,0.0
27084000000,116,27084000000,imu_link,-0.000625444403632,-0.373449534712,-0.000474722615118,0.927650164923,0.0,0.0,0.0,0.0,0.0,0.0,0.0,0.0,0.0,-0.00394002930781,-0.0125819837924,-0.000774807665269,0.0,0.0,0.0,0.0,0.0,0.0,0.0,0.0,0.0,6.45208452324,-0.00577147030777,7.11071833184,0.0,0.0,0.0,0.0,0.0,0.0,0.0,0.0,0.0
27088000000,117,27088000000,imu_link,-0.00063136721571,-0.373472549601,-0.000479121318152,0.927640893079,0.0,0.0,0.0,0.0,0.0,0.0,0.0,0.0,0.0,-0.00356593226965,-0.0124061958705,-0.000943691134141,0.0,0.0,0.0,0.0,0.0,0.0,0.0,0.0,0.0,6.45240214425,-0.0056346738208,7.10873030735,0.0,0.0,0.0,0.0,0.0,0.0,0.0,0.0,0.0
27092000000,118,27092000000,imu_link,-0.00063617089206,-0.373495337347,-0.000483507588512,0.927631712743,0.0,0.0,0.0,0.0,0.0,0.0,0.0,0.0,0.0,-0.00304455813206,-0.0122834902051,-0.00114681421516,0.0,0.0,0.0,0.0,0.0,0.0,0.0,0.0,0.0,6.45403401281,-0.005443919317,7.11014574449,0.0,0.0,0.0,0.0,0.0,0.0,0.0,0.0,0.0
27096000000,119,27096000000,imu_link,-0.000639731684735,-0.373517784098,-0.000487853172953,0.927622669896,0.0,0.0,0.0,0.0,0.0,0.0,0.0,0.0,0.0,-0.0024605296786,-0.012099368003,-0.00135990736612,0.0,0.0,0.0,0.0,0.0,0.0,0.0,0.0,0.0,6.45401500653,-0.00519777551575,7.10644382093,0.0,0.0,0.0,0.0,0.0,0.0,0.0,0.0,0.0
27100000000,120,27100000000,imu_link,-0.0006418744569,-0.373539425286,-0.000492115568388,0.927613951801,0.0,0.0,0.0,0.0,0.0,0.0,0.0,0.0,0.0,-0.00178739202739,-0.0116647696213,-0.00158581441405,0.0,0.0,0.0,0.0,0.0,0.0,0.0,0.0,0.0,6.45512549185,-0.00495472351738,7.10199668277,0.0,0.0,0.0,0.0,0.0,0.0,0.0,0.0,0.0
27104000000,121,27104000000,imu_link,-0.000642450697631,-0.37355961105,-0.00049625619967,0.927605820367,0.0,0.0,0.0,0.0,0.0,0.0,0.0,0.0,0.0,-0.00103825180166,-0.0108798166341,-0.00182130852358,0.0,0.0,0.0,0.0,0.0,0.0,0.0,0.0,0.0,6.45710407057,-0.0047006213157,7.09724022293,0.0,0.0,0.0,0.0,0.0,0.0,0.0,0.0,0.0
27108000000,122,27108000000,imu_link,-0.000641560412096,-0.373577960016,-0.000500266186335,0.927598429238,0.0,0.0,0.0,0.0,0.0,0.0,0.0,0.0,0.0,-0.000333888831147,-0.00988930847967,-0.00203385894436,0.0,0.0,0.0,0.0,0.0,0.0,0.0,0.0,0.0,6.45804957999,-0.00441105580917,7.09330396748,0.0,0.0,0.0,0.0,0.0,0.0,0.0,0.0,0.0
27112000000,123,27112000000,imu_link,-0.000639678325221,-0.373594510274,-0.000504208602489,0.927591762835,0.0,0.0,0.0,0.0,0.0,0.0,0.0,0.0,0.0,0.000138511838939,-0.0089194716932,-0.00218701908717,0.0,0.0,0.0,0.0,0.0,0.0,0.0,0.0,0.0,6.45926100817,-0.00407989695462,7.09370229312,0.0,0.0,0.0,0.0,0.0,0.0,0.0,0.0,0.0
27116000000,124,27116000000,imu_link,-0.000637483792116,-0.3736096652,-0.000508184218912,0.927585658272,0.0,0.0,0.0,0.0,0.0,0.0,0.0,0.0,0.0,0.00027704932445,-0.00816728302955,-0.00226019340902,0.0,0.0,0.0,0.0,0.0,0.0,0.0,0.0,0.0,6.46120968928,-0.00378871024498,7.09853559945,0.0,0.0,0.0,0.0,0.0,0.0,0.0,0.0,0.0
27120000000,125,27120000000,imu_link,-0.000635581475146,-0.373623891662,-0.000512295947376,0.927579927105,0.0,0.0,0.0,0.0,0.0,0.0,0.0,0.0,0.0,0.000115978290986,-0.00766694664899,-0.00226834299407,0.0,0.0,0.0,0.0,0.0,0.0,0.0,0.0,0.0,6.46309515092,-0.00361001798957,7.10324881641,0.0,0.0,0.0,0.0,0.0,0.0,0.0,0.0,0.0
27124000000,126,27124000000,imu_link,-0.000634347706516,-0.373637689837,-0.000516588957927,0.927574367623,0.0,0.0,0.0,0.0,0.0,0.0,0.0,0.0,0.0,-0.000228008523988,-0.00743635282053,-0.00222734690818,0.0,0.0,0.0,0.0,0.0,0.0,0.0,0.0,0.0,6.46489037099,-0.00354239391152,7.1076625298,0.0,0.0,0.0,0.0,0.0,0.0,0.0,0.0,0.0
27128000000,127,27128000000,imu_link,-0.000633914048382,-0.373651411028,-0.000521035435878,0.92756883826,0.0,0.0,0.0,0.0,0.0,0.0,0.0,0.0,0.0,-0.00062777045178,-0.00739517914546,-0.00214901520554,0.0,0.0,0.0,0.0,0.0,0.0,0.0,0.0,0.0,6.46584738093,-0.0035736880738,7.10960328313,0.0,0.0,0.0,0.0,0.0,0.0,0.0,0.0,0.0
27132000000,128,27132000000,imu_link,-0.000634283203685,-0.373665457148,-0.0005255817362,0.927563177138,0.0,0.0,0.0,0.0,0.0,0.0,0.0,0.0,0.0,-0.00101870931189,-0.00757067003766,-0.00204546239344,0.0,0.0,0.0,0.0,0.0,0.0,0.0,0.0,0.0,6.46736831645,-0.00363589633209,7.11289761568,0.0,0.0,0.0,0.0,0.0,0.0,0.0,0.0,0.0
27136000000,129,27136000000,imu_link,-0.000635555730089,-0.373680259455,-0.000530158197752,0.92755721047,0.0,0.0,0.0,0.0,0.0,0.0,0.0,0.0,0.0,-0.00144320948428,-0.00797868951588,-0.0018909914419,0.0,0.0,0.0,0.0,0.0,0.0,0.0,0.0,0.0,6.46939163856,-0.00368796415258,7.11748647303,0.0,0.0,0.0,0.0,0.0,0.0,0.0,0.0,0.0
27140000000,130,27140000000,imu_link,-0.000637685718248,-0.373696027586,-0.000534691810062,0.927550853823,0.0,0.0,0.0,0.0,0.0,0.0,0.0,0.0,0.0,-0.00183274384944,-0.00849972253541,-0.00171132090732,0.0,0.0,0.0,0.0,0.0,0.0,0.0,0.0,0.0,6.47132830047,-0.00378164540371,7.12006106036,0.0,0.0,0.0,0.0,0.0,0.0,0.0,0.0,0.0
27144000000,131,27144000000,imu_link,-0.000640541892976,-0.373712845936,-0.000539156740372,0.927544073238,0.0,0.0,0.0,0.0,0.0,0.0,0.0,0.0,0.0,-0.00215655263863,-0.00906621598183,-0.00154422955835,0.0,0.0,0.0,0.0,0.0,0.0,0.0,0.0,0.0,6.47075347388,-0.00388282818863,7.11640698286,0.0,0.0,0.0,0.0,0.0,0.0,0.0,0.0,0.0
27148000000,132,27148000000,imu_link,-0.000643901187164,-0.373730714946,-0.000543537876204,0.927536868628,0.0,0.0,0.0,0.0,0.0,0.0,0.0,0.0,0.0,-0.00237408040648,-0.00963287744676,-0.00141180772396,0.0,0.0,0.0,0.0,0.0,0.0,0.0,0.0,0.0,6.47133172105,-0.00397277747542,7.1139622772,0.0,0.0,0.0,0.0,0.0,0.0,0.0,0.0,0.0
27152000000,133,27152000000,imu_link,-0.000647530627401,-0.373749792012,-0.00054778806399,0.927529176686,0.0,0.0,0.0,0.0,0.0,0.0,0.0,0.0,0.0,-0.00247472454784,-0.0102843162234,-0.00130111859133,0.0,0.0,0.0,0.0,0.0,0.0,0.0,0.0,0.0,6.47240947278,-0.00403306880672,7.11399359354,0.0,0.0,0.0,0.0,0.0,0.0,0.0,0.0,0.0
27156000000,134,27156000000,imu_link,-0.0006512518864,-0.37377041896,-0.000551868758881,0.927520859723,0.0,0.0,0.0,0.0,0.0,0.0,0.0,0.0,0.0,-0.00248541072809,-0.0111199778773,-0.00120602815508,0.0,0.0,0.0,0.0,0.0,0.0,0.0,0.0,0.0,6.47449880482,-0.00405035555838,7.11754608705,0.0,0.0,0.0,0.0,0.0,0.0,0.0,0.0,0.0
27160000000,135,27160000000,imu_link,-0.000655081935323,-0.373792592458,-0.000555805608059,0.927511918938,0.0,0.0,0.0,0.0,0.0,0.0,0.0,0.0,0.0,-0.00250875694021,-0.0119538663461,-0.00111966270878,0.0,0.0,0.0,0.0,0.0,0.0,0.0,0.0,0.0,6.47576365719,-0.00400984380341,7.11660612513,0.0,0.0,0.0,0.0,0.0,0.0,0.0,0.0,0.0
27164000000,136,27164000000,imu_link,-0.000659176323944,-0.373815943868,-0.000559637623476,0.927502502639,0.0,0.0,0.0,0.0,0.0,0.0,0.0,0.0,0.0,-0.00261158141393,-0.012589109509,-0.00102215927694,0.0,0.0,0.0,0.0,0.0,0.0,0.0,0.0,0.0,6.47725344166,-0.00396003031565,7.11288072377,0.0,0.0,0.0,0.0,0.0,0.0,0.0,0.0,0.0
27168000000,137,27168000000,imu_link,-0.000663783011474,-0.373839748249,-0.000563399629453,0.927492902723,0.0,0.0,0.0,0.0,0.0,0.0,0.0,0.0,0.0,-0.0028360091205,-0.0128336613812,-0.000894140235487,0.0,0.0,0.0,0.0,0.0,0.0,0.0,0.0,0.0,6.48001366168,-0.00392129409172,7.10865105266,0.0,0.0,0.0,0.0,0.0,0.0,0.0,0.0,0.0
27172000000,138,27172000000,imu_link,-0.000669158523578,-0.373863279627,-0.000567129912804,0.92748341157,0.0,0.0,0.0,0.0,0.0,0.0,0.0,0.0,0.0,-0.00318666000631,-0.0126869545135,-0.000735599141379,0.0,0.0,0.0,0.0,0.0,0.0,0.0,0.0,0.0,6.48188768444,-0.003889588846,7.10308427522,0.0,0.0,0.0,0.0,0.0,0.0,0.0,0.0,0.0
27176000000,139,27176000000,imu_link,-0.000675406173059,-0.373885891311,-0.000570843036021,0.927474289802,0.0,0.0,0.0,0.0,0.0,0.0,0.0,0.0,0.0,-0.00358803591364,-0.0121916571436,-0.000564198746463,0.0,0.0,0.0,0.0,0.0,0.0,0.0,0.0,0.0,6.48298464008,-0.00390031898108,7.09735003432,0.0,0.0,0.0,0.0,0.0,0.0,0.0,0.0,0.0
27180000000,140,27180000000,imu_link,-0.000682420018465,-0.373907238575,-0.000574558129258,0.927465676522,0.0,0.0,0.0,0.0,0.0,0.0,0.0,0.0,0.0,-0.00394390687986,-0.0115104588882,-0.000421305263191,0.0,0.0,0.0,0.0,0.0,0.0,0.0,0.0,0.0,6.48385818529,-0.00396517740898,7.09396939155,0.0,0.0,0.0,0.0,0.0,0.0,0.0,0.0,0.0
27184000000,141,27184000000,imu_link,-0.000690079542324,-0.373927316116,-0.00057829201736,0.927457574033,0.0,0.0,0.0,0.0,0.0,0.0,0.0,0.0,0.0,-0.00424703342809,-0.0108263311249,-0.000308729153123,0.0,0.0,0.0,0.0,0.0,0.0,0.0,0.0,0.0,6.48316971284,-0.00402523097357,7.09035595004,0.0,0.0,0.0,0.0,0.0,0.0,0.0,0.0,0.0
27188000000,142,27188000000,imu_link,-0.000698407434954,-0.373946454059,-0.000582098185562,0.927449849256,0.0,0.0,0.0,0.0,0.0,0.0,0.0,0.0,0.0,-0.00457063037433,-0.0103201619176,-0.000216853432975,0.0,0.0,0.0,0.0,0.0,0.0,0.0,0.0,0.0,6.48394984122,-0.0040472042937,7.09237131195,0.0,0.0,0.0,0.0,0.0,0.0,0.0,0.0,0.0
27192000000,143,27192000000,imu_link,-0.000707232731823,-0.373964921225,-0.000586017693028,0.927442393951,0.0,0.0,0.0,0.0,0.0,0.0,0.0,0.0,0.0,-0.00482258165413,-0.00995882792107,-0.000176097732375,0.0,0.0,0.0,0.0,0.0,0.0,0.0,0.0,0.0,6.48459971795,-0.00410211806164,7.09359335707,0.0,0.0,0.0,0.0,0.0,0.0,0.0,0.0,0.0
27196000000,144,27196000000,imu_link,-0.000716161244144,-0.373983017294,-0.00058998438618,0.927435087651,0.0,0.0,0.0,0.0,0.0,0.0,0.0,0.0,0.0,-0.00487932378703,-0.00975889400133,-0.000178504369883,0.0,0.0,0.0,0.0,0.0,0.0,0.0,0.0,0.0,6.48622982511,-0.00417602407764,7.09632533032,0.0,0.0,0.0,0.0,0.0,0.0,0.0,0.0,0.0
27200000000,145,27200000000,imu_link,-0.000724935265491,-0.374001004198,-0.000593948632376,0.927427824983,0.0,0.0,0.0,0.0,0.0,0.0,0.0,0.0,0.0,-0.00480724263102,-0.00970006914065,-0.000206206212751,0.0,0.0,0.0,0.0,0.0,0.0,0.0,0.0,0.0,6.48743988958,-0.00418908364528,7.09818838411,0.0,0.0,0.0,0.0,0.0,0.0,0.0,0.0,0.0
27204000000,146,27204000000,imu_link,-0.000733688353648,-0.37401922867,-0.000597905670257,0.927420466021,0.0,0.0,0.0,0.0,0.0,0.0,0.0,0.0,0.0,-0.00479615201286,-0.0098282355715,-0.000206892841214,0.0,0.0,0.0,0.0,0.0,0.0,0.0,0.0,0.0,6.48838336812,-0.00410537449576,7.10007789104,0.0,0.0,0.0,0.0,0.0,0.0,0.0,0.0,0.0
27208000000,147,27208000000,imu_link,-0.000742608364241,-0.374037831672,-0.000601880887532,0.927412953732,0.0,0.0,0.0,0.0,0.0,0.0,0.0,0.0,0.0,-0.00487689846031,-0.0100324809173,-0.000184291411022,0.0,0.0,0.0,0.0,0.0,0.0,0.0,0.0,0.0,6.48885808848,-0.00403328723436,7.09922021524,0.0,0.0,0.0,0.0,0.0,0.0,0.0,0.0,0.0
27212000000,148,27212000000,imu_link,-0.00075182330091,-0.37405672598,-0.000605928559493,0.927405323126,0.0,0.0,0.0,0.0,0.0,0.0,0.0,0.0,0.0,-0.00502716425521,-0.0101897511198,-0.000162876132953,0.0,0.0,0.0,0.0,0.0,0.0,0.0,0.0,0.0,6.48973511002,-0.00399001645514,7.09691415553,0.0,0.0,0.0,0.0,0.0,0.0,0.0,0.0,0.0
27216000000,149,27216000000,imu_link,-0.000761181369309,-0.374075454889,-0.000610061680656,0.927397758503,0.0,0.0,0.0,0.0,0.0,0.0,0.0,0.0,0.0,-0.00510954154915,-0.0101007257243,-0.000175647296386,0.0,0.0,0.0,0.0,0.0,0.0,0.0,0.0,0.0,6.49162656364,-0.00393109818897,7.09347650256,0.0,0.0,0.0,0.0,0.0,0.0,0.0,0.0,0.0
27220000000,150,27220000000,imu_link,-0.000770363599862,-0.374093479508,-0.000614236843619,0.927390477546,0.0,0.0,0.0,0.0,0.0,0.0,0.0,0.0,0.0,-0.00503597601032,-0.0097210210561,-0.000227675769668,0.0,0.0,0.0,0.0,0.0,0.0,0.0,0.0,0.0,6.49344951139,-0.00386417164098,7.0896686699,0.0,0.0,0.0,0.0,0.0,0.0,0.0,0.0,0.0
27224000000,151,27224000000,imu_link,-0.000779061806494,-0.374110491916,-0.000618399622977,0.927383604817,0.0,0.0,0.0,0.0,0.0,0.0,0.0,0.0,0.0,-0.00480937373532,-0.00917516203141,-0.000311953387849,0.0,0.0,0.0,0.0,0.0,0.0,0.0,0.0,0.0,6.49450317877,-0.00372866152608,7.08664935443,0.0,0.0,0.0,0.0,0.0,0.0,0.0,0.0,0.0
27228000000,152,27228000000,imu_link,-0.000787309938604,-0.374126486047,-0.000622544230247,0.927377142817,0.0,0.0,0.0,0.0,0.0,0.0,0.0,0.0,0.0,-0.00459743354437,-0.00862603394967,-0.000387192291784,0.0,0.0,0.0,0.0,0.0,0.0,0.0,0.0,0.0,6.49447963094,-0.00353950569938,7.08438804437,0.0,0.0,0.0,0.0,0.0,0.0,0.0,0.0,0.0
27232000000,153,27232000000,imu_link,-0.0007954532812,-0.374141456106,-0.000626710730112,0.927371093635,0.0,0.0,0.0,0.0,0.0,0.0,0.0,0.0,0.0,-0.00455309540074,-0.00807391980944,-0.000416414275443,0.0,0.0,0.0,0.0,0.0,0.0,0.0,0.0,0.0,6.49545219938,-0.00333478032914,7.08420918967,0.0,0.0,0.0,0.0,0.0,0.0,0.0,0.0,0.0
27236000000,154,27236000000,imu_link,-0.000804071887178,-0.374155763023,-0.000630979840311,0.927365311153,0.0,0.0,0.0,0.0,0.0,0.0,0.0,0.0,0.0,-0.00479276527755,-0.00771664668419,-0.000374738015884,0.0,0.0,0.0,0.0,0.0,0.0,0.0,0.0,0.0,6.49731192385,-0.00315794405713,7.08893540899,0.0,0.0,0.0,0.0,0.0,0.0,0.0,0.0,0.0
27240000000,155,27240000000,imu_link,-0.000813325566097,-0.374170012641,-0.000635345838123,0.92735955081,0.0,0.0,0.0,0.0,0.0,0.0,0.0,0.0,0.0,-0.00510537229196,-0.0076860974002,-0.000300824999984,0.0,0.0,0.0,0.0,0.0,0.0,0.0,0.0,0.0,6.49827983175,-0.00313635104116,7.09320130654,0.0,0.0,0.0,0.0,0.0,0.0,0.0,0.0,0.0
27244000000,156,27244000000,imu_link,-0.000823038200566,-0.374184835748,-0.000639780461919,0.927353558243,0.0,0.0,0.0,0.0,0.0,0.0,0.0,0.0,0.0,-0.00533093184483,-0.00799557627627,-0.000247088766715,0.0,0.0,0.0,0.0,0.0,0.0,0.0,0.0,0.0,6.49937705622,-0.00321046172044,7.09797057381,0.0,0.0,0.0,0.0,0.0,0.0,0.0,0.0,0.0
27248000000,157,27248000000,imu_link,-0.000832607941903,-0.374200514655,-0.000644229067513,0.927347220067,0.0,0.0,0.0,0.0,0.0,0.0,0.0,0.0,0.0,-0.0052671599694,-0.00845700040285,-0.000280768758963,0.0,0.0,0.0,0.0,0.0,0.0,0.0,0.0,0.0,6.50120821755,-0.00332993503128,7.10104286812,0.0,0.0,0.0,0.0,0.0,0.0,0.0,0.0,0.0
27252000000,158,27252000000,imu_link,-0.000841242682615,-0.374217068401,-0.000648616376831,0.927340529323,0.0,0.0,0.0,0.0,0.0,0.0,0.0,0.0,0.0,-0.00482202128198,-0.00892833012229,-0.000427763916444,0.0,0.0,0.0,0.0,0.0,0.0,0.0,0.0,0.0,6.50270922859,-0.00340108448563,7.10101802155,0.0,0.0,0.0,0.0,0.0,0.0,0.0,0.0,0.0
27256000000,159,27256000000,imu_link,-0.000848398737264,-0.374234415595,-0.000652911947028,0.92733351935,0.0,0.0,0.0,0.0,0.0,0.0,0.0,0.0,0.0,-0.00411911030416,-0.00935551802604,-0.000662339266431,0.0,0.0,0.0,0.0,0.0,0.0,0.0,0.0,0.0,6.50288679025,-0.00333357716772,7.097519483,0.0,0.0,0.0,0.0,0.0,0.0,0.0,0.0,0.0
27260000000,160,27260000000,imu_link,-0.000853900937803,-0.374252473485,-0.000657113208335,0.927326223691,0.0,0.0,0.0,0.0,0.0,0.0,0.0,0.0,0.0,-0.00333451548828,-0.00973800055145,-0.000928470671941,0.0,0.0,0.0,0.0,0.0,0.0,0.0,0.0,0.0,6.50309794885,-0.0031054934034,7.09382107727,0.0,0.0,0.0,0.0,0.0,0.0,0.0,0.0,0.0
27264000000,161,27264000000,imu_link,-0.000857732888559,-0.374271224067,-0.000661202627121,0.927318649624,0.0,0.0,0.0,0.0,0.0,0.0,0.0,0.0,0.0,-0.00253904488461,-0.0101107727381,-0.00118954819547,0.0,0.0,0.0,0.0,0.0,0.0,0.0,0.0,0.0,6.50334596597,-0.00278811501377,7.09113937152,0.0,0.0,0.0,0.0,0.0,0.0,0.0,0.0,0.0
27268000000,162,27268000000,imu_link,-0.000859782382426,-0.374290787572,-0.00066518927673,0.92731074869,0.0,0.0,0.0,0.0,0.0,0.0,0.0,0.0,0.0,-0.00169323178239,-0.01054831553,-0.00147591616723,0.0,0.0,0.0,0.0,0.0,0.0,0.0,0.0,0.0,6.50405958808,-0.00244324337787,7.09069455126,0.0,0.0,0.0,0.0,0.0,0.0,0.0,0.0,0.0
27272000000,163,27272000000,imu_link,-0.000859814170231,-0.374311313493,-0.000669025794841,0.927302460751,0.0,0.0,0.0,0.0,0.0,0.0,0.0,0.0,0.0,-0.000729461380249,-0.0110663642464,-0.0017844537364,0.0,0.0,0.0,0.0,0.0,0.0,0.0,0.0,0.0,6.50446535339,-0.0021679860944,7.0900214191,0.0,0.0,0.0,0.0,0.0,0.0,0.0,0.0,0.0
27276000000,164,27276000000,imu_link,-0.000857559767248,-0.374332730834,-0.000672703881546,0.927293814649,0.0,0.0,0.0,0.0,0.0,0.0,0.0,0.0,0.0,0.000360329340371,-0.0115460081855,-0.00213937339682,0.0,0.0,0.0,0.0,0.0,0.0,0.0,0.0,0.0,6.5055496337,-0.00188433641053,7.0888638533,0.0,0.0,0.0,0.0,0.0,0.0,0.0,0.0,0.0
27280000000,165,27280000000,imu_link,-0.000853074403628,-0.374354606682,-0.000676232906785,0.927284985012,0.0,0.0,0.0,0.0,0.0,0.0,0.0,0.0,0.0,0.00142268215667,-0.0117922584921,-0.00248808063415,0.0,0.0,0.0,0.0,0.0,0.0,0.0,0.0,0.0,6.50777721395,-0.00152403535099,7.08673903307,0.0,0.0,0.0,0.0,0.0,0.0,0.0,0.0,0.0
27284000000,166,27284000000,imu_link,-0.000846702857431,-0.374376403153,-0.000679629720192,0.927276188608,0.0,0.0,0.0,0.0,0.0,0.0,0.0,0.0,0.0,0.00232193093917,-0.011748654278,-0.00277978708553,0.0,0.0,0.0,0.0,0.0,0.0,0.0,0.0,0.0,6.50949448275,-0.00111790815675,7.08272157741,0.0,0.0,0.0,0.0,0.0,0.0,0.0,0.0,0.0
27288000000,167,27288000000,imu_link,-0.000839058948249,-0.374397766112,-0.000682921573341,0.927267567819,0.0,0.0,0.0,0.0,0.0,0.0,0.0,0.0,0.0,0.00293142124392,-0.0115144006928,-0.00296905164635,0.0,0.0,0.0,0.0,0.0,0.0,0.0,0.0,0.0,6.51173083599,-0.00076108399086,7.08162138204,0.0,0.0,0.0,0.0,0.0,0.0,0.0,0.0,0.0
27292000000,168,27292000000,imu_link,-0.000830729904634,-0.374418497873,-0.000686152138535,0.927259201914,0.0,0.0,0.0,0.0,0.0,0.0,0.0,0.0,0.0,0.00326043715183,-0.0111738331353,-0.00306854104018,0.0,0.0,0.0,0.0,0.0,0.0,0.0,0.0,0.0,6.51334605722,-0.000516608091622,7.08062896099,0.0,0.0,0.0,0.0,0.0,0.0,0.0,0.0,0.0
27296000000,169,27296000000,imu_link,-0.00082213357697,-0.374438378994,-0.000689339016819,0.927251179155,0.0,0.0,0.0,0.0,0.0,0.0,0.0,0.0,0.0,0.00339238723966,-0.0107151378863,-0.00309785349144,0.0,0.0,0.0,0.0,0.0,0.0,0.0,0.0,0.0,6.51392859332,-0.000392139126427,7.07757008435,0.0,0.0,0.0,0.0,0.0,0.0,0.0,0.0,0.0
27300000000,170,27300000000,imu_link,-0.00081345787788,-0.374456984447,-0.000692457855636,0.927243671096,0.0,0.0,0.0,0.0,0.0,0.0,0.0,0.0,0.0,0.00344169604958,-0.0100273449009,-0.00308046672107,0.0,0.0,0.0,0.0,0.0,0.0,0.0,0.0,0.0,6.5151310139,-0.000369877025972,7.07389373967,0.0,0.0,0.0,0.0,0.0,0.0,0.0,0.0,0.0
27304000000,171,27304000000,imu_link,-0.000804678720243,-0.374474144631,-0.000695466745782,0.927236746371,0.0,0.0,0.0,0.0,0.0,0.0,0.0,0.0,0.0,0.00350998407966,-0.00924807809963,-0.00304807270364,0.0,0.0,0.0,0.0,0.0,0.0,0.0,0.0,0.0,6.51485828131,-0.000409715870104,7.06925633091,0.0,0.0,0.0,0.0,0.0,0.0,0.0,0.0,0.0
27308000000,172,27308000000,imu_link,-0.000795878713513,-0.374490167108,-0.000698383281691,0.92723028077,0.0,0.0,0.0,0.0,0.0,0.0,0.0,0.0,0.0,0.0035367313445,-0.00863468181975,-0.00300854190947,0.0,0.0,0.0,0.0,0.0,0.0,0.0,0.0,0.0,6.51553768229,-0.000398117553733,7.07076903305,0.0,0.0,0.0,0.0,0.0,0.0,0.0,0.0,0.0
27312000000,173,27312000000,imu_link,-0.000787056040862,-0.374505659821,-0.000701246241365,0.927224028786,0.0,0.0,0.0,0.0,0.0,0.0,0.0,0.0,0.0,0.00355717151235,-0.00834908938911,-0.00298766182982,0.0,0.0,0.0,0.0,0.0,0.0,0.0,0.0,0.0,6.51753160766,-0.00042742636473,7.07752790545,0.0,0.0,0.0,0.0,0.0,0.0,0.0,0.0,0.0
27316000000,174,27316000000,imu_link,-0.000778199527929,-0.374521386324,-0.000704083711884,0.927217682024,0.0,0.0,0.0,0.0,0.0,0.0,0.0,0.0,0.0,0.00357767786385,-0.00847522272544,-0.00298230667442,0.0,0.0,0.0,0.0,0.0,0.0,0.0,0.0,0.0,6.51967945832,-0.000511428633617,7.08573025755,0.0,0.0,0.0,0.0,0.0,0.0,0.0,0.0,0.0
27320000000,175,27320000000,imu_link,-0.000769526410134,-0.374537792102,-0.000706946830831,0.9272110603,0.0,0.0,0.0,0.0,0.0,0.0,0.0,0.0,0.0,0.00348798346074,-0.00884168532508,-0.00296021591628,0.0,0.0,0.0,0.0,0.0,0.0,0.0,0.0,0.0,6.52077633654,-0.000531034147148,7.08909105983,0.0,0.0,0.0,0.0,0.0,0.0,0.0,0.0,0.0
27324000000,176,27324000000,imu_link,-0.000761422850515,-0.374554967695,-0.000709863847846,0.927204126665,0.0,0.0,0.0,0.0,0.0,0.0,0.0,0.0,0.0,0.00321399180499,-0.00925716717992,-0.00287894927587,0.0,0.0,0.0,0.0,0.0,0.0,0.0,0.0,0.0,6.52101880218,-0.000545111838537,7.08771402885,0.0,0.0,0.0,0.0,0.0,0.0,0.0,0.0,0.0
27328000000,177,27328000000,imu_link,-0.000754138400488,-0.3745727228,-0.000712856276687,0.927196957742,0.0,0.0,0.0,0.0,0.0,0.0,0.0,0.0,0.0,0.00282024408236,-0.00957015662591,-0.00276081370907,0.0,0.0,0.0,0.0,0.0,0.0,0.0,0.0,0.0,6.52195069958,-0.000622055636216,7.08533190664,0.0,0.0,0.0,0.0,0.0,0.0,0.0,0.0,0.0
27332000000,178,27332000000,imu_link,-0.000747317294375,-0.374590514411,-0.000715880045821,0.92718977321,0.0,0.0,0.0,0.0,0.0,0.0,0.0,0.0,0.0,0.00259957606555,-0.00959015693757,-0.0026885843538,0.0,0.0,0.0,0.0,0.0,0.0,0.0,0.0,0.0,6.52414225481,-0.000830658720294,7.08192552941,0.0,0.0,0.0,0.0,0.0,0.0,0.0,0.0,0.0
27336000000,179,27336000000,imu_link,-0.00074043531086,-0.374607781442,-0.000718881288624,0.927182800233,0.0,0.0,0.0,0.0,0.0,0.0,0.0,0.0,0.0,0.0026319088729,-0.00930732789707,-0.00268927157269,0.0,0.0,0.0,0.0,0.0,0.0,0.0,0.0,0.0,6.52648587221,-0.00101616118206,7.0789886919,0.0,0.0,0.0,0.0,0.0,0.0,0.0,0.0,0.0
27340000000,180,27340000000,imu_link,-0.000733164520181,-0.374624453823,-0.00072183424201,0.927176067434,0.0,0.0,0.0,0.0,0.0,0.0,0.0,0.0,0.0,0.00282107650361,-0.00898654564063,-0.00273940362998,0.0,0.0,0.0,0.0,0.0,0.0,0.0,0.0,0.0,6.52704282754,-0.00108691185488,7.07709345554,0.0,0.0,0.0,0.0,0.0,0.0,0.0,0.0,0.0
27344000000,181,27344000000,imu_link,-0.000725383612531,-0.374640980356,-0.000724701733604,0.927169393619,0.0,0.0,0.0,0.0,0.0,0.0,0.0,0.0,0.0,0.0030735376488,-0.00890773025656,-0.00279526095715,0.0,0.0,0.0,0.0,0.0,0.0,0.0,0.0,0.0,6.52827374936,-0.00107726656296,7.080850741,0.0,0.0,0.0,0.0,0.0,0.0,0.0,0.0,0.0
27348000000,182,27348000000,imu_link,-0.00071724269845,-0.374658126235,-0.000727487875228,0.927162469458,0.0,0.0,0.0,0.0,0.0,0.0,0.0,0.0,0.0,0.00325580325935,-0.00924164409422,-0.00282530028239,0.0,0.0,0.0,0.0,0.0,0.0,0.0,0.0,0.0,6.53062833472,-0.00100031947728,7.08935220401,0.0,0.0,0.0,0.0,0.0,0.0,0.0,0.0,0.0
27352000000,183,27352000000,imu_link,-0.000708771655443,-0.374676625135,-0.000730163777655,0.927154998412,0.0,0.0,0.0,0.0,0.0,0.0,0.0,0.0,0.0,0.0034297918696,-0.00997124628673,-0.0028367223504,0.0,0.0,0.0,0.0,0.0,0.0,0.0,0.0,0.0,6.53272190035,-0.000960248530818,7.09676831311,0.0,0.0,0.0,0.0,0.0,0.0,0.0,0.0,0.0
27356000000,184,27356000000,imu_link,-0.000699909189766,-0.374696852705,-0.000732678402136,0.927146828654,0.0,0.0,0.0,0.0,0.0,0.0,0.0,0.0,0.0,0.00364184364201,-0.0109034282937,-0.0028361536888,0.0,0.0,0.0,0.0,0.0,0.0,0.0,0.0,0.0,6.53389560249,-0.000974008498716,7.09951311622,0.0,0.0,0.0,0.0,0.0,0.0,0.0,0.0,0.0
27360000000,185,27360000000,imu_link,-0.000690706929866,-0.374718746364,-0.00073502852604,0.927137985297,0.0,0.0,0.0,0.0,0.0,0.0,0.0,0.0,0.0,0.00383055675961,-0.0118019137488,-0.00282438532917,0.0,0.0,0.0,0.0,0.0,0.0,0.0,0.0,0.0,6.53409923212,-0.00100532606776,7.09664138413,0.0,0.0,0.0,0.0,0.0,0.0,0.0,0.0,0.0
27364000000,186,27364000000,imu_link,-0.000681237264861,-0.374741841732,-0.00073721467905,0.927128655843,0.0,0.0,0.0,0.0,0.0,0.0,0.0,0.0,0.0,0.00398551272881,-0.0124500217822,-0.00279906802194,0.0,0.0,0.0,0.0,0.0,0.0,0.0,0.0,0.0,6.53480449938,-0.00101163234262,7.09138690008,0.0,0.0,0.0,0.0,0.0,0.0,0.0,0.0,0.0
27368000000,187,27368000000,imu_link,-0.000671611903239,-0.374765376237,-0.000739250180195,0.927119148341,0.0,0.0,0.0,0.0,0.0,0.0,0.0,0.0,0.0,0.00408601712793,-0.0126869451058,-0.00275861941838,0.0,0.0,0.0,0.0,0.0,0.0,0.0,0.0,0.0,6.53650032288,-0.00101189624738,7.08574766266,0.0,0.0,0.0,0.0,0.0,0.0,0.0,0.0,0.0
27372000000,188,27372000000,imu_link,-0.000661936498827,-0.374788468801,-0.000741156009474,0.927109818836,0.0,0.0,0.0,0.0,0.0,0.0,0.0,0.0,0.0,0.00413340962461,-0.0124487503575,-0.00270767173647,0.0,0.0,0.0,0.0,0.0,0.0,0.0,0.0,0.0,6.53839157771,-0.00102042022025,7.07974912171,0.0,0.0,0.0,0.0,0.0,0.0,0.0,0.0,0.0
27376000000,189,27376000000,imu_link,-0.000652054758009,-0.374810518563,-0.00074292437512,0.927100910399,0.0,0.0,0.0,0.0,0.0,0.0,0.0,0.0,0.0,0.00425457069213,-0.0118864180469,-0.00268211487519,0.0,0.0,0.0,0.0,0.0,0.0,0.0,0.0,0.0,6.53950960376,-0.00107354331072,7.07465873904,0.0,0.0,0.0,0.0,0.0,0.0,0.0,0.0,0.0
27380000000,190,27380000000,imu_link,-0.000641807613891,-0.374831228423,-0.000744547939493,0.927092543347,0.0,0.0,0.0,0.0,0.0,0.0,0.0,0.0,0.0,0.00445076886133,-0.0111637590239,-0.00268283272972,0.0,0.0,0.0,0.0,0.0,0.0,0.0,0.0,0.0,6.54031830962,-0.00112272786811,7.07146283893,0.0,0.0,0.0,0.0,0.0,0.0,0.0,0.0,0.0
27384000000,191,27384000000,imu_link,-0.000631102327654,-0.374850621106,-0.00074602165601,0.927084708653,0.0,0.0,0.0,0.0,0.0,0.0,0.0,0.0,0.0,0.00469090324542,-0.0104532914591,-0.00269861343166,0.0,0.0,0.0,0.0,0.0,0.0,0.0,0.0,0.0,6.54006016525,-0.00111816020602,7.06914784024,0.0,0.0,0.0,0.0,0.0,0.0,0.0,0.0,0.0
27388000000,192,27388000000,imu_link,-0.000620095788006,-0.374869227777,-0.000747398786867,0.927077191469,0.0,0.0,0.0,0.0,0.0,0.0,0.0,0.0,0.0,0.00484845655763,-0.0100293503894,-0.0027099379394,0.0,0.0,0.0,0.0,0.0,0.0,0.0,0.0,0.0,6.54120557424,-0.00105208173711,7.07361209391,0.0,0.0,0.0,0.0,0.0,0.0,0.0,0.0,0.0
27392000000,193,27392000000,imu_link,-0.000609166554155,-0.374887633291,-0.000748752064775,0.92706975503,0.0,0.0,0.0,0.0,0.0,0.0,0.0,0.0,0.0,0.00481704306811,-0.00992100837224,-0.00268429885245,0.0,0.0,0.0,0.0,0.0,0.0,0.0,0.0,0.0,6.54213289649,-0.000966150335216,7.07811754524,0.0,0.0,0.0,0.0,0.0,0.0,0.0,0.0,0.0
27396000000,194,27396000000,imu_link,-0.000598796248869,-0.374906393243,-0.000750165348247,0.927062174291,0.0,0.0,0.0,0.0,0.0,0.0,0.0,0.0,0.0,0.00454680125362,-0.0101125420205,-0.00260750779941,0.0,0.0,0.0,0.0,0.0,0.0,0.0,0.0,0.0,6.54454740713,-0.000916889649695,7.08500169046,0.0,0.0,0.0,0.0,0.0,0.0,0.0,0.0,0.0
27400000000,195,27400000000,imu_link,-0.000589261304592,-0.374925662595,-0.000751644803676,0.927054386392,0.0,0.0,0.0,0.0,0.0,0.0,0.0,0.0,0.0,0.00414731035598,-0.0103877906784,-0.0024818196818,0.0,0.0,0.0,0.0,0.0,0.0,0.0,0.0,0.0,6.54461206862,-0.000997038489946,7.08395391108,0.0,0.0,0.0,0.0,0.0,0.0,0.0,0.0,0.0
27404000000,196,27404000000,imu_link,-0.000580674365924,-0.374945454641,-0.000753169195467,0.927046385893,0.0,0.0,0.0,0.0,0.0,0.0,0.0,0.0,0.0,0.00369959388096,-0.0106702714887,-0.00232516699402,0.0,0.0,0.0,0.0,0.0,0.0,0.0,0.0,0.0,6.54461863391,-0.0011812481653,7.08163843612,0.0,0.0,0.0,0.0,0.0,0.0,0.0,0.0,0.0
27408000000,197,27408000000,imu_link,-0.000573157095437,-0.374965790966,-0.000754725041707,0.927038163986,0.0,0.0,0.0,0.0,0.0,0.0,0.0,0.0,0.0,0.00319802170249,-0.0109644590572,-0.00213945465232,0.0,0.0,0.0,0.0,0.0,0.0,0.0,0.0,0.0,6.54460842534,-0.00139630929432,7.07945434371,0.0,0.0,0.0,0.0,0.0,0.0,0.0,0.0,0.0
27412000000,198,27412000000,imu_link,-0.000566719196639,-0.374986569554,-0.000756319335056,0.927029761909,0.0,0.0,0.0,0.0,0.0,0.0,0.0,0.0,0.0,0.0026906194137,-0.0112036315406,-0.00195510662435,0.0,0.0,0.0,0.0,0.0,0.0,0.0,0.0,0.0,6.54464516314,-0.00161232853927,7.07638927609,0.0,0.0,0.0,0.0,0.0,0.0,0.0,0.0,0.0
27416000000,199,27416000000,imu_link,-0.000561204430531,-0.375007469933,-0.000757955825461,0.927021309381,0.0,0.0,0.0,0.0,0.0,0.0,0.0,0.0,0.0,0.00225485377072,-0.0112698800041,-0.00180163799619,0.0,0.0,0.0,0.0,0.0,0.0,0.0,0.0,0.0,6.54560650067,-0.00184787941363,7.07333971567,0.0,0.0,0.0,0.0,0.0,0.0,0.0,0.0,0.0
27420000000,200,27420000000,imu_link,-0.000556224523956,-0.375027896163,-0.000759620565848,0.927013047746,0.0,0.0,0.0,0.0,0.0,0.0,0.0,0.0,0.0,0.00200151757383,-0.0110145080915,-0.00171423861274,0.0,0.0,0.0,0.0,0.0,0.0,0.0,0.0,0.0,6.5472392951,-0.00206682271365,7.06916273888,0.0,0.0,0.0,0.0,0.0,0.0,0.0,0.0,0.0
27424000000,201,27424000000,imu_link,-0.000551360338594,-0.375047410296,-0.000761275479593,0.927005154512,0.0,0.0,0.0,0.0,0.0,0.0,0.0,0.0,0.0,0.00194947870222,-0.0105227118691,-0.00168759097012,0.0,0.0,0.0,0.0,0.0,0.0,0.0,0.0,0.0,6.54892953987,-0.00223766980002,7.06632800185,0.0,0.0,0.0,0.0,0.0,0.0,0.0,0.0,0.0
27428000000,202,27428000000,imu_link,-0.000546099819595,-0.375065794633,-0.000762875489809,0.92699771817,0.0,0.0,0.0,0.0,0.0,0.0,0.0,0.0,0.0,0.00214317199058,-0.00991323438721,-0.00173597962226,0.0,0.0,0.0,0.0,0.0,0.0,0.0,0.0,0.0,6.54996975325,-0.00234646971432,7.06456514895,0.0,0.0,0.0,0.0,0.0,0.0,0.0,0.0,0.0
27432000000,203,27432000000,imu_link,-0.000540035819422,-0.375083228337,-0.000764382149812,0.926990666567,0.0,0.0,0.0,0.0,0.0,0.0,0.0,0.0,0.0,0.00253283327964,-0.00940018513391,-0.00184298473346,0.0,0.0,0.0,0.0,0.0,0.0,0.0,0.0,0.0,6.55072465918,-0.00235837382493,7.06575602887,0.0,0.0,0.0,0.0,0.0,0.0,0.0,0.0,0.0
27436000000,204,27436000000,imu_link,-0.000532863016864,-0.375100017051,-0.000765746014436,0.926983876288,0.0,0.0,0.0,0.0,0.0,0.0,0.0,0.0,0.0,0.00307336213979,-0.00905184042875,-0.00198447229564,0.0,0.0,0.0,0.0,0.0,0.0,0.0,0.0,0.0,6.55174190639,-0.00229177698216,7.06844051036,0.0,0.0,0.0,0.0,0.0,0.0,0.0,0.0,0.0
27440000000,205,27440000000,imu_link,-0.000524530712684,-0.375116495886,-0.000766956162761,0.92697721178,0.0,0.0,0.0,0.0,0.0,0.0,0.0,0.0,0.0,0.0036395261518,-0.00888422336486,-0.00213055985445,0.0,0.0,0.0,0.0,0.0,0.0,0.0,0.0,0.0,6.55319461569,-0.00214344686551,7.07144394882,0.0,0.0,0.0,0.0,0.0,0.0,0.0,0.0,0.0
27444000000,206,27444000000,imu_link,-0.000515286741487,-0.375132752623,-0.000768052376709,0.926970637337,0.0,0.0,0.0,0.0,0.0,0.0,0.0,0.0,0.0,0.00408338120988,-0.00876407120688,-0.00224865045075,0.0,0.0,0.0,0.0,0.0,0.0,0.0,0.0,0.0,6.55327736754,-0.0018953152299,7.06975903821,0.0,0.0,0.0,0.0,0.0,0.0,0.0,0.0,0.0
27448000000,207,27448000000,imu_link,-0.000505508690608,-0.375148794617,-0.00076906767129,0.926964149735,0.0,0.0,0.0,0.0,0.0,0.0,0.0,0.0,0.0,0.00434603696123,-0.0086480679539,-0.00231123222603,0.0,0.0,0.0,0.0,0.0,0.0,0.0,0.0,0.0,6.55387072529,-0.00171842618526,7.06882924718,0.0,0.0,0.0,0.0,0.0,0.0,0.0,0.0,0.0
27452000000,208,27452000000,imu_link,-0.000495426619653,-0.3751650302,-0.00077000689685,0.92695758358,0.0,0.0,0.0,0.0,0.0,0.0,0.0,0.0,0.0,0.00450126800468,-0.00875242988386,-0.0023330811175,0.0,0.0,0.0,0.0,0.0,0.0,0.0,0.0,0.0,6.55510217629,-0.00169738080875,7.07254173452,0.0,0.0,0.0,0.0,0.0,0.0,0.0,0.0,0.0
27456000000,209,27456000000,imu_link,-0.000485130484755,-0.375181909848,-0.000770840800212,0.9269507565,0.0,0.0,0.0,0.0,0.0,0.0,0.0,0.0,0.0,0.00462042203774,-0.00909982921638,-0.00232468116597,0.0,0.0,0.0,0.0,0.0,0.0,0.0,0.0,0.0,6.5563504965,-0.0016992753428,7.07660409738,0.0,0.0,0.0,0.0,0.0,0.0,0.0,0.0,0.0
27460000000,210,27460000000,imu_link,-0.000474634346777,-0.375199494638,-0.000771548773512,0.926943643734,0.0,0.0,0.0,0.0,0.0,0.0,0.0,0.0,0.0,0.00473694435992,-0.00948019034437,-0.00230411560377,0.0,0.0,0.0,0.0,0.0,0.0,0.0,0.0,0.0,6.5570446,-0.00170994287967,7.07637748995,0.0,0.0,0.0,0.0,0.0,0.0,0.0,0.0,0.0
27464000000,211,27464000000,imu_link,-0.000463884765343,-0.375217627887,-0.000772122993877,0.926936308686,0.0,0.0,0.0,0.0,0.0,0.0,0.0,0.0,0.0,0.00487965910768,-0.0097760201384,-0.00228988672532,0.0,0.0,0.0,0.0,0.0,0.0,0.0,0.0,0.0,6.55718520422,-0.00172573844036,7.07298758948,0.0,0.0,0.0,0.0,0.0,0.0,0.0,0.0,0.0
27468000000,212,27468000000,imu_link,-0.000453041500042,-0.375236048276,-0.000772571147648,0.926928857012,0.0,0.0,0.0,0.0,0.0,0.0,0.0,0.0,0.0,0.00494681360396,-0.00993097338846,-0.00224914641741,0.0,0.0,0.0,0.0,0.0,0.0,0.0,0.0,0.0,6.55813789245,-0.00170788002346,7.06995667037,0.0,0.0,0.0,0.0,0.0,0.0,0.0,0.0,0.0
27472000000,213,27472000000,imu_link,-0.000442422910868,-0.375254527822,-0.00077290605243,0.926921380823,0.0,0.0,0.0,0.0,0.0,0.0,0.0,0.0,0.0,0.00486394906089,-0.00996310193894,-0.00215452911825,0.0,0.0,0.0,0.0,0.0,0.0,0.0,0.0,0.0,6.55939790658,-0.00170330313179,7.0679306082,0.0,0.0,0.0,0.0,0.0,0.0,0.0,0.0,0.0
27476000000,214,27476000000,imu_link,-0.000432391453939,-0.375272971335,-0.000773117831869,0.926913918502,0.0,0.0,0.0,0.0,0.0,0.0,0.0,0.0,0.0,0.0046149271591,-0.00994405493672,-0.00198729001512,0.0,0.0,0.0,0.0,0.0,0.0,0.0,0.0,0.0,6.56055882272,-0.00172088341522,7.06722071601,0.0,0.0,0.0,0.0,0.0,0.0,0.0,0.0,0.0
27480000000,215,27480000000,imu_link,-0.000423137574092,-0.37529143611,-0.000773168356331,0.926906446815,0.0,0.0,0.0,0.0,0.0,0.0,0.0,0.0,0.0,0.00428481716048,-0.00995600161823,-0.00176666165972,0.0,0.0,0.0,0.0,0.0,0.0,0.0,0.0,0.0,6.56177439327,-0.00182491068764,7.06792033317,0.0,0.0,0.0,0.0,0.0,0.0,0.0,0.0,0.0
27484000000,216,27484000000,imu_link,-0.000415069835956,-0.375309843234,-0.000773058126752,0.926898997556,0.0,0.0,0.0,0.0,0.0,0.0,0.0,0.0,0.0,0.00376524322607,-0.00992556702477,-0.00146956440118,0.0,0.0,0.0,0.0,0.0,0.0,0.0,0.0,0.0,6.56286775578,-0.00191707514682,7.06726240099,0.0,0.0,0.0,0.0,0.0,0.0,0.0,0.0,0.0
27488000000,217,27488000000,imu_link,-0.000408636716307,-0.375327997347,-0.000772866974688,0.926891649601,0.0,0.0,0.0,0.0,0.0,0.0,0.0,0.0,0.0,0.0030227888381,-0.00978994715291,-0.00112522504566,0.0,0.0,0.0,0.0,0.0,0.0,0.0,0.0,0.0,6.56328597027,-0.00203828763611,7.06378781989,0.0,0.0,0.0,0.0,0.0,0.0,0.0,0.0,0.0
27492000000,218,27492000000,imu_link,-0.000403952616301,-0.3753454871,-0.000772643468605,0.92688456949,0.0,0.0,0.0,0.0,0.0,0.0,0.0,0.0,0.0,0.00221808266608,-0.00943247059959,-0.00078176344623,0.0,0.0,0.0,0.0,0.0,0.0,0.0,0.0,0.0,6.56474714929,-0.00232120387497,7.06087206117,0.0,0.0,0.0,0.0,0.0,0.0,0.0,0.0,0.0
27496000000,219,27496000000,imu_link,-0.000400841102729,-0.375362107931,-0.000772400972946,0.926877840199,0.0,0.0,0.0,0.0,0.0,0.0,0.0,0.0,0.0,0.0014925786158,-0.00896454750711,-0.000477520231828,0.0,0.0,0.0,0.0,0.0,0.0,0.0,0.0,0.0,6.56562939126,-0.00269792849112,7.05909443306,0.0,0.0,0.0,0.0,0.0,0.0,0.0,0.0,0.0
27500000000,220,27500000000,imu_link,-0.000399109183932,-0.37537805924,-0.000772137057362,0.92687138113,0.0,0.0,0.0,0.0,0.0,0.0,0.0,0.0,0.0,0.000857036404976,-0.00860408645753,-0.000208431057922,0.0,0.0,0.0,0.0,0.0,0.0,0.0,0.0,0.0,6.5665800163,-0.0030119338256,7.06090267655,0.0,0.0,0.0,0.0,0.0,0.0,0.0,0.0,0.0
27504000000,221,27504000000,imu_link,-0.000398332716846,-0.37539391413,-0.000771754008305,0.926864960478,0.0,0.0,0.0,0.0,0.0,0.0,0.0,0.0,0.0,0.000436576469409,-0.0085525843731,2.61415226447e-05,0.0,0.0,0.0,0.0,0.0,0.0,0.0,0.0,0.0,6.56856827154,-0.00331019881998,7.06762844066,0.0,0.0,0.0,0.0,0.0,0.0,0.0,0.0,0.0
27508000000,222,27508000000,imu_link,-0.000398076411801,-0.375410048035,-0.000771161529536,0.926858426449,0.0,0.0,0.0,0.0,0.0,0.0,0.0,0.0,0.0,0.00023491088937,-0.0087034119873,0.00022073156578,0.0,0.0,0.0,0.0,0.0,0.0,0.0,0.0,0.0,6.56892597778,-0.00353088346409,7.0693291821,0.0,0.0,0.0,0.0,0.0,0.0,0.0,0.0,0.0
27512000000,223,27512000000,imu_link,-0.000397957882492,-0.375426430811,-0.00077034974534,0.92685179141,0.0,0.0,0.0,0.0,0.0,0.0,0.0,0.0,0.0,0.000212302173134,-0.00883780323515,0.000348136822521,0.0,0.0,0.0,0.0,0.0,0.0,0.0,0.0,0.0,6.56911864518,-0.00365738111666,7.06710670673,0.0,0.0,0.0,0.0,0.0,0.0,0.0,0.0,0.0
27516000000,224,27516000000,imu_link,-0.000397626195909,-0.375442873763,-0.000769330863277,0.92684513192,0.0,0.0,0.0,0.0,0.0,0.0,0.0,0.0,0.0,0.000349978094013,-0.00887023875436,0.000404077508327,0.0,0.0,0.0,0.0,0.0,0.0,0.0,0.0,0.0,6.57084335713,-0.00374548646568,7.06649352689,0.0,0.0,0.0,0.0,0.0,0.0,0.0,0.0,0.0
27520000000,225,27520000000,imu_link,-0.000397032948705,-0.375459185296,-0.000768130055333,0.92683852559,0.0,0.0,0.0,0.0,0.0,0.0,0.0,0.0,0.0,0.000505302592066,-0.00879929301323,0.00043933210791,0.0,0.0,0.0,0.0,0.0,0.0,0.0,0.0,0.0,6.57125247236,-0.00372427550609,7.06332748624,0.0,0.0,0.0,0.0,0.0,0.0,0.0,0.0,0.0
27524000000,226,27524000000,imu_link,-0.000396125866916,-0.375475306895,-0.00076675477951,0.926831996148,0.0,0.0,0.0,0.0,0.0,0.0,0.0,0.0,0.0,0.000683434684774,-0.00869675325216,0.000461335080474,0.0,0.0,0.0,0.0,0.0,0.0,0.0,0.0,0.0,6.57156193273,-0.00370063678157,7.06121948181,0.0,0.0,0.0,0.0,0.0,0.0,0.0,0.0,0.0
27528000000,227,27528000000,imu_link,-0.00039462821823,-0.375491439897,-0.000765213991749,0.926825462145,0.0,0.0,0.0,0.0,0.0,0.0,0.0,0.0,0.0,0.000988189123795,-0.00870270061616,0.000427160309606,0.0,0.0,0.0,0.0,0.0,0.0,0.0,0.0,0.0,6.5722594884,-0.00371311882235,7.06205961748,0.0,0.0,0.0,0.0,0.0,0.0,0.0,0.0,0.0
27532000000,228,27532000000,imu_link,-0.000392252830801,-0.375507876302,-0.000763538848402,0.926818805367,0.0,0.0,0.0,0.0,0.0,0.0,0.0,0.0,0.0,0.00142026097712,-0.00886604300775,0.000324523865601,0.0,0.0,0.0,0.0,0.0,0.0,0.0,0.0,0.0,6.57411457873,-0.00368909625583,7.0658518421,0.0,0.0,0.0,0.0,0.0,0.0,0.0,0.0,0.0
27536000000,229,27536000000,imu_link,-0.000388981083804,-0.375524787609,-0.000761755191176,0.926811956286,0.0,0.0,0.0,0.0,0.0,0.0,0.0,0.0,0.0,0.0018561599243,-0.00912190115838,0.000206348622845,0.0,0.0,0.0,0.0,0.0,0.0,0.0,0.0,0.0,6.57561917207,-0.00354177558909,7.06779012039,0.0,0.0,0.0,0.0,0.0,0.0,0.0,0.0,0.0
27540000000,230,27540000000,imu_link,-0.000385075710662,-0.375542174016,-0.00075990241824,0.92680491464,0.0,0.0,0.0,0.0,0.0,0.0,0.0,0.0,0.0,0.00216290690251,-0.00937799402024,0.000119240347804,0.0,0.0,0.0,0.0,0.0,0.0,0.0,0.0,0.0,6.57654336359,-0.0033647225711,7.06719411851,0.0,0.0,0.0,0.0,0.0,0.0,0.0,0.0,0.0
27544000000,231,27544000000,imu_link,-0.000381124514337,-0.375559764922,-0.000758067791985,0.92679778973,0.0,0.0,0.0,0.0,0.0,0.0,0.0,0.0,0.0,0.00218079572419,-0.00948837342963,0.000102155852246,0.0,0.0,0.0,0.0,0.0,0.0,0.0,0.0,0.0,6.57755992813,-0.0032410628266,7.06464583998,0.0,0.0,0.0,0.0,0.0,0.0,0.0,0.0,0.0
27548000000,232,27548000000,imu_link,-0.000377823534941,-0.375577166942,-0.00075633904318,0.926790740606,0.0,0.0,0.0,0.0,0.0,0.0,0.0,0.0,0.0,0.00185954711014,-0.009386838609,0.000175254737949,0.0,0.0,0.0,0.0,0.0,0.0,0.0,0.0,0.0,6.5793950831,-0.00317080466266,7.06282487848,0.0,0.0,0.0,0.0,0.0,0.0,0.0,0.0,0.0
27552000000,233,27552000000,imu_link,-0.000375674302519,-0.375593932886,-0.000754723777238,0.926783948307,0.0,0.0,0.0,0.0,0.0,0.0,0.0,0.0,0.0,0.00130433008152,-0.00904426943001,0.000339169522916,0.0,0.0,0.0,0.0,0.0,0.0,0.0,0.0,0.0,6.58093764538,-0.00322820026767,7.06025871102,0.0,0.0,0.0,0.0,0.0,0.0,0.0,0.0,0.0
27556000000,234,27556000000,imu_link,-0.000374952870624,-0.375609688397,-0.000753197397626,0.926777564514,0.0,0.0,0.0,0.0,0.0,0.0,0.0,0.0,0.0,0.000625701626659,-0.00849984903522,0.000566460869374,0.0,0.0,0.0,0.0,0.0,0.0,0.0,0.0,0.0,6.58200116952,-0.00337705450715,7.05733338071,0.0,0.0,0.0,0.0,0.0,0.0,0.0,0.0,0.0
27560000000,235,27560000000,imu_link,-0.000375566231051,-0.375624076772,-0.000751716238638,0.926771733936,0.0,0.0,0.0,0.0,0.0,0.0,0.0,0.0,0.0,-1.72996118824e-06,-0.00776293073608,0.000796651250202,0.0,0.0,0.0,0.0,0.0,0.0,0.0,0.0,0.0,6.58224268759,-0.0036318170546,7.05297728733,0.0,0.0,0.0,0.0,0.0,0.0,0.0,0.0,0.0
27564000000,236,27564000000,imu_link,-0.000376898299924,-0.375636842256,-0.00075023714715,0.926766560592,0.0,0.0,0.0,0.0,0.0,0.0,0.0,0.0,0.0,-0.000335644157926,-0.00688773929982,0.000931227076531,0.0,0.0,0.0,0.0,0.0,0.0,0.0,0.0,0.0,6.58390300786,-0.00394691200751,7.05237837347,0.0,0.0,0.0,0.0,0.0,0.0,0.0,0.0,0.0
27568000000,237,27568000000,imu_link,-0.000378086541538,-0.375647892807,-0.000748687128983,0.926762082278,0.0,0.0,0.0,0.0,0.0,0.0,0.0,0.0,0.0,-0.000256187999942,-0.00596248880909,0.000937663800498,0.0,0.0,0.0,0.0,0.0,0.0,0.0,0.0,0.0,6.58578989059,-0.00420338078551,7.05338395524,0.0,0.0,0.0,0.0,0.0,0.0,0.0,0.0,0.0
27572000000,238,27572000000,imu_link,-0.000378372138814,-0.375657509452,-0.000746947281623,0.926758185557,0.0,0.0,0.0,0.0,0.0,0.0,0.0,0.0,0.0,0.0001973079146,-0.00518850392743,0.000856577614405,0.0,0.0,0.0,0.0,0.0,0.0,0.0,0.0,0.0,6.58723901738,-0.00432468653041,7.05684254648,0.0,0.0,0.0,0.0,0.0,0.0,0.0,0.0,0.0
27576000000,239,27576000000,imu_link,-0.000377411413686,-0.375666157437,-0.00074496487099,0.926754682073,0.0,0.0,0.0,0.0,0.0,0.0,0.0,0.0,0.0,0.000820100643176,-0.00466536704836,0.000735211298587,0.0,0.0,0.0,0.0,0.0,0.0,0.0,0.0,0.0,6.58718238033,-0.00427495043966,7.05857445433,0.0,0.0,0.0,0.0,0.0,0.0,0.0,0.0,0.0
27580000000,240,27580000000,imu_link,-0.000375264023671,-0.375674459697,-0.000742762464097,0.926751319293,0.0,0.0,0.0,0.0,0.0,0.0,0.0,0.0,0.0,0.00141119461266,-0.00447833604696,0.000614375312471,0.0,0.0,0.0,0.0,0.0,0.0,0.0,0.0,0.0,6.58775328892,-0.00404215189936,7.06278776745,0.0,0.0,0.0,0.0,0.0,0.0,0.0,0.0,0.0
27584000000,241,27584000000,imu_link,-0.000372104826137,-0.37568292266,-0.000740421935326,0.926747891789,0.0,0.0,0.0,0.0,0.0,0.0,0.0,0.0,0.0,0.00190603355824,-0.00456460990129,0.000488268316073,0.0,0.0,0.0,0.0,0.0,0.0,0.0,0.0,0.0,6.58705624741,-0.00382573814461,7.06370677866,0.0,0.0,0.0,0.0,0.0,0.0,0.0,0.0,0.0
27588000000,242,27588000000,imu_link,-0.000368032733787,-0.375692029341,-0.000738031286888,0.926744203624,0.0,0.0,0.0,0.0,0.0,0.0,0.0,0.0,0.0,0.00233864959775,-0.00491152601099,0.000339796703594,0.0,0.0,0.0,0.0,0.0,0.0,0.0,0.0,0.0,6.58796942611,-0.00372380582585,7.06752707851,0.0,0.0,0.0,0.0,0.0,0.0,0.0,0.0,0.0
27592000000,243,27592000000,imu_link,-0.000363169476606,-0.375702050594,-0.00073567107104,0.926740144849,0.0,0.0,0.0,0.0,0.0,0.0,0.0,0.0,0.0,0.00269980596079,-0.00540463367736,0.000176772872425,0.0,0.0,0.0,0.0,0.0,0.0,0.0,0.0,0.0,6.58857941404,-0.0036159732875,7.06887273832,0.0,0.0,0.0,0.0,0.0,0.0,0.0,0.0,0.0
27596000000,244,27596000000,imu_link,-0.000357844061439,-0.375712838904,-0.000733365688276,0.926735775076,0.0,0.0,0.0,0.0,0.0,0.0,0.0,0.0,0.0,0.002903881367,-0.00581830586085,6.42943285078e-05,0.0,0.0,0.0,0.0,0.0,0.0,0.0,0.0,0.0,6.58860386985,-0.00349398924591,7.06542912341,0.0,0.0,0.0,0.0,0.0,0.0,0.0,0.0,0.0
27600000000,245,27600000000,imu_link,-0.000352368357078,-0.375724235169,-0.00073110137179,0.926731158661,0.0,0.0,0.0,0.0,0.0,0.0,0.0,0.0,0.0,0.00296598478747,-0.00614628387428,1.68335285149e-05,0.0,0.0,0.0,0.0,0.0,0.0,0.0,0.0,0.0,6.58932858415,-0.00341975582199,7.06324224007,0.0,0.0,0.0,0.0,0.0,0.0,0.0,0.0,0.0
27604000000,246,27604000000,imu_link,-0.000346934988218,-0.375736047197,-0.000728847087301,0.926726373454,0.0,0.0,0.0,0.0,0.0,0.0,0.0,0.0,0.0,0.00294460558451,-0.00637065726428,2.00033302738e-05,0.0,0.0,0.0,0.0,0.0,0.0,0.0,0.0,0.0,6.5894403512,-0.00340363584166,7.05961928712,0.0,0.0,0.0,0.0,0.0,0.0,0.0,0.0,0.0
27608000000,247,27608000000,imu_link,-0.00034158125206,-0.375748135395,-0.000726579260945,0.926721476039,0.0,0.0,0.0,0.0,0.0,0.0,0.0,0.0,0.0,0.00291033198463,-0.00651973593512,4.11497740284e-05,0.0,0.0,0.0,0.0,0.0,0.0,0.0,0.0,0.0,6.588720013,-0.00346116825159,7.05459530588,0.0,0.0,0.0,0.0,0.0,0.0,0.0,0.0,0.0
27612000000,248,27612000000,imu_link,-0.000336345808644,-0.375760245035,-0.000724296416806,0.926716569679,0.0,0.0,0.0,0.0,0.0,0.0,0.0,0.0,0.0,0.00285834748603,-0.00653139752427,7.03256516405e-05,0.0,0.0,0.0,0.0,0.0,0.0,0.0,0.0,0.0,6.58909632021,-0.00351028178207,7.05087802723,0.0,0.0,0.0,0.0,0.0,0.0,0.0,0.0,0.0
27616000000,249,27616000000,imu_link,-0.000331259074822,-0.375772166552,-0.000721997241555,0.926711739341,0.0,0.0,0.0,0.0,0.0,0.0,0.0,0.0,0.0,0.00279245461094,-0.00643000252695,0.000105891552972,0.0,0.0,0.0,0.0,0.0,0.0,0.0,0.0,0.0,6.58942868363,-0.00356240950947,7.04760677134,0.0,0.0,0.0,0.0,0.0,0.0,0.0,0.0,0.0
27620000000,250,27620000000,imu_link,-0.000326473347742,-0.375783706063,-0.000719717731414,0.926707063575,0.0,0.0,0.0,0.0,0.0,0.0,0.0,0.0,0.0,0.00264917426806,-0.00622406140879,0.000153453657702,0.0,0.0,0.0,0.0,0.0,0.0,0.0,0.0,0.0,6.59015852312,-0.00359938975119,7.04523689209,0.0,0.0,0.0,0.0,0.0,0.0,0.0,0.0,0.0
27624000000,251,27624000000,imu_link,-0.000322287752799,-0.375795044095,-0.000717537938265,0.926702469029,0.0,0.0,0.0,0.0,0.0,0.0,0.0,0.0,0.0,0.00235230566688,-0.00611564480527,0.000220071493291,0.0,0.0,0.0,0.0,0.0,0.0,0.0,0.0,0.0,6.59056215502,-0.00360696585197,7.04537716499,0.0,0.0,0.0,0.0,0.0,0.0,0.0,0.0,0.0
27628000000,252,27628000000,imu_link,-0.000318914028691,-0.37580641384,-0.000715511159203,0.926697861039,0.0,0.0,0.0,0.0,0.0,0.0,0.0,0.0,0.0,0.00194738255625,-0.00613313138858,0.000301710812443,0.0,0.0,0.0,0.0,0.0,0.0,0.0,0.0,0.0,6.59042750351,-0.00368587027295,7.04508394588,0.0,0.0,0.0,0.0,0.0,0.0,0.0,0.0,0.0
27632000000,253,27632000000,imu_link,-0.00031643668075,-0.375818095183,-0.000713650742017,0.926693126069,0.0,0.0,0.0,0.0,0.0,0.0,0.0,0.0,0.0,0.00150087891635,-0.00630166442354,0.000392964056432,0.0,0.0,0.0,0.0,0.0,0.0,0.0,0.0,0.0,6.5906563953,-0.00383469640369,7.04587541308,0.0,0.0,0.0,0.0,0.0,0.0,0.0,0.0,0.0
27636000000,254,27636000000,imu_link,-0.000314633022201,-0.375830288478,-0.000711909423643,0.926688182969,0.0,0.0,0.0,0.0,0.0,0.0,0.0,0.0,0.0,0.00116649725469,-0.0065782064277,0.000464217097222,0.0,0.0,0.0,0.0,0.0,0.0,0.0,0.0,0.0,6.59153634898,-0.00405939735912,7.04701609522,0.0,0.0,0.0,0.0,0.0,0.0,0.0,0.0,0.0
27640000000,255,27640000000,imu_link,-0.000313218388756,-0.375842915964,-0.000710260957194,0.926683063373,0.0,0.0,0.0,0.0,0.0,0.0,0.0,0.0,0.0,0.000968923275157,-0.00681267644725,0.00049416728541,0.0,0.0,0.0,0.0,0.0,0.0,0.0,0.0,0.0,6.59242762419,-0.00423555984537,7.04607189235,0.0,0.0,0.0,0.0,0.0,0.0,0.0,0.0,0.0
27644000000,256,27644000000,imu_link,-0.000311967631853,-0.375855826407,-0.000708701824636,0.926677828684,0.0,0.0,0.0,0.0,0.0,0.0,0.0,0.0,0.0,0.000876287174126,-0.00696545471374,0.000483485914476,0.0,0.0,0.0,0.0,0.0,0.0,0.0,0.0,0.0,6.59266962673,-0.00434715253018,7.04317994903,0.0,0.0,0.0,0.0,0.0,0.0,0.0,0.0,0.0
27648000000,257,27648000000,imu_link,-0.000310866308191,-0.375868901027,-0.000707252372917,0.926672527054,0.0,0.0,0.0,0.0,0.0,0.0,0.0,0.0,0.0,0.000786484581933,-0.00705414010998,0.000460699862153,0.0,0.0,0.0,0.0,0.0,0.0,0.0,0.0,0.0,6.59430949355,-0.00437442307485,7.0432898053,0.0,0.0,0.0,0.0,0.0,0.0,0.0,0.0,0.0
27652000000,258,27652000000,imu_link,-0.00030990854557,-0.37588219006,-0.000705906206177,0.926667138108,0.0,0.0,0.0,0.0,0.0,0.0,0.0,0.0,0.0,0.000700618989946,-0.0071699300745,0.000439760046856,0.0,0.0,0.0,0.0,0.0,0.0,0.0,0.0,0.0,6.59487330596,-0.00440852193037,7.04259896212,0.0,0.0,0.0,0.0,0.0,0.0,0.0,0.0,0.0
27656000000,259,27656000000,imu_link,-0.000308988516206,-0.375895909937,-0.0007046256579,0.926661574104,0.0,0.0,0.0,0.0,0.0,0.0,0.0,0.0,0.0,0.000670928441318,-0.00740245855449,0.000416319891625,0.0,0.0,0.0,0.0,0.0,0.0,0.0,0.0,0.0,6.59537096674,-0.00444769890419,7.04325795855,0.0,0.0,0.0,0.0,0.0,0.0,0.0,0.0,0.0
27660000000,260,27660000000,imu_link,-0.000307757576143,-0.375910308565,-0.000703350043312,0.926655734617,0.0,0.0,0.0,0.0,0.0,0.0,0.0,0.0,0.0,0.000814252235792,-0.0077686107238,0.000355397011675,0.0,0.0,0.0,0.0,0.0,0.0,0.0,0.0,0.0,6.59720190643,-0.00451547703852,7.04657844159,0.0,0.0,0.0,0.0,0.0,0.0,0.0,0.0,0.0
27664000000,261,27664000000,imu_link,-0.000305927018429,-0.375925481732,-0.000702020540957,0.926649580888,0.0,0.0,0.0,0.0,0.0,0.0,0.0,0.0,0.0,0.00110242431727,-0.00818633669851,0.000267433791972,0.0,0.0,0.0,0.0,0.0,0.0,0.0,0.0,0.0,6.59862371974,-0.00452305008931,7.04775704391,0.0,0.0,0.0,0.0,0.0,0.0,0.0,0.0,0.0
27668000000,262,27668000000,imu_link,-0.000303470445973,-0.375941190476,-0.000700618091047,0.92664320984,0.0,0.0,0.0,0.0,0.0,0.0,0.0,0.0,0.0,0.00140633864018,-0.00847512248219,0.000183406551029,0.0,0.0,0.0,0.0,0.0,0.0,0.0,0.0,0.0,6.59922324539,-0.00444584782615,7.04432976163,0.0,0.0,0.0,0.0,0.0,0.0,0.0,0.0,0.0
27672000000,263,27672000000,imu_link,-0.000300552830529,-0.375957222084,-0.00069912595519,0.926636707698,0.0,0.0,0.0,0.0,0.0,0.0,0.0,0.0,0.0,0.00163690134921,-0.00864920647656,0.000138202549277,0.0,0.0,0.0,0.0,0.0,0.0,0.0,0.0,0.0,6.60016172746,-0.00429269140802,7.04204613206,0.0,0.0,0.0,0.0,0.0,0.0,0.0,0.0,0.0
27676000000,264,27676000000,imu_link,-0.000297336833851,-0.375973184838,-0.000697547680787,0.926630233319,0.0,0.0,0.0,0.0,0.0,0.0,0.0,0.0,0.0,0.00179131915832,-0.00861199425882,0.000122042881285,0.0,0.0,0.0,0.0,0.0,0.0,0.0,0.0,0.0,6.60215159765,-0.00420146213453,7.04035877796,0.0,0.0,0.0,0.0,0.0,0.0,0.0,0.0,0.0
27680000000,265,27680000000,imu_link,-0.000293536479273,-0.375988828564,-0.0006958888339,0.926623888301,0.0,0.0,0.0,0.0,0.0,0.0,0.0,0.0,0.0,0.00207711551722,-0.00843967460396,4.96144272281e-05,0.0,0.0,0.0,0.0,0.0,0.0,0.0,0.0,0.0,6.60358794569,-0.00425801724955,7.03949220158,0.0,0.0,0.0,0.0,0.0,0.0,0.0,0.0,0.0
27684000000,266,27684000000,imu_link,-0.00028882146821,-0.376003925563,-0.000694189422962,0.926617765124,0.0,0.0,0.0,0.0,0.0,0.0,0.0,0.0,0.0,0.00250835493543,-0.00814435179067,-0.000103384642467,0.0,0.0,0.0,0.0,0.0,0.0,0.0,0.0,0.0,6.60486998841,-0.00426188501883,7.03861824681,0.0,0.0,0.0,0.0,0.0,0.0,0.0,0.0,0.0
27688000000,267,27688000000,imu_link,-0.000283122591933,-0.376018310375,-0.000692481263753,0.926611930947,0.0,0.0,0.0,0.0,0.0,0.0,0.0,0.0,0.0,0.00296562765862,-0.00775971645808,-0.000284096924537,0.0,0.0,0.0,0.0,0.0,0.0,0.0,0.0,0.0,6.60515859449,-0.00417056621759,7.03637060459,0.0,0.0,0.0,0.0,0.0,0.0,0.0,0.0,0.0
27692000000,268,27692000000,imu_link,-0.000276502647128,-0.376031871534,-0.000690762712224,0.926606431007,0.0,0.0,0.0,0.0,0.0,0.0,0.0,0.0,0.0,0.00339408018628,-0.00731495602551,-0.000452219092753,0.0,0.0,0.0,0.0,0.0,0.0,0.0,0.0,0.0,6.60451985367,-0.00403408895162,7.03254283704,0.0,0.0,0.0,0.0,0.0,0.0,0.0,0.0,0.0
27696000000,269,27696000000,imu_link,-0.000269251155001,-0.376044514871,-0.000689024578691,0.926601303466,0.0,0.0,0.0,0.0,0.0,0.0,0.0,0.0,0.0,0.00369009430591,-0.00681949386485,-0.00056163213858,0.0,0.0,0.0,0.0,0.0,0.0,0.0,0.0,0.0,6.60485588894,-0.00388610485758,7.0308540319,0.0,0.0,0.0,0.0,0.0,0.0,0.0,0.0,0.0
27700000000,270,27700000000,imu_link,-0.000261773456073,-0.37605634393,-0.000687255187809,0.926596506223,0.0,0.0,0.0,0.0,0.0,0.0,0.0,0.0,0.0,0.00380053708017,-0.00638006152659,-0.000589459087503,0.0,0.0,0.0,0.0,0.0,0.0,0.0,0.0,0.0,6.60634554036,-0.00376433269411,7.03279957053,0.0,0.0,0.0,0.0,0.0,0.0,0.0,0.0,0.0
27704000000,271,27704000000,imu_link,-0.000254527007393,-0.376067514097,-0.000685498472751,0.926591976087,0.0,0.0,0.0,0.0,0.0,0.0,0.0,0.0,0.0,0.00369082437886,-0.00602465182276,-0.000551672186883,0.0,0.0,0.0,0.0,0.0,0.0,0.0,0.0,0.0,6.60711214226,-0.00368075023226,7.033927255,0.0,0.0,0.0,0.0,0.0,0.0,0.0,0.0,0.0
27708000000,272,27708000000,imu_link,-0.000247899756837,-0.376078209402,-0.000683837905439,0.926587638232,0.0,0.0,0.0,0.0,0.0,0.0,0.0,0.0,0.0,0.00338573506232,-0.00576869474737,-0.000479660565975,0.0,0.0,0.0,0.0,0.0,0.0,0.0,0.0,0.0,6.60720023948,-0.00366751485799,7.03370607505,0.0,0.0,0.0,0.0,0.0,0.0,0.0,0.0,0.0
27712000000,273,27712000000,imu_link,-0.000242368331579,-0.376088747609,-0.000682353470459,0.926583363531,0.0,0.0,0.0,0.0,0.0,0.0,0.0,0.0,0.0,0.00284488032148,-0.00568438980747,-0.000355162512914,0.0,0.0,0.0,0.0,0.0,0.0,0.0,0.0,0.0,6.6090109757,-0.0036959456235,7.03793949414,0.0,0.0,0.0,0.0,0.0,0.0,0.0,0.0,0.0
27716000000,274,27716000000,imu_link,-0.000238216730156,-0.376099502,-0.000681076083283,0.926579000401,0.0,0.0,0.0,0.0,0.0,0.0,0.0,0.0,0.0,0.00216674828301,-0.00580162061213,-0.000191674297326,0.0,0.0,0.0,0.0,0.0,0.0,0.0,0.0,0.0,6.61060455707,-0.0037770752428,7.04208174471,0.0,0.0,0.0,0.0,0.0,0.0,0.0,0.0,0.0
27720000000,275,27720000000,imu_link,-0.000235670517513,-0.376110722123,-0.000680033906373,0.926574447477,0.0,0.0,0.0,0.0,0.0,0.0,0.0,0.0,0.0,0.00137889327854,-0.00605359826947,1.12811203759e-06,0.0,0.0,0.0,0.0,0.0,0.0,0.0,0.0,0.0,6.61183674566,-0.00395143846978,7.04462597365,0.0,0.0,0.0,0.0,0.0,0.0,0.0,0.0,0.0
27724000000,276,27724000000,imu_link,-0.000234743373654,-0.376122529095,-0.000679218089214,0.926569655593,0.0,0.0,0.0,0.0,0.0,0.0,0.0,0.0,0.0,0.00058640261249,-0.0063709395527,0.000200582693831,0.0,0.0,0.0,0.0,0.0,0.0,0.0,0.0,0.0,6.61120592547,-0.00424069798587,7.04239312865,0.0,0.0,0.0,0.0,0.0,0.0,0.0,0.0,0.0
27728000000,277,27728000000,imu_link,-0.000235412596985,-0.376135020005,-0.000678618195804,0.926564585328,0.0,0.0,0.0,0.0,0.0,0.0,0.0,0.0,0.0,-0.000193577381656,-0.00674066707023,0.000400588514285,0.0,0.0,0.0,0.0,0.0,0.0,0.0,0.0,0.0,6.61076727872,-0.00451241802085,7.04035335641,0.0,0.0,0.0,0.0,0.0,0.0,0.0,0.0,0.0
27732000000,278,27732000000,imu_link,-0.000237354673551,-0.376148583945,-0.000678162221666,0.926559078826,0.0,0.0,0.0,0.0,0.0,0.0,0.0,0.0,0.0,-0.000810021544737,-0.00732024034929,0.000573021280586,0.0,0.0,0.0,0.0,0.0,0.0,0.0,0.0,0.0,6.6108872786,-0.00480176183859,7.04199020579,0.0,0.0,0.0,0.0,0.0,0.0,0.0,0.0,0.0
27736000000,279,27736000000,imu_link,-0.000240151184532,-0.376163777109,-0.000677801319306,0.926552910364,0.0,0.0,0.0,0.0,0.0,0.0,0.0,0.0,0.0,-0.0012232702058,-0.00819980178847,0.000689255808752,0.0,0.0,0.0,0.0,0.0,0.0,0.0,0.0,0.0,6.61219996146,-0.00504138978752,7.04726520188,0.0,0.0,0.0,0.0,0.0,0.0,0.0,0.0,0.0
27740000000,280,27740000000,imu_link,-0.000243348512762,-0.3761809578,-0.000677499276255,0.926545934514,0.0,0.0,0.0,0.0,0.0,0.0,0.0,0.0,0.0,-0.0014194531427,-0.00927256062505,0.000736861864433,0.0,0.0,0.0,0.0,0.0,0.0,0.0,0.0,0.0,6.61447551923,-0.00520457834071,7.05264713034,0.0,0.0,0.0,0.0,0.0,0.0,0.0,0.0,0.0
27744000000,281,27744000000,imu_link,-0.000246755552568,-0.376199994626,-0.000677242439772,0.926538204554,0.0,0.0,0.0,0.0,0.0,0.0,0.0,0.0,0.0,-0.00152457276343,-0.0102743644383,0.000754882335196,0.0,0.0,0.0,0.0,0.0,0.0,0.0,0.0,0.0,6.61410217754,-0.00526223414894,7.04835076672,0.0,0.0,0.0,0.0,0.0,0.0,0.0,0.0,0.0
27748000000,282,27748000000,imu_link,-0.000250413326319,-0.376220417646,-0.000677035208784,0.926529911154,0.0,0.0,0.0,0.0,0.0,0.0,0.0,0.0,0.0,-0.00164966096692,-0.0110226068544,0.000778702878595,0.0,0.0,0.0,0.0,0.0,0.0,0.0,0.0,0.0,6.6148252277,-0.00524637470035,7.04307999321,0.0,0.0,0.0,0.0,0.0,0.0,0.0,0.0,0.0
27752000000,283,27752000000,imu_link,-0.000254581928622,-0.376241460197,-0.000676896933523,0.926521365446,0.0,0.0,0.0,0.0,0.0,0.0,0.0,0.0,0.0,-0.00189910307895,-0.0113572395077,0.00084268719291,0.0,0.0,0.0,0.0,0.0,0.0,0.0,0.0,0.0,6.61685034575,-0.00520724242123,7.03785564876,0.0,0.0,0.0,0.0,0.0,0.0,0.0,0.0,0.0
27756000000,284,27756000000,imu_link,-0.000259584722788,-0.376262393849,-0.000676830125259,0.926512863101,0.0,0.0,0.0,0.0,0.0,0.0,0.0,0.0,0.0,-0.00229902713139,-0.0112989070686,0.000966536663002,0.0,0.0,0.0,0.0,0.0,0.0,0.0,0.0,0.0,6.61882464353,-0.00521097002088,7.03314093945,0.0,0.0,0.0,0.0,0.0,0.0,0.0,0.0,0.0
27760000000,285,27760000000,imu_link,-0.000265602409546,-0.376282755649,-0.000676817698271,0.926504592096,0.0,0.0,0.0,0.0,0.0,0.0,0.0,0.0,0.0,-0.00277957696354,-0.0109908071659,0.00113242965558,0.0,0.0,0.0,0.0,0.0,0.0,0.0,0.0,0.0,6.61949628531,-0.00522716171177,7.02853091134,0.0,0.0,0.0,0.0,0.0,0.0,0.0,0.0,0.0
27764000000,286,27764000000,imu_link,-0.000272475234202,-0.376302420259,-0.000676846198627,0.926496603417,0.0,0.0,0.0,0.0,0.0,0.0,0.0,0.0,0.0,-0.00318362012732,-0.0106149985232,0.00127454492205,0.0,0.0,0.0,0.0,0.0,0.0,0.0,0.0,0.0,6.6189038089,-0.00527676700449,7.02457282191,0.0,0.0,0.0,0.0,0.0,0.0,0.0,0.0,0.0
27768000000,287,27768000000,imu_link,-0.000279581319395,-0.376321431186,-0.000676899920514,0.926488879626,0.0,0.0,0.0,0.0,0.0,0.0,0.0,0.0,0.0,-0.00329660827043,-0.0102624181026,0.00130692804284,0.0,0.0,0.0,0.0,0.0,0.0,0.0,0.0,0.0,6.62027264571,-0.005412630268,7.02647606608,0.0,0.0,0.0,0.0,0.0,0.0,0.0,0.0,0.0
27772000000,288,27772000000,imu_link,-0.000286110134398,-0.376339983427,-0.000676934505978,0.926481341839,0.0,0.0,0.0,0.0,0.0,0.0,0.0,0.0,0.0,-0.00302571958227,-0.0100147424147,0.00120730038542,0.0,0.0,0.0,0.0,0.0,0.0,0.0,0.0,0.0,6.62140984161,-0.00552787138462,7.02909750681,0.0,0.0,0.0,0.0,0.0,0.0,0.0,0.0,0.0
27776000000,289,27776000000,imu_link,-0.000291517309503,-0.376358095288,-0.000676943048635,0.926473982839,0.0,0.0,0.0,0.0,0.0,0.0,0.0,0.0,0.0,-0.0025013533657,-0.00977672276223,0.00100842901484,0.0,0.0,0.0,0.0,0.0,0.0,0.0,0.0,0.0,6.62159734369,-0.00548001888813,7.02836118984,0.0,0.0,0.0,0.0,0.0,0.0,0.0,0.0,0.0
27780000000,290,27780000000,imu_link,-0.000295451161614,-0.376375680369,-0.000676940093705,0.926466837878,0.0,0.0,0.0,0.0,0.0,0.0,0.0,0.0,0.0,-0.00181683915186,-0.00949192379541,0.000736655833496,0.0,0.0,0.0,0.0,0.0,0.0,0.0,0.0,0.0,6.62172745946,-0.00532358598207,7.02651188561,0.0,0.0,0.0,0.0,0.0,0.0,0.0,0.0,0.0
27784000000,291,27784000000,imu_link,-0.000297839931053,-0.376392679495,-0.000676941631417,0.926459931062,0.0,0.0,0.0,0.0,0.0,0.0,0.0,0.0,0.0,-0.00110211383158,-0.00917515038427,0.000443976085834,0.0,0.0,0.0,0.0,0.0,0.0,0.0,0.0,0.0,6.62134587632,-0.00507098803083,7.02369206471,0.0,0.0,0.0,0.0,0.0,0.0,0.0,0.0,0.0
27788000000,292,27788000000,imu_link,-0.000298888656799,-0.376409033212,-0.00067695467113,0.926453286526,0.0,0.0,0.0,0.0,0.0,0.0,0.0,0.0,0.0,-0.000483709465574,-0.00882636222781,0.000186641584095,0.0,0.0,0.0,0.0,0.0,0.0,0.0,0.0,0.0,6.62126708649,-0.00478184747276,7.02136604024,0.0,0.0,0.0,0.0,0.0,0.0,0.0,0.0,0.0
27792000000,293,27792000000,imu_link,-0.000299122284576,-0.376424669808,-0.000676983528081,0.926446933277,0.0,0.0,0.0,0.0,0.0,0.0,0.0,0.0,0.0,-0.000109310442929,-0.00843907259225,2.61152635545e-05,0.0,0.0,0.0,0.0,0.0,0.0,0.0,0.0,0.0,6.62215517185,-0.0044728362305,7.02086478636,0.0,0.0,0.0,0.0,0.0,0.0,0.0,0.0,0.0
27796000000,294,27796000000,imu_link,-0.000299206639826,-0.376439398835,-0.000677051987639,0.926440948512,0.0,0.0,0.0,0.0,0.0,0.0,0.0,0.0,0.0,-4.78696984978e-05,-0.00794925606455,-2.00640592088e-05,0.0,0.0,0.0,0.0,0.0,0.0,0.0,0.0,0.0,6.62361898218,-0.00421695267088,7.02042582281,0.0,0.0,0.0,0.0,0.0,0.0,0.0,0.0,0.0
27800000000,295,27800000000,imu_link,-0.000299519473319,-0.376453023316,-0.000677185629425,0.926435412181,0.0,0.0,0.0,0.0,0.0,0.0,0.0,0.0,0.0,-0.00016628090834,-0.00735327109857,-6.93664505549e-06,0.0,0.0,0.0,0.0,0.0,0.0,0.0,0.0,0.0,6.62503385003,-0.00411672852589,7.0195752006,0.0,0.0,0.0,0.0,0.0,0.0,0.0,0.0,0.0
27804000000,296,27804000000,imu_link,-0.000300152335508,-0.376465476379,-0.00067739705013,0.926430351476,0.0,0.0,0.0,0.0,0.0,0.0,0.0,0.0,0.0,-0.000329489325618,-0.00672122047642,1.76091426675e-05,0.0,0.0,0.0,0.0,0.0,0.0,0.0,0.0,0.0,6.62479248843,-0.00409914192906,7.01684555145,0.0,0.0,0.0,0.0,0.0,0.0,0.0,0.0,0.0
27808000000,297,27808000000,imu_link,-0.000300745698977,-0.376476955172,-0.000677650550486,0.926425686478,0.0,0.0,0.0,0.0,0.0,0.0,0.0,0.0,0.0,-0.000319384285028,-0.00619541945302,-9.03750298162e-06,0.0,0.0,0.0,0.0,0.0,0.0,0.0,0.0,0.0,6.62496749678,-0.00412116881239,7.01749766745,0.0,0.0,0.0,0.0,0.0,0.0,0.0,0.0,0.0
27812000000,298,27812000000,imu_link,-0.000300749551813,-0.376487604213,-0.000677921565212,0.926421358695,0.0,0.0,0.0,0.0,0.0,0.0,0.0,0.0,0.0,-4.9842699283e-05,-0.00574738838492,-0.000127879938622,0.0,0.0,0.0,0.0,0.0,0.0,0.0,0.0,0.0,6.62491755166,-0.00413987909614,7.01736493475,0.0,0.0,0.0,0.0,0.0,0.0,0.0,0.0,0.0
27816000000,299,27816000000,imu_link,-0.000299557615471,-0.37649735525,-0.000678174028082,0.926417396121,0.0,0.0,0.0,0.0,0.0,0.0,0.0,0.0,0.0,0.000507302420179,-0.00526227263592,-0.000344127593886,0.0,0.0,0.0,0.0,0.0,0.0,0.0,0.0,0.0,6.62657071928,-0.0041568465274,7.01862235983,0.0,0.0,0.0,0.0,0.0,0.0,0.0,0.0,0.0
27820000000,300,27820000000,imu_link,-0.000297046897979,-0.376506176669,-0.0006783795736,0.926413811692,0.0,0.0,0.0,0.0,0.0,0.0,0.0,0.0,0.0,0.00112674686629,-0.00476003957682,-0.00057038641414,0.0,0.0,0.0,0.0,0.0,0.0,0.0,0.0,0.0,6.62691903543,-0.00400377954223,7.01751781679,0.0,0.0,0.0,0.0,0.0,0.0,0.0,0.0,0.0
27824000000,301,27824000000,imu_link,-0.000293403339509,-0.37651403779,-0.000678539188344,0.92641061784,0.0,0.0,0.0,0.0,0.0,0.0,0.0,0.0,0.0,0.0016598655265,-0.00424131870581,-0.000762096669465,0.0,0.0,0.0,0.0,0.0,0.0,0.0,0.0,0.0,6.62556735027,-0.00376725298763,7.01314345957,0.0,0.0,0.0,0.0,0.0,0.0,0.0,0.0,0.0
27828000000,302,27828000000,imu_link,-0.000288890242712,-0.376520772655,-0.000678650070229,0.926407881948,0.0,0.0,0.0,0.0,0.0,0.0,0.0,0.0,0.0,0.00207149967789,-0.00363312860371,-0.000902899447337,0.0,0.0,0.0,0.0,0.0,0.0,0.0,0.0,0.0,6.62696331048,-0.0035487994209,7.01258897745,0.0,0.0,0.0,0.0,0.0,0.0,0.0,0.0,0.0
27832000000,303,27832000000,imu_link,-0.0002835752232,-0.376526322762,-0.000678706175239,0.926405627795,0.0,0.0,0.0,0.0,0.0,0.0,0.0,0.0,0.0,0.00245293332227,-0.00299338742594,-0.0010281622649,0.0,0.0,0.0,0.0,0.0,0.0,0.0,0.0,0.0,6.6264986003,-0.00341206409638,7.00947800962,0.0,0.0,0.0,0.0,0.0,0.0,0.0,0.0,0.0
27836000000,304,27836000000,imu_link,-0.000277471093976,-0.376530833042,-0.000678703728505,0.926403796484,0.0,0.0,0.0,0.0,0.0,0.0,0.0,0.0,0.0,0.00282918138305,-0.00243187169615,-0.00114931029412,0.0,0.0,0.0,0.0,0.0,0.0,0.0,0.0,0.0,6.62757846939,-0.00330957645603,7.01097491574,0.0,0.0,0.0,0.0,0.0,0.0,0.0,0.0,0.0
27840000000,305,27840000000,imu_link,-0.000270945390395,-0.376534683526,-0.000678701172402,0.926402233404,0.0,0.0,0.0,0.0,0.0,0.0,0.0,0.0,0.0,0.00302428932641,-0.00207561122971,-0.00122844494423,0.0,0.0,0.0,0.0,0.0,0.0,0.0,0.0,0.0,6.6296766992,-0.00314263358736,7.01658428251,0.0,0.0,0.0,0.0,0.0,0.0,0.0,0.0,0.0
27844000000,306,27844000000,imu_link,-0.000264549163545,-0.376538293553,-0.000678772145583,0.926400767903,0.0,0.0,0.0,0.0,0.0,0.0,0.0,0.0,0.0,0.00295040401702,-0.00194589440082,-0.00123806186191,0.0,0.0,0.0,0.0,0.0,0.0,0.0,0.0,0.0,6.63206159554,-0.002994501416,7.02305413075,0.0,0.0,0.0,0.0,0.0,0.0,0.0,0.0,0.0
27848000000,307,27848000000,imu_link,-0.000258656987803,-0.376541787012,-0.000678956854452,0.926399349497,0.0,0.0,0.0,0.0,0.0,0.0,0.0,0.0,0.0,0.00269548109702,-0.00188318954133,-0.00119581560152,0.0,0.0,0.0,0.0,0.0,0.0,0.0,0.0,0.0,6.63278644611,-0.00294546269884,7.02366520289,0.0,0.0,0.0,0.0,0.0,0.0,0.0,0.0,0.0
27852000000,308,27852000000,imu_link,-0.000253309380626,-0.376545143505,-0.000679258679007,0.926397986475,0.0,0.0,0.0,0.0,0.0,0.0,0.0,0.0,0.0,0.00242114830591,-0.0018094891868,-0.0011475006235,0.0,0.0,0.0,0.0,0.0,0.0,0.0,0.0,0.0,6.63271070561,-0.00296392119777,7.02124642964,0.0,0.0,0.0,0.0,0.0,0.0,0.0,0.0,0.0
27856000000,309,27856000000,imu_link,-0.000248331591003,-0.3765482472,-0.000679630460573,0.926396726012,0.0,0.0,0.0,0.0,0.0,0.0,0.0,0.0,0.0,0.00223660533253,-0.00167320143747,-0.00111021128915,0.0,0.0,0.0,0.0,0.0,0.0,0.0,0.0,0.0,6.63278328299,-0.00303362035477,7.01816167057,0.0,0.0,0.0,0.0,0.0,0.0,0.0,0.0,0.0
27860000000,310,27860000000,imu_link,-0.000243518065615,-0.376551013306,-0.000679997942091,0.926395602688,0.0,0.0,0.0,0.0,0.0,0.0,0.0,0.0,0.0,0.00216123030614,-0.00149106722243,-0.00107720428968,0.0,0.0,0.0,0.0,0.0,0.0,0.0,0.0,0.0,6.63475535464,-0.00312642386684,7.01926475591,0.0,0.0,0.0,0.0,0.0,0.0,0.0,0.0,0.0
27864000000,311,27864000000,imu_link,-0.000238652581619,-0.376553597787,-0.000680274321875,0.926394553236,0.0,0.0,0.0,0.0,0.0,0.0,0.0,0.0,0.0,0.00220239688612,-0.00139302422883,-0.00104474146932,0.0,0.0,0.0,0.0,0.0,0.0,0.0,0.0,0.0,6.63562837186,-0.00324046094196,7.02056644979,0.0,0.0,0.0,0.0,0.0,0.0,0.0,0.0,0.0
27868000000,312,27868000000,imu_link,-0.000233609479621,-0.376556239915,-0.000680408881349,0.926393480467,0.0,0.0,0.0,0.0,0.0,0.0,0.0,0.0,0.0,0.00231138736051,-0.00142407263044,-0.00101250684626,0.0,0.0,0.0,0.0,0.0,0.0,0.0,0.0,0.0,6.63578420131,-0.00328576265033,7.02129777639,0.0,0.0,0.0,0.0,0.0,0.0,0.0,0.0,0.0
27872000000,313,27872000000,imu_link,-0.000228443501902,-0.376559252927,-0.000680392021858,0.926392257046,0.0,0.0,0.0,0.0,0.0,0.0,0.0,0.0,0.0,0.0023969204517,-0.00162420524442,-0.000965599458715,0.0,0.0,0.0,0.0,0.0,0.0,0.0,0.0,0.0,6.63575691251,-0.00326343094615,7.02208680215,0.0,0.0,0.0,0.0,0.0,0.0,0.0,0.0,0.0
27876000000,314,27876000000,imu_link,-0.000223462486327,-0.376563007674,-0.000680244573173,0.926390732134,0.0,0.0,0.0,0.0,0.0,0.0,0.0,0.0,0.0,0.00233605188568,-0.00202461652234,-0.000870473734823,0.0,0.0,0.0,0.0,0.0,0.0,0.0,0.0,0.0,6.63654871471,-0.00320307211961,7.0249998095,0.0,0.0,0.0,0.0,0.0,0.0,0.0,0.0,0.0
27880000000,315,27880000000,imu_link,-0.000219078926604,-0.376567777227,-0.000679980481121,0.926388794613,0.0,0.0,0.0,0.0,0.0,0.0,0.0,0.0,0.0,0.00208157394898,-0.00257257257231,-0.000704208904423,0.0,0.0,0.0,0.0,0.0,0.0,0.0,0.0,0.0,6.63752374434,-0.00317807851154,7.02733606739,0.0,0.0,0.0,0.0,0.0,0.0,0.0,0.0,0.0
27884000000,316,27884000000,imu_link,-0.000215610270611,-0.376573777664,-0.000679608131971,0.92638635656,0.0,0.0,0.0,0.0,0.0,0.0,0.0,0.0,0.0,0.00167854239508,-0.00323727637953,-0.000482108197169,0.0,0.0,0.0,0.0,0.0,0.0,0.0,0.0,0.0,6.63813859147,-0.00321980704825,7.02842275034,0.0,0.0,0.0,0.0,0.0,0.0,0.0,0.0,0.0
27888000000,317,27888000000,imu_link,-0.000213227345141,-0.376581319363,-0.000679171277226,0.926383291714,0.0,0.0,0.0,0.0,0.0,0.0,0.0,0.0,0.0,0.00118824113693,-0.00406957134427,-0.000248179966199,0.0,0.0,0.0,0.0,0.0,0.0,0.0,0.0,0.0,6.63862427723,-0.00331410479644,7.02989206331,0.0,0.0,0.0,0.0,0.0,0.0,0.0,0.0,0.0
27892000000,318,27892000000,imu_link,-0.000211992359054,-0.376590540277,-0.000678725140691,0.926379543905,0.0,0.0,0.0,0.0,0.0,0.0,0.0,0.0,0.0,0.000658770303066,-0.00497635602334,-2.81454068878e-05,0.0,0.0,0.0,0.0,0.0,0.0,0.0,0.0,0.0,6.63905368071,-0.00344942137839,7.0295810029,0.0,0.0,0.0,0.0,0.0,0.0,0.0,0.0,0.0
27896000000,319,27896000000,imu_link,-0.000211984342269,-0.376601485203,-0.000678326743197,0.926375094807,0.0,0.0,0.0,0.0,0.0,0.0,0.0,0.0,0.0,8.19723673868e-05,-0.00590736136678,0.00018035414404,0.0,0.0,0.0,0.0,0.0,0.0,0.0,0.0,0.0,6.63897906282,-0.00357183879409,7.0275497668,0.0,0.0,0.0,0.0,0.0,0.0,0.0,0.0,0.0
27900000000,320,27900000000,imu_link,-0.000213037147973,-0.376613975602,-0.000677998066588,0.926370016956,0.0,0.0,0.0,0.0,0.0,0.0,0.0,0.0,0.0,-0.000422058369313,-0.00674195211483,0.000347436902842,0.0,0.0,0.0,0.0,0.0,0.0,0.0,0.0,0.0,6.64011191272,-0.00373515549483,7.02578176247,0.0,0.0,0.0,0.0,0.0,0.0,0.0,0.0,0.0
27904000000,321,27904000000,imu_link,-0.000214742817812,-0.37662754739,-0.000677736778939,0.926364499053,0.0,0.0,0.0,0.0,0.0,0.0,0.0,0.0,0.0,-0.000736825344939,-0.00732591465001,0.000438897859866,0.0,0.0,0.0,0.0,0.0,0.0,0.0,0.0,0.0,6.64161641263,-0.00393492943434,7.02238736657,0.0,0.0,0.0,0.0,0.0,0.0,0.0,0.0,0.0
27908000000,322,27908000000,imu_link,-0.000216426561183,-0.376641622543,-0.000677488716626,0.926358776251,0.0,0.0,0.0,0.0,0.0,0.0,0.0,0.0,0.0,-0.000729011332795,-0.00759764066503,0.000428519582613,0.0,0.0,0.0,0.0,0.0,0.0,0.0,0.0,0.0,6.64427215831,-0.00414398944737,7.02028916293,0.0,0.0,0.0,0.0,0.0,0.0,0.0,0.0,0.0
27912000000,323,27912000000,imu_link,-0.000217628218622,-0.376655619609,-0.000677224085808,0.926353085072,0.0,0.0,0.0,0.0,0.0,0.0,0.0,0.0,0.0,-0.000502621901042,-0.00755535537257,0.000345426121178,0.0,0.0,0.0,0.0,0.0,0.0,0.0,0.0,0.0,6.64630052208,-0.00420281101011,7.01727159677,0.0,0.0,0.0,0.0,0.0,0.0,0.0,0.0,0.0
27916000000,324,27916000000,imu_link,-0.000218359329031,-0.37666918761,-0.000676953143322,0.926347568226,0.0,0.0,0.0,0.0,0.0,0.0,0.0,0.0,0.0,-0.000283613208492,-0.00732363261246,0.000259838165576,0.0,0.0,0.0,0.0,0.0,0.0,0.0,0.0,0.0,6.64546153066,-0.0041177708907,7.01100146853,0.0,0.0,0.0,0.0,0.0,0.0,0.0,0.0,0.0
27920000000,325,27920000000,imu_link,-0.00021891268317,-0.376682218636,-0.000676687878666,0.926342269539,0.0,0.0,0.0,0.0,0.0,0.0,0.0,0.0,0.0,-0.000202508431315,-0.00703377205054,0.000223863157039,0.0,0.0,0.0,0.0,0.0,0.0,0.0,0.0,0.0,6.64531836869,-0.00397163356883,7.00856217613,0.0,0.0,0.0,0.0,0.0,0.0,0.0,0.0,0.0
27924000000,326,27924000000,imu_link,-0.000219788262972,-0.376694759553,-0.000676458514174,0.926337169837,0.0,0.0,0.0,0.0,0.0,0.0,0.0,0.0,0.0,-0.000358659578707,-0.0067693957058,0.000268044547123,0.0,0.0,0.0,0.0,0.0,0.0,0.0,0.0,0.0,6.64500515672,-0.00383816843429,7.0071632052,0.0,0.0,0.0,0.0,0.0,0.0,0.0,0.0,0.0
27928000000,327,27928000000,imu_link,-0.000221104308154,-0.376706846655,-0.000676251362427,0.926332254367,0.0,0.0,0.0,0.0,0.0,0.0,0.0,0.0,0.0,-0.000566986266175,-0.0065246495621,0.000340828985834,0.0,0.0,0.0,0.0,0.0,0.0,0.0,0.0,0.0,6.64421429028,-0.00384478913405,7.00442194456,0.0,0.0,0.0,0.0,0.0,0.0,0.0,0.0,0.0
27932000000,328,27932000000,imu_link,-0.000222932280282,-0.376718611194,-0.000676075839037,0.926327469744,0.0,0.0,0.0,0.0,0.0,0.0,0.0,0.0,0.0,-0.000810145397498,-0.00635077342712,0.00042268289791,0.0,0.0,0.0,0.0,0.0,0.0,0.0,0.0,0.0,6.6442758805,-0.00387206710543,7.00426297735,0.0,0.0,0.0,0.0,0.0,0.0,0.0,0.0,0.0
27936000000,329,27936000000,imu_link,-0.000225278153429,-0.376730222992,-0.000675941627502,0.926322746907,0.0,0.0,0.0,0.0,0.0,0.0,0.0,0.0,0.0,-0.001057844585,-0.00626856213255,0.000501138132444,0.0,0.0,0.0,0.0,0.0,0.0,0.0,0.0,0.0,6.64331684822,-0.00392562741768,7.00234446037,0.0,0.0,0.0,0.0,0.0,0.0,0.0,0.0,0.0
27940000000,330,27940000000,imu_link,-0.000228178919663,-0.376741676961,-0.000675868995695,0.926318087903,0.0,0.0,0.0,0.0,0.0,0.0,0.0,0.0,0.0,-0.00132649525339,-0.00618361811824,0.000577178630873,0.0,0.0,0.0,0.0,0.0,0.0,0.0,0.0,0.0,6.6431438349,-0.00395483168398,7.00024935986,0.0,0.0,0.0,0.0,0.0,0.0,0.0,0.0,0.0
27944000000,331,27944000000,imu_link,-0.000231492324688,-0.376752816184,-0.000675857510871,0.926313556591,0.0,0.0,0.0,0.0,0.0,0.0,0.0,0.0,0.0,-0.00152922274473,-0.00601392019077,0.000626666028421,0.0,0.0,0.0,0.0,0.0,0.0,0.0,0.0,0.0,6.64374222538,-0.00398214628938,6.99835438623,0.0,0.0,0.0,0.0,0.0,0.0,0.0,0.0,0.0
27948000000,332,27948000000,imu_link,-0.00023507483802,-0.376763447311,-0.000675888133182,0.926309231675,0.0,0.0,0.0,0.0,0.0,0.0,0.0,0.0,0.0,-0.0016619418837,-0.00573979761072,0.000657986036999,0.0,0.0,0.0,0.0,0.0,0.0,0.0,0.0,0.0,6.64410516379,-0.00400266510667,6.99600259734,0.0,0.0,0.0,0.0,0.0,0.0,0.0,0.0,0.0
27952000000,333,27952000000,imu_link,-0.000238603616815,-0.376773668941,-0.000675899265452,0.926305073192,0.0,0.0,0.0,0.0,0.0,0.0,0.0,0.0,0.0,-0.00163350174126,-0.0055187686771,0.000656994710809,0.0,0.0,0.0,0.0,0.0,0.0,0.0,0.0,0.0,6.64449441553,-0.00406638429645,6.99609123186,0.0,0.0,0.0,0.0,0.0,0.0,0.0,0.0,0.0
27956000000,334,27956000000,imu_link,-0.000241743456511,-0.376783654037,-0.000675809836151,0.926301010953,0.0,0.0,0.0,0.0,0.0,0.0,0.0,0.0,0.0,-0.00143448758992,-0.00539096673439,0.000630359796081,0.0,0.0,0.0,0.0,0.0,0.0,0.0,0.0,0.0,6.64564085435,-0.00409110001487,6.99808078469,0.0,0.0,0.0,0.0,0.0,0.0,0.0,0.0,0.0
27960000000,335,27960000000,imu_link,-0.000244481997293,-0.376793762755,-0.000675601648518,0.926296898484,0.0,0.0,0.0,0.0,0.0,0.0,0.0,0.0,0.0,-0.00122621699498,-0.00545756372261,0.000609729427387,0.0,0.0,0.0,0.0,0.0,0.0,0.0,0.0,0.0,6.64668130037,-0.00400996921512,7.00153149547,0.0,0.0,0.0,0.0,0.0,0.0,0.0,0.0,0.0
27964000000,336,27964000000,imu_link,-0.000246923655171,-0.376804441938,-0.000675292998956,0.926292553972,0.0,0.0,0.0,0.0,0.0,0.0,0.0,0.0,0.0,-0.00106962508516,-0.00576540237748,0.000600178282106,0.0,0.0,0.0,0.0,0.0,0.0,0.0,0.0,0.0,6.64741666312,-0.00389998334814,7.00511229691,0.0,0.0,0.0,0.0,0.0,0.0,0.0,0.0,0.0
27968000000,337,27968000000,imu_link,-0.000249089952021,-0.376815897874,-0.00067492892567,0.926287893441,0.0,0.0,0.0,0.0,0.0,0.0,0.0,0.0,0.0,-0.000931427446678,-0.0061846048231,0.000573766341737,0.0,0.0,0.0,0.0,0.0,0.0,0.0,0.0,0.0,6.64771649349,-0.00382579984835,7.0059074297,0.0,0.0,0.0,0.0,0.0,0.0,0.0,0.0,0.0
27972000000,338,27972000000,imu_link,-0.000250959035589,-0.376828045009,-0.000674528519188,0.926282951654,0.0,0.0,0.0,0.0,0.0,0.0,0.0,0.0,0.0,-0.000786731224385,-0.0065576246347,0.000534415497847,0.0,0.0,0.0,0.0,0.0,0.0,0.0,0.0,0.0,6.64783179402,-0.00376884264245,7.00351920723,0.0,0.0,0.0,0.0,0.0,0.0,0.0,0.0,0.0
27976000000,339,27976000000,imu_link,-0.00025241047577,-0.376840411792,-0.000674108727486,0.926277920447,0.0,0.0,0.0,0.0,0.0,0.0,0.0,0.0,0.0,-0.000589587944485,-0.00667606202072,0.00046464600723,0.0,0.0,0.0,0.0,0.0,0.0,0.0,0.0,0.0,6.65138474824,-0.00372799852237,7.00409825918,0.0,0.0,0.0,0.0,0.0,0.0,0.0,0.0,0.0
27980000000,340,27980000000,imu_link,-0.000253325582319,-0.376852725157,-0.000673686725105,0.926272910925,0.0,0.0,0.0,0.0,0.0,0.0,0.0,0.0,0.0,-0.000340789674369,-0.00664705606497,0.000364627816,0.0,0.0,0.0,0.0,0.0,0.0,0.0,0.0,0.0,6.65251264823,-0.00368294566019,7.00203986439,0.0,0.0,0.0,0.0,0.0,0.0,0.0,0.0,0.0
27984000000,341,27984000000,imu_link,-0.000253396850861,-0.376865037044,-0.000673273460475,0.926267902038,0.0,0.0,0.0,0.0,0.0,0.0,0.0,0.0,0.0,4.83756290238e-05,-0.00664596649673,0.000201580119581,0.0,0.0,0.0,0.0,0.0,0.0,0.0,0.0,0.0,6.65275733961,-0.00364401582308,7.00149048101,0.0,0.0,0.0,0.0,0.0,0.0,0.0,0.0,0.0
27988000000,342,27988000000,imu_link,-0.000252583101331,-0.376877638484,-0.000672880429139,0.926262775374,0.0,0.0,0.0,0.0,0.0,0.0,0.0,0.0,0.0,0.000454527487168,-0.00680196084562,2.53668763913e-05,0.0,0.0,0.0,0.0,0.0,0.0,0.0,0.0,0.0,6.65312006112,-0.00346119555022,7.00324220155,0.0,0.0,0.0,0.0,0.0,0.0,0.0,0.0,0.0
27992000000,343,27992000000,imu_link,-0.000251261121553,-0.376890907048,-0.000672545729073,0.926257377155,0.0,0.0,0.0,0.0,0.0,0.0,0.0,0.0,0.0,0.000679103142784,-0.00716191951543,-9.75940878259e-05,0.0,0.0,0.0,0.0,0.0,0.0,0.0,0.0,0.0,6.65415876231,-0.00316794969867,7.00690094782,0.0,0.0,0.0,0.0,0.0,0.0,0.0,0.0,0.0
27996000000,344,27996000000,imu_link,-0.000250031673478,-0.376904874934,-0.000672337276198,0.926251694032,0.0,0.0,0.0,0.0,0.0,0.0,0.0,0.0,0.0,0.000612657718667,-0.00753950047521,-0.000138809266849,0.0,0.0,0.0,0.0,0.0,0.0,0.0,0.0,0.0,6.6555030031,-0.00296397374652,7.00821445734,0.0,0.0,0.0,0.0,0.0,0.0,0.0,0.0,0.0
28000000000,345,28000000000,imu_link,-0.000249507956993,-0.376919499909,-0.000672326684641,0.926245742938,0.0,0.0,0.0,0.0,0.0,0.0,0.0,0.0,0.0,0.00024871512265,-0.00789452749445,-9.76193494211e-05,0.0,0.0,0.0,0.0,0.0,0.0,0.0,0.0,0.0,6.65569153176,-0.00288325843645,7.00663198894,0.0,0.0,0.0,0.0,0.0,0.0,0.0,0.0,0.0
28004000000,346,28004000000,imu_link,-0.000250021625431,-0.376934607579,-0.000672540146622,0.926239594699,0.0,0.0,0.0,0.0,0.0,0.0,0.0,0.0,0.0,-0.000273808966051,-0.00815554907226,-6.00485448427e-06,0.0,0.0,0.0,0.0,0.0,0.0,0.0,0.0,0.0,6.65571606828,-0.00292867291095,7.00381301224,0.0,0.0,0.0,0.0,0.0,0.0,0.0,0.0,0.0
28008000000,347,28008000000,imu_link,-0.000251471760672,-0.376950037749,-0.000672966372684,0.926233314516,0.0,0.0,0.0,0.0,0.0,0.0,0.0,0.0,0.0,-0.000747512402144,-0.00833006075408,7.18685757462e-05,0.0,0.0,0.0,0.0,0.0,0.0,0.0,0.0,0.0,6.65533337195,-0.00307639225078,6.9999754179,0.0,0.0,0.0,0.0,0.0,0.0,0.0,0.0,0.0
28012000000,348,28012000000,imu_link,-0.000253415558889,-0.376965509248,-0.00067354055609,0.926227016968,0.0,0.0,0.0,0.0,0.0,0.0,0.0,0.0,0.0,-0.0010040104897,-0.00835262141479,9.63791646038e-05,0.0,0.0,0.0,0.0,0.0,0.0,0.0,0.0,0.0,6.65624830837,-0.00326278138253,6.99757365507,0.0,0.0,0.0,0.0,0.0,0.0,0.0,0.0,0.0
28016000000,349,28016000000,imu_link,-0.000255420433322,-0.376980928517,-0.00067418687081,0.926220740303,0.0,0.0,0.0,0.0,0.0,0.0,0.0,0.0,0.0,-0.00104590616258,-0.00832450781858,7.44996423846e-05,0.0,0.0,0.0,0.0,0.0,0.0,0.0,0.0,0.0,6.6572587665,-0.00337756182947,6.99687259289,0.0,0.0,0.0,0.0,0.0,0.0,0.0,0.0,0.0
28020000000,350,28020000000,imu_link,-0.000257529676303,-0.376996284249,-0.000674889334703,0.926214489125,0.0,0.0,0.0,0.0,0.0,0.0,0.0,0.0,0.0,-0.00110484206595,-0.00829030757243,6.81855606871e-05,0.0,0.0,0.0,0.0,0.0,0.0,0.0,0.0,0.0,6.65646283314,-0.00335250540614,6.99389910886,0.0,0.0,0.0,0.0,0.0,0.0,0.0,0.0,0.0
28024000000,351,28024000000,imu_link,-0.000259972267466,-0.377011815873,-0.000675679252243,0.926208165892,0.0,0.0,0.0,0.0,0.0,0.0,0.0,0.0,0.0,-0.00127565279853,-0.00838544764409,9.04736923442e-05,0.0,0.0,0.0,0.0,0.0,0.0,0.0,0.0,0.0,6.65570918565,-0.00329990831675,6.99307677915,0.0,0.0,0.0,0.0,0.0,0.0,0.0,0.0,0.0
28028000000,352,28028000000,imu_link,-0.000262840097193,-0.377027783614,-0.00067654935556,0.926201664639,0.0,0.0,0.0,0.0,0.0,0.0,0.0,0.0,0.0,-0.00148757380887,-0.00862110640134,0.0001333824821,0.0,0.0,0.0,0.0,0.0,0.0,0.0,0.0,0.0,6.65648463514,-0.00332341526079,6.99493690456,0.0,0.0,0.0,0.0,0.0,0.0,0.0,0.0,0.0
28032000000,353,28032000000,imu_link,-0.000265978077552,-0.377044282157,-0.000677464402175,0.926194946861,0.0,0.0,0.0,0.0,0.0,0.0,0.0,0.0,0.0,-0.00162100212598,-0.00890782500562,0.00016335334716,0.0,0.0,0.0,0.0,0.0,0.0,0.0,0.0,0.0,6.65634339289,-0.00333681632841,6.99382707455,0.0,0.0,0.0,0.0,0.0,0.0,0.0,0.0,0.0
28036000000,354,28036000000,imu_link,-0.000268807432336,-0.377061422301,-0.00067835532785,0.926187967633,0.0,0.0,0.0,0.0,0.0,0.0,0.0,0.0,0.0,-0.0014733485099,-0.00925413621815,0.000116167052514,0.0,0.0,0.0,0.0,0.0,0.0,0.0,0.0,0.0,6.65746686372,-0.00335736013523,6.99533247742,0.0,0.0,0.0,0.0,0.0,0.0,0.0,0.0,0.0
28040000000,355,28040000000,imu_link,-0.00027087625919,-0.377079197688,-0.000679217162181,0.926180729642,0.0,0.0,0.0,0.0,0.0,0.0,0.0,0.0,0.0,-0.00111548730791,-0.00959684418556,-1.39169386017e-05,0.0,0.0,0.0,0.0,0.0,0.0,0.0,0.0,0.0,6.65869034531,-0.00332139497038,6.99634817449,0.0,0.0,0.0,0.0,0.0,0.0,0.0,0.0,0.0
28044000000,356,28044000000,imu_link,-0.000271909288067,-0.377097556907,-0.00068006369735,0.926173253853,0.0,0.0,0.0,0.0,0.0,0.0,0.0,0.0,0.0,-0.000632768679588,-0.00991169576692,-0.000202280810728,0.0,0.0,0.0,0.0,0.0,0.0,0.0,0.0,0.0,6.65900127277,-0.00323267235924,6.99527398328,0.0,0.0,0.0,0.0,0.0,0.0,0.0,0.0,0.0
28048000000,357,28048000000,imu_link,-0.000271956758648,-0.377116497604,-0.00068094801069,0.926165541134,0.0,0.0,0.0,0.0,0.0,0.0,0.0,0.0,0.0,-0.000183327330694,-0.0102253033608,-0.000405760808029,0.0,0.0,0.0,0.0,0.0,0.0,0.0,0.0,0.0,6.65890353943,-0.00304709787857,6.99359189102,0.0,0.0,0.0,0.0,0.0,0.0,0.0,0.0,0.0
28052000000,358,28052000000,imu_link,-0.000270995028061,-0.377135885954,-0.000681890438827,0.926157645929,0.0,0.0,0.0,0.0,0.0,0.0,0.0,0.0,0.0,0.000273185917461,-0.0104666610424,-0.000623088976135,0.0,0.0,0.0,0.0,0.0,0.0,0.0,0.0,0.0,6.65852715431,-0.0028710545372,6.99018533386,0.0,0.0,0.0,0.0,0.0,0.0,0.0,0.0,0.0
28056000000,359,28056000000,imu_link,-0.000268866700935,-0.377155406232,-0.000682894558072,0.926149696818,0.0,0.0,0.0,0.0,0.0,0.0,0.0,0.0,0.0,0.000801816780632,-0.0105375133027,-0.00087167578714,0.0,0.0,0.0,0.0,0.0,0.0,0.0,0.0,0.0,6.66034690093,-0.0027047087889,6.98935376767,0.0,0.0,0.0,0.0,0.0,0.0,0.0,0.0,0.0
28060000000,360,28060000000,imu_link,-0.000265141171479,-0.377174679254,-0.000683946207666,0.926141848341,0.0,0.0,0.0,0.0,0.0,0.0,0.0,0.0,0.0,0.00153240694705,-0.0104034859441,-0.00119481504246,0.0,0.0,0.0,0.0,0.0,0.0,0.0,0.0,0.0,6.66194336287,-0.00256676969346,6.98769324286,0.0,0.0,0.0,0.0,0.0,0.0,0.0,0.0,0.0
28064000000,361,28064000000,imu_link,-0.000259683708365,-0.377193361597,-0.000685043071275,0.926134240404,0.0,0.0,0.0,0.0,0.0,0.0,0.0,0.0,0.0,0.00232571816871,-0.010083998688,-0.00154221253451,0.0,0.0,0.0,0.0,0.0,0.0,0.0,0.0,0.0,6.66206782591,-0.00234394879359,6.98338742114,0.0,0.0,0.0,0.0,0.0,0.0,0.0,0.0,0.0
28068000000,362,28068000000,imu_link,-0.000253002839494,-0.377211157628,-0.000686216691302,0.926126993267,0.0,0.0,0.0,0.0,0.0,0.0,0.0,0.0,0.0,0.0028775044097,-0.00960510212978,-0.00180824750996,0.0,0.0,0.0,0.0,0.0,0.0,0.0,0.0,0.0,6.66269119628,-0.00200648146522,6.98072829355,0.0,0.0,0.0,0.0,0.0,0.0,0.0,0.0,0.0
28072000000,363,28072000000,imu_link,-0.00024585783546,-0.377227832332,-0.000687491461425,0.92612020247,0.0,0.0,0.0,0.0,0.0,0.0,0.0,0.0,0.0,0.00307302397977,-0.00899961601765,-0.00194232648509,0.0,0.0,0.0,0.0,0.0,0.0,0.0,0.0,0.0,6.66373283907,-0.00171465342847,6.97953392156,0.0,0.0,0.0,0.0,0.0,0.0,0.0,0.0,0.0
28076000000,364,28076000000,imu_link,-0.000239019631082,-0.377243291511,-0.000688905487104,0.926113906217,0.0,0.0,0.0,0.0,0.0,0.0,0.0,0.0,0.0,0.0029043347264,-0.00834356549741,-0.00194862407229,0.0,0.0,0.0,0.0,0.0,0.0,0.0,0.0,0.0,6.66535490755,-0.00149136520828,6.98098131652,0.0,0.0,0.0,0.0,0.0,0.0,0.0,0.0,0.0
28080000000,365,28080000000,imu_link,-0.000232547914375,-0.377257688567,-0.00069046391496,0.926108042076,0.0,0.0,0.0,0.0,0.0,0.0,0.0,0.0,0.0,0.0027070784764,-0.00777034558367,-0.00194608722009,0.0,0.0,0.0,0.0,0.0,0.0,0.0,0.0,0.0,6.665145634,-0.00145091125201,6.98055779781,0.0,0.0,0.0,0.0,0.0,0.0,0.0,0.0,0.0
28084000000,366,28084000000,imu_link,-0.000225835860766,-0.377271182101,-0.000692120676032,0.926102545684,0.0,0.0,0.0,0.0,0.0,0.0,0.0,0.0,0.0,0.00279954979922,-0.0072825035792,-0.00203672326809,0.0,0.0,0.0,0.0,0.0,0.0,0.0,0.0,0.0,6.66576350296,-0.00154502567551,6.98181968174,0.0,0.0,0.0,0.0,0.0,0.0,0.0,0.0,0.0
28088000000,367,28088000000,imu_link,-0.000218059936033,-0.377283860547,-0.000693788982215,0.926097381314,0.0,0.0,0.0,0.0,0.0,0.0,0.0,0.0,0.0,0.00328975428009,-0.00684207502342,-0.00224254626737,0.0,0.0,0.0,0.0,0.0,0.0,0.0,0.0,0.0,6.6673494329,-0.00163499038636,6.98442949379,0.0,0.0,0.0,0.0,0.0,0.0,0.0,0.0,0.0
28092000000,368,28092000000,imu_link,-0.0002088541548,-0.377295709458,-0.000695379298673,0.926092555014,0.0,0.0,0.0,0.0,0.0,0.0,0.0,0.0,0.0,0.0039663086905,-0.00639369837657,-0.0024759563988,0.0,0.0,0.0,0.0,0.0,0.0,0.0,0.0,0.0,6.66775631411,-0.00158995371934,6.98358752738,0.0,0.0,0.0,0.0,0.0,0.0,0.0,0.0,0.0
28096000000,369,28096000000,imu_link,-0.000198132098214,-0.377306836776,-0.000696839117306,0.926088022858,0.0,0.0,0.0,0.0,0.0,0.0,0.0,0.0,0.0,0.00469281231027,-0.00600356429096,-0.00270139433427,0.0,0.0,0.0,0.0,0.0,0.0,0.0,0.0,0.0,6.66739098795,-0.0014244402661,6.98258657078,0.0,0.0,0.0,0.0,0.0,0.0,0.0,0.0,0.0
28100000000,370,28100000000,imu_link,-0.000186069579645,-0.377317416939,-0.000698145633058,0.926083713735,0.0,0.0,0.0,0.0,0.0,0.0,0.0,0.0,0.0,0.00534225777197,-0.00570767952488,-0.00288315917556,0.0,0.0,0.0,0.0,0.0,0.0,0.0,0.0,0.0,6.66738605225,-0.0011879793698,6.98293727028,0.0,0.0,0.0,0.0,0.0,0.0,0.0,0.0,0.0
28104000000,371,28104000000,imu_link,-0.000172819892186,-0.377327616096,-0.000699341511535,0.926079559858,0.0,0.0,0.0,0.0,0.0,0.0,0.0,0.0,0.0,0.00591272078952,-0.00550156573276,-0.00305580959666,0.0,0.0,0.0,0.0,0.0,0.0,0.0,0.0,0.0,6.66720182414,-0.000976579472286,6.98288539938,0.0,0.0,0.0,0.0,0.0,0.0,0.0,0.0,0.0
28108000000,372,28108000000,imu_link,-0.000158733069226,-0.377337683167,-0.000700482703553,0.926075459663,0.0,0.0,0.0,0.0,0.0,0.0,0.0,0.0,0.0,0.00631062363527,-0.00542998824927,-0.00318839457763,0.0,0.0,0.0,0.0,0.0,0.0,0.0,0.0,0.0,6.66794627217,-0.000761677456728,6.98493831335,0.0,0.0,0.0,0.0,0.0,0.0,0.0,0.0,0.0
28112000000,373,28112000000,imu_link,-0.000144180294393,-0.377347670248,-0.000701581198133,0.926071391824,0.0,0.0,0.0,0.0,0.0,0.0,0.0,0.0,0.0,0.00653440716067,-0.00538668575334,-0.00325651697232,0.0,0.0,0.0,0.0,0.0,0.0,0.0,0.0,0.0,6.66844826113,-0.000593188408788,6.98478879971,0.0,0.0,0.0,0.0,0.0,0.0,0.0,0.0,0.0
28116000000,374,28116000000,imu_link,-0.000129250552767,-0.377357621232,-0.000702600788204,0.92606733845,0.0,0.0,0.0,0.0,0.0,0.0,0.0,0.0,0.0,0.00672383183954,-0.00536711567431,-0.00329109746171,0.0,0.0,0.0,0.0,0.0,0.0,0.0,0.0,0.0,6.66953582557,-0.000527903011454,6.98576695491,0.0,0.0,0.0,0.0,0.0,0.0,0.0,0.0,0.0
28120000000,375,28120000000,imu_link,-0.00011383465402,-0.377367577689,-0.000703513875798,0.926063282621,0.0,0.0,0.0,0.0,0.0,0.0,0.0,0.0,0.0,0.00696903547925,-0.00536994920843,-0.00333351199295,0.0,0.0,0.0,0.0,0.0,0.0,0.0,0.0,0.0,6.67008087771,-0.000517997522128,6.98561179682,0.0,0.0,0.0,0.0,0.0,0.0,0.0,0.0,0.0
28124000000,376,28124000000,imu_link,-9.77105741096e-05,-0.377377459388,-0.000704278422444,0.926059257062,0.0,0.0,0.0,0.0,0.0,0.0,0.0,0.0,0.0,0.00732494846103,-0.00532938146272,-0.00339834023601,0.0,0.0,0.0,0.0,0.0,0.0,0.0,0.0,0.0,6.67054559682,-0.000487654727985,6.98396885752,0.0,0.0,0.0,0.0,0.0,0.0,0.0,0.0,0.0
28128000000,377,28128000000,imu_link,-8.07087516666e-05,-0.377387212738,-0.000704864462115,0.926055283616,0.0,0.0,0.0,0.0,0.0,0.0,0.0,0.0,0.0,0.00776500886386,-0.00525981904837,-0.00348128172013,0.0,0.0,0.0,0.0,0.0,0.0,0.0,0.0,0.0,6.67090059225,-0.000418836915337,6.98230244513,0.0,0.0,0.0,0.0,0.0,0.0,0.0,0.0,0.0
28132000000,378,28132000000,imu_link,-6.30101720301e-05,-0.377396724521,-0.000705250120738,0.926051408386,0.0,0.0,0.0,0.0,0.0,0.0,0.0,0.0,0.0,0.00812535615398,-0.00512919639474,-0.00351992902083,0.0,0.0,0.0,0.0,0.0,0.0,0.0,0.0,0.0,6.67171906591,-0.000341238931275,6.98154673329,0.0,0.0,0.0,0.0,0.0,0.0,0.0,0.0,0.0
28136000000,379,28136000000,imu_link,-4.51637227833e-05,-0.377405887307,-0.000705448571249,0.926047675084,0.0,0.0,0.0,0.0,0.0,0.0,0.0,0.0,0.0,0.00822903085505,-0.00494077402317,-0.00346108856372,0.0,0.0,0.0,0.0,0.0,0.0,0.0,0.0,0.0,6.67347863776,-0.000307014050836,6.98302542101,0.0,0.0,0.0,0.0,0.0,0.0,0.0,0.0,0.0
