%time,field.header.seq,field.header.stamp,field.header.frame_id,field.orientation.x,field.orientation.y,field.orientation.z,field.orientation.w,field.orientation_covariance0,field.orientation_covariance1,field.orientation_covariance2,field.orientation_covariance3,field.orientation_covariance4,field.orientation_covariance5,field.orientation_covariance6,field.orientation_covariance7,field.orientation_covariance8,field.angular_velocity.x,field.angular_velocity.y,field.angular_velocity.z,field.angular_velocity_covariance0,field.angular_velocity_covariance1,field.angular_velocity_covariance2,field.angular_velocity_covariance3,field.angular_velocity_covariance4,field.angular_velocity_covariance5,field.angular_velocity_covariance6,field.angular_velocity_covariance7,field.angular_velocity_covariance8,field.linear_acceleration.x,field.linear_acceleration.y,field.linear_acceleration.z,field.linear_acceleration_covariance0,field.linear_acceleration_covariance1,field.linear_acceleration_covariance2,field.linear_acceleration_covariance3,field.linear_acceleration_covariance4,field.linear_acceleration_covariance5,field.linear_acceleration_covariance6,field.linear_acceleration_covariance7,field.linear_acceleration_covariance8
56844000000,0,56844000000,imu_link,-0.000724788766212,-0.326504070985,0.00985822398379,0.945144106331,0.0,0.0,0.0,0.0,0.0,0.0,0.0,0.0,0.0,-0.00765566991315,-0.199381455704,-0.000308233362342,0.0,0.0,0.0,0.0,0.0,0.0,0.0,0.0,0.0,4.62639756329,-0.0483694773941,8.87503927557,0.0,0.0,0.0,0.0,0.0,0.0,0.0,0.0,0.0
56848000000,1,56848000000,imu_link,-0.000734144183106,-0.326880351456,0.00985333714217,0.945014078525,0.0,0.0,0.0,0.0,0.0,0.0,0.0,0.0,0.0,-0.00712074590786,-0.198999069825,-0.000277534265336,0.0,0.0,0.0,0.0,0.0,0.0,0.0,0.0,0.0,4.63223064933,-0.0487122877246,8.87680010622,0.0,0.0,0.0,0.0,0.0,0.0,0.0,0.0,0.0
56852000000,2,56852000000,imu_link,-0.000742801406505,-0.327255957471,0.00984871373768,0.944884114262,0.0,0.0,0.0,0.0,0.0,0.0,0.0,0.0,0.0,-0.0067444421713,-0.198673535191,-0.000267236704526,0.0,0.0,0.0,0.0,0.0,0.0,0.0,0.0,0.0,4.63828574427,-0.0487603690247,8.87538125393,0.0,0.0,0.0,0.0,0.0,0.0,0.0,0.0,0.0
56856000000,3,56856000000,imu_link,-0.000751124543448,-0.3276314884,0.00984419946742,0.944754007855,0.0,0.0,0.0,0.0,0.0,0.0,0.0,0.0,0.0,-0.00656843130142,-0.198663006388,-0.00026961514778,0.0,0.0,0.0,0.0,0.0,0.0,0.0,0.0,0.0,4.6440600814,-0.0486754669868,8.87815797706,0.0,0.0,0.0,0.0,0.0,0.0,0.0,0.0,0.0
56860000000,4,56860000000,imu_link,-0.000758924610562,-0.328006883752,0.00983973304021,0.944623781142,0.0,0.0,0.0,0.0,0.0,0.0,0.0,0.0,0.0,-0.00631288552746,-0.198621262716,-0.000332059192436,0.0,0.0,0.0,0.0,0.0,0.0,0.0,0.0,0.0,4.65128288758,-0.0488362087699,8.87568759406,0.0,0.0,0.0,0.0,0.0,0.0,0.0,0.0,0.0
56864000000,5,56864000000,imu_link,-0.000765826007463,-0.32838191972,0.00983527434632,0.944493512783,0.0,0.0,0.0,0.0,0.0,0.0,0.0,0.0,0.0,-0.00588541226369,-0.198462776211,-0.000475450413856,0.0,0.0,0.0,0.0,0.0,0.0,0.0,0.0,0.0,4.65758592682,-0.0489581544318,8.86946352608,0.0,0.0,0.0,0.0,0.0,0.0,0.0,0.0,0.0
56868000000,6,56868000000,imu_link,-0.000771467445131,-0.328756972609,0.00983089662459,0.944363071742,0.0,0.0,0.0,0.0,0.0,0.0,0.0,0.0,0.0,-0.0052772549855,-0.198505346659,-0.000643242785447,0.0,0.0,0.0,0.0,0.0,0.0,0.0,0.0,0.0,4.66587153579,-0.0492011202773,8.87033240816,0.0,0.0,0.0,0.0,0.0,0.0,0.0,0.0,0.0
56872000000,7,56872000000,imu_link,-0.000775593926885,-0.329132324231,0.00982670928508,0.94423235879,0.0,0.0,0.0,0.0,0.0,0.0,0.0,0.0,0.0,-0.00453219927315,-0.198698619734,-0.000801152657018,0.0,0.0,0.0,0.0,0.0,0.0,0.0,0.0,0.0,4.67420840425,-0.0492979813781,8.86998044462,0.0,0.0,0.0,0.0,0.0,0.0,0.0,0.0,0.0
56876000000,8,56876000000,imu_link,-0.000778101326461,-0.329507788592,0.00982279760075,0.944101437592,0.0,0.0,0.0,0.0,0.0,0.0,0.0,0.0,0.0,-0.0037230754875,-0.198794178142,-0.000936478071221,0.0,0.0,0.0,0.0,0.0,0.0,0.0,0.0,0.0,4.68055557142,-0.0490350675477,8.86176164592,0.0,0.0,0.0,0.0,0.0,0.0,0.0,0.0,0.0
56880000000,9,56880000000,imu_link,-0.00077913912698,-0.329883260297,0.0098191895302,0.943970344362,0.0,0.0,0.0,0.0,0.0,0.0,0.0,0.0,0.0,-0.0029794315802,-0.198833323202,-0.00103443708893,0.0,0.0,0.0,0.0,0.0,0.0,0.0,0.0,0.0,4.68697065985,-0.0482168355957,8.8570227819,0.0,0.0,0.0,0.0,0.0,0.0,0.0,0.0,0.0
56884000000,10,56884000000,imu_link,-0.000778923917003,-0.330258511503,0.00981585590765,0.943839158877,0.0,0.0,0.0,0.0,0.0,0.0,0.0,0.0,0.0,-0.00234171462875,-0.198750726031,-0.00111103646272,0.0,0.0,0.0,0.0,0.0,0.0,0.0,0.0,0.0,4.6921584154,-0.0478064005799,8.85018010778,0.0,0.0,0.0,0.0,0.0,0.0,0.0,0.0,0.0
56888000000,11,56888000000,imu_link,-0.000777930521137,-0.330633829345,0.00981269495206,0.943707781432,0.0,0.0,0.0,0.0,0.0,0.0,0.0,0.0,0.0,-0.00194636288545,-0.198817758242,-0.00115713662916,0.0,0.0,0.0,0.0,0.0,0.0,0.0,0.0,0.0,4.69788934282,-0.0477602184752,8.85217320412,0.0,0.0,0.0,0.0,0.0,0.0,0.0,0.0,0.0
56892000000,12,56892000000,imu_link,-0.000776581687196,-0.331009622988,0.00980965855414,0.943576068481,0.0,0.0,0.0,0.0,0.0,0.0,0.0,0.0,0.0,-0.00176052148658,-0.199099523759,-0.00115566249897,0.0,0.0,0.0,0.0,0.0,0.0,0.0,0.0,0.0,4.70264023311,-0.0478925619623,8.855148318,0.0,0.0,0.0,0.0,0.0,0.0,0.0,0.0,0.0
56896000000,13,56896000000,imu_link,-0.000775208867707,-0.331386133494,0.00980673701864,0.94344393447,0.0,0.0,0.0,0.0,0.0,0.0,0.0,0.0,0.0,-0.00173387469418,-0.19950758126,-0.00110365462414,0.0,0.0,0.0,0.0,0.0,0.0,0.0,0.0,0.0,4.70736612511,-0.0479355371478,8.8518727281,0.0,0.0,0.0,0.0,0.0,0.0,0.0,0.0,0.0
56900000000,14,56900000000,imu_link,-0.000774022754405,-0.331763072606,0.00980391849836,0.943311479696,0.0,0.0,0.0,0.0,0.0,0.0,0.0,0.0,0.0,-0.00180710514013,-0.199762036294,-0.00102271746893,0.0,0.0,0.0,0.0,0.0,0.0,0.0,0.0,0.0,4.71143043836,-0.0480119690984,8.84485038925,0.0,0.0,0.0,0.0,0.0,0.0,0.0,0.0,0.0
56904000000,15,56904000000,imu_link,-0.000773333721872,-0.332139906626,0.00980108026065,0.943178892473,0.0,0.0,0.0,0.0,0.0,0.0,0.0,0.0,0.0,-0.0020443630194,-0.199731995978,-0.000948870844849,0.0,0.0,0.0,0.0,0.0,0.0,0.0,0.0,0.0,4.71715754205,-0.0480482378658,8.8393185025,0.0,0.0,0.0,0.0,0.0,0.0,0.0,0.0,0.0
56908000000,16,56908000000,imu_link,-0.000773037254717,-0.332517122939,0.00979819670872,0.943046001374,0.0,0.0,0.0,0.0,0.0,0.0,0.0,0.0,0.0,-0.00223900899627,-0.199960804628,-0.000903705901866,0.0,0.0,0.0,0.0,0.0,0.0,0.0,0.0,0.0,4.72567962499,-0.0484833362995,8.84364009496,0.0,0.0,0.0,0.0,0.0,0.0,0.0,0.0,0.0
56912000000,17,56912000000,imu_link,-0.000773120292302,-0.332895326021,0.00979520164055,0.942912593098,0.0,0.0,0.0,0.0,0.0,0.0,0.0,0.0,0.0,-0.00244152893142,-0.200510171647,-0.000891040163584,0.0,0.0,0.0,0.0,0.0,0.0,0.0,0.0,0.0,4.73320836989,-0.0488860537692,8.847133892,0.0,0.0,0.0,0.0,0.0,0.0,0.0,0.0,0.0
56916000000,18,56916000000,imu_link,-0.000773904492952,-0.333275309433,0.00979197258012,0.94277838672,0.0,0.0,0.0,0.0,0.0,0.0,0.0,0.0,0.0,-0.00282007203361,-0.201478837596,-0.000881429756145,0.0,0.0,0.0,0.0,0.0,0.0,0.0,0.0,0.0,4.73983408557,-0.0493127097183,8.84946740121,0.0,0.0,0.0,0.0,0.0,0.0,0.0,0.0,0.0
56920000000,19,56920000000,imu_link,-0.000775930796872,-0.333656981507,0.00978838884644,0.942643412997,0.0,0.0,0.0,0.0,0.0,0.0,0.0,0.0,0.0,-0.00347325265674,-0.202396504751,-0.000838534232951,0.0,0.0,0.0,0.0,0.0,0.0,0.0,0.0,0.0,4.74579027383,-0.0493889726596,8.84526972102,0.0,0.0,0.0,0.0,0.0,0.0,0.0,0.0,0.0
56924000000,20,56924000000,imu_link,-0.000779450319424,-0.334039907721,0.00978443513794,0.942507823488,0.0,0.0,0.0,0.0,0.0,0.0,0.0,0.0,0.0,-0.00424513832621,-0.203082887532,-0.00076127276311,0.0,0.0,0.0,0.0,0.0,0.0,0.0,0.0,0.0,4.75165276417,-0.0492904672355,8.83843192334,0.0,0.0,0.0,0.0,0.0,0.0,0.0,0.0,0.0
56928000000,21,56928000000,imu_link,-0.000784233870915,-0.334424050316,0.00978016794409,0.942371629381,0.0,0.0,0.0,0.0,0.0,0.0,0.0,0.0,0.0,-0.00489936170522,-0.20375078608,-0.000695402134751,0.0,0.0,0.0,0.0,0.0,0.0,0.0,0.0,0.0,4.75812827669,-0.0493010410679,8.83499193774,0.0,0.0,0.0,0.0,0.0,0.0,0.0,0.0,0.0
56932000000,22,56932000000,imu_link,-0.000790103597473,-0.334808849823,0.00977561564118,0.942235027557,0.0,0.0,0.0,0.0,0.0,0.0,0.0,0.0,0.0,-0.00546219792523,-0.204123065384,-0.000646383758604,0.0,0.0,0.0,0.0,0.0,0.0,0.0,0.0,0.0,4.76468149039,-0.0495462856263,8.83131533147,0.0,0.0,0.0,0.0,0.0,0.0,0.0,0.0,0.0
56936000000,23,56936000000,imu_link,-0.000796858243238,-0.335193972708,0.00977085205602,0.942098135083,0.0,0.0,0.0,0.0,0.0,0.0,0.0,0.0,0.0,-0.00591616391248,-0.204319661469,-0.00059649024119,0.0,0.0,0.0,0.0,0.0,0.0,0.0,0.0,0.0,4.76917731898,-0.0501568737061,8.82447017825,0.0,0.0,0.0,0.0,0.0,0.0,0.0,0.0,0.0
56940000000,24,56940000000,imu_link,-0.000804450057349,-0.335579074891,0.00976595570145,0.941961073222,0.0,0.0,0.0,0.0,0.0,0.0,0.0,0.0,0.0,-0.00633272942362,-0.204334156223,-0.0005178884703,0.0,0.0,0.0,0.0,0.0,0.0,0.0,0.0,0.0,4.77350989109,-0.0506147200362,8.8193229091,0.0,0.0,0.0,0.0,0.0,0.0,0.0,0.0,0.0
56944000000,25,56944000000,imu_link,-0.000813044654753,-0.335963888372,0.00976091560286,0.941823937472,0.0,0.0,0.0,0.0,0.0,0.0,0.0,0.0,0.0,-0.00682775961281,-0.204205626272,-0.000416855636419,0.0,0.0,0.0,0.0,0.0,0.0,0.0,0.0,0.0,4.77907342698,-0.0507563653655,8.8137362132,0.0,0.0,0.0,0.0,0.0,0.0,0.0,0.0,0.0
56948000000,26,56948000000,imu_link,-0.000822635722243,-0.336349030512,0.00975566928821,0.941686508272,0.0,0.0,0.0,0.0,0.0,0.0,0.0,0.0,0.0,-0.00733337322142,-0.204404743021,-0.000345277693546,0.0,0.0,0.0,0.0,0.0,0.0,0.0,0.0,0.0,4.7855889793,-0.050865526331,8.81935866861,0.0,0.0,0.0,0.0,0.0,0.0,0.0,0.0,0.0
56952000000,27,56952000000,imu_link,-0.000832472804541,-0.336734567282,0.00975037365473,0.941548760501,0.0,0.0,0.0,0.0,0.0,0.0,0.0,0.0,0.0,-0.00745955779217,-0.204642907486,-0.000325734087605,0.0,0.0,0.0,0.0,0.0,0.0,0.0,0.0,0.0,4.79167871336,-0.0510628801937,8.81800944651,0.0,0.0,0.0,0.0,0.0,0.0,0.0,0.0,0.0
56956000000,28,56956000000,imu_link,-0.000841593724437,-0.337120288008,0.00974527599189,0.941410767269,0.0,0.0,0.0,0.0,0.0,0.0,0.0,0.0,0.0,-0.00709007406209,-0.204774410613,-0.000351992808521,0.0,0.0,0.0,0.0,0.0,0.0,0.0,0.0,0.0,4.79820921643,-0.0515605884179,8.81347756472,0.0,0.0,0.0,0.0,0.0,0.0,0.0,0.0,0.0
56960000000,29,56960000000,imu_link,-0.000849333758623,-0.337505670791,0.00974049664045,0.941272714754,0.0,0.0,0.0,0.0,0.0,0.0,0.0,0.0,0.0,-0.00638480731952,-0.204632194125,-0.000434493150995,0.0,0.0,0.0,0.0,0.0,0.0,0.0,0.0,0.0,4.80591817341,-0.0519783048148,8.80857715319,0.0,0.0,0.0,0.0,0.0,0.0,0.0,0.0,0.0
56964000000,30,56964000000,imu_link,-0.000855435284234,-0.337890273508,0.00973607670789,0.941134761928,0.0,0.0,0.0,0.0,0.0,0.0,0.0,0.0,0.0,-0.00554917113609,-0.204256376422,-0.000541994775113,0.0,0.0,0.0,0.0,0.0,0.0,0.0,0.0,0.0,4.81236740311,-0.0522769283435,8.80120202708,0.0,0.0,0.0,0.0,0.0,0.0,0.0,0.0,0.0
56968000000,31,56968000000,imu_link,-0.00085975514037,-0.338273935856,0.00973202476774,0.940996967495,0.0,0.0,0.0,0.0,0.0,0.0,0.0,0.0,0.0,-0.00464395949077,-0.203795940146,-0.000670202803094,0.0,0.0,0.0,0.0,0.0,0.0,0.0,0.0,0.0,4.8181202213,-0.0520223800426,8.79543973483,0.0,0.0,0.0,0.0,0.0,0.0,0.0,0.0,0.0
56972000000,32,56972000000,imu_link,-0.000862300756804,-0.338656663653,0.00972829555168,0.940859331073,0.0,0.0,0.0,0.0,0.0,0.0,0.0,0.0,0.0,-0.00374998229125,-0.203338282167,-0.000818818282243,0.0,0.0,0.0,0.0,0.0,0.0,0.0,0.0,0.0,4.82268248645,-0.0511420462541,8.78927301286,0.0,0.0,0.0,0.0,0.0,0.0,0.0,0.0,0.0
56976000000,33,56976000000,imu_link,-0.000863251968395,-0.33903843187,0.00972476084239,0.940721864069,0.0,0.0,0.0,0.0,0.0,0.0,0.0,0.0,0.0,-0.00296225079539,-0.202866018781,-0.000997704813208,0.0,0.0,0.0,0.0,0.0,0.0,0.0,0.0,0.0,4.82679137021,-0.0504812149796,8.78379268188,0.0,0.0,0.0,0.0,0.0,0.0,0.0,0.0,0.0
56980000000,34,56980000000,imu_link,-0.000862600666231,-0.339418681576,0.00972136765893,0.940584769985,0.0,0.0,0.0,0.0,0.0,0.0,0.0,0.0,0.0,-0.00217695498023,-0.202096406754,-0.00120395132552,0.0,0.0,0.0,0.0,0.0,0.0,0.0,0.0,0.0,4.83152390314,-0.0501291559464,8.78033388512,0.0,0.0,0.0,0.0,0.0,0.0,0.0,0.0,0.0
56984000000,35,56984000000,imu_link,-0.000860033985484,-0.33979715029,0.00971820452616,0.940448145034,0.0,0.0,0.0,0.0,0.0,0.0,0.0,0.0,0.0,-0.00122826600965,-0.201188612222,-0.0014223300582,0.0,0.0,0.0,0.0,0.0,0.0,0.0,0.0,0.0,4.83537414793,-0.0504677803518,8.77556784787,0.0,0.0,0.0,0.0,0.0,0.0,0.0,0.0,0.0
56988000000,36,56988000000,imu_link,-0.000855741172702,-0.340174393295,0.00971521756652,0.940311791057,0.0,0.0,0.0,0.0,0.0,0.0,0.0,0.0,0.0,-0.00038059317461,-0.200574679289,-0.00163354622124,0.0,0.0,0.0,0.0,0.0,0.0,0.0,0.0,0.0,4.84156894936,-0.050668178039,8.78158320014,0.0,0.0,0.0,0.0,0.0,0.0,0.0,0.0,0.0
56992000000,37,56992000000,imu_link,-0.00085054162188,-0.340551197638,0.00971230318127,0.940175424872,0.0,0.0,0.0,0.0,0.0,0.0,0.0,0.0,0.0,6.01846956075e-05,-0.200374951909,-0.00175340248729,0.0,0.0,0.0,0.0,0.0,0.0,0.0,0.0,0.0,4.84913550274,-0.0505799236928,8.7903434973,0.0,0.0,0.0,0.0,0.0,0.0,0.0,0.0,0.0
56996000000,38,56996000000,imu_link,-0.000845463999441,-0.340928348877,0.00970932765127,0.940038762541,0.0,0.0,0.0,0.0,0.0,0.0,0.0,0.0,0.0,-9.35432652768e-06,-0.200587831939,-0.00176009385163,0.0,0.0,0.0,0.0,0.0,0.0,0.0,0.0,0.0,4.85572959458,-0.050295080813,8.79651656147,0.0,0.0,0.0,0.0,0.0,0.0,0.0,0.0,0.0
57000000000,39,57000000000,imu_link,-0.000840982316512,-0.341306107954,0.00970624357529,0.939901708828,0.0,0.0,0.0,0.0,0.0,0.0,0.0,0.0,0.0,-0.000311076969646,-0.200937305225,-0.00170788315007,0.0,0.0,0.0,0.0,0.0,0.0,0.0,0.0,0.0,4.86360938795,-0.0504066442461,8.79783849066,0.0,0.0,0.0,0.0,0.0,0.0,0.0,0.0,0.0
57004000000,40,57004000000,imu_link,-0.000837287958915,-0.341685052842,0.00970302705677,0.93976405277,0.0,0.0,0.0,0.0,0.0,0.0,0.0,0.0,0.0,-0.000709691107427,-0.2015934938,-0.00163334052888,0.0,0.0,0.0,0.0,0.0,0.0,0.0,0.0,0.0,4.87083441395,-0.0505990847266,8.80046714257,0.0,0.0,0.0,0.0,0.0,0.0,0.0,0.0,0.0
57008000000,41,57008000000,imu_link,-0.000834199955691,-0.342065952216,0.00969973445825,0.939625512423,0.0,0.0,0.0,0.0,0.0,0.0,0.0,0.0,0.0,-0.00101745626687,-0.202659972124,-0.00156202612649,0.0,0.0,0.0,0.0,0.0,0.0,0.0,0.0,0.0,4.8779280792,-0.0509479351672,8.80341150121,0.0,0.0,0.0,0.0,0.0,0.0,0.0,0.0,0.0
57012000000,42,57012000000,imu_link,-0.000830892040021,-0.342449033485,0.00969663016711,0.939486000133,0.0,0.0,0.0,0.0,0.0,0.0,0.0,0.0,0.0,-0.000892919116045,-0.203852434313,-0.00150736547005,0.0,0.0,0.0,0.0,0.0,0.0,0.0,0.0,0.0,4.88437688746,-0.0512908057039,8.8004598142,0.0,0.0,0.0,0.0,0.0,0.0,0.0,0.0,0.0
57016000000,43,57016000000,imu_link,-0.000827024836645,-0.342834159565,0.00969382813117,0.939345561953,0.0,0.0,0.0,0.0,0.0,0.0,0.0,0.0,0.0,-0.00058874265025,-0.204974342348,-0.00145750747147,0.0,0.0,0.0,0.0,0.0,0.0,0.0,0.0,0.0,4.89049837258,-0.0513012970408,8.79445696633,0.0,0.0,0.0,0.0,0.0,0.0,0.0,0.0,0.0
57020000000,44,57020000000,imu_link,-0.000822654058704,-0.343221249653,0.00969130636876,0.939204224654,0.0,0.0,0.0,0.0,0.0,0.0,0.0,0.0,0.0,-0.000314074862644,-0.206053464512,-0.00140864608906,0.0,0.0,0.0,0.0,0.0,0.0,0.0,0.0,0.0,4.8962943573,-0.0508835524701,8.78799416986,0.0,0.0,0.0,0.0,0.0,0.0,0.0,0.0,0.0
57024000000,45,57024000000,imu_link,-0.000818181133501,-0.343609747079,0.00968893458727,0.93906219008,0.0,0.0,0.0,0.0,0.0,0.0,0.0,0.0,0.0,-0.000247474250304,-0.206834570286,-0.00135294440916,0.0,0.0,0.0,0.0,0.0,0.0,0.0,0.0,0.0,4.90195805172,-0.0508335404254,8.78110406072,0.0,0.0,0.0,0.0,0.0,0.0,0.0,0.0,0.0
57028000000,46,57028000000,imu_link,-0.000814147650338,-0.34399954932,0.00968654686244,0.938919494973,0.0,0.0,0.0,0.0,0.0,0.0,0.0,0.0,0.0,-0.000463136464258,-0.207558568903,-0.00128226587089,0.0,0.0,0.0,0.0,0.0,0.0,0.0,0.0,0.0,4.90699790345,-0.051196257829,8.7789722364,0.0,0.0,0.0,0.0,0.0,0.0,0.0,0.0,0.0
57032000000,47,57032000000,imu_link,-0.000810862194777,-0.344390152079,0.00968401893816,0.938776323429,0.0,0.0,0.0,0.0,0.0,0.0,0.0,0.0,0.0,-0.000842490696201,-0.208012647463,-0.00121744163769,0.0,0.0,0.0,0.0,0.0,0.0,0.0,0.0,0.0,4.91126912456,-0.0517795863061,8.77613057075,0.0,0.0,0.0,0.0,0.0,0.0,0.0,0.0,0.0
57036000000,48,57036000000,imu_link,-0.000808855692966,-0.344780857494,0.00968112165457,0.938632932483,0.0,0.0,0.0,0.0,0.0,0.0,0.0,0.0,0.0,-0.00150700436871,-0.208092270188,-0.0011695642564,0.0,0.0,0.0,0.0,0.0,0.0,0.0,0.0,0.0,4.91648313956,-0.0520688226801,8.76940307516,0.0,0.0,0.0,0.0,0.0,0.0,0.0,0.0,0.0
57040000000,49,57040000000,imu_link,-0.000807995286494,-0.345170934226,0.00967782375063,0.938489591331,0.0,0.0,0.0,0.0,0.0,0.0,0.0,0.0,0.0,-0.00211088563178,-0.207782924857,-0.00115999289354,0.0,0.0,0.0,0.0,0.0,0.0,0.0,0.0,0.0,4.922543544,-0.0525530254397,8.76430222999,0.0,0.0,0.0,0.0,0.0,0.0,0.0,0.0,0.0
57044000000,50,57044000000,imu_link,-0.000807675472121,-0.345559938623,0.00967424354037,0.938346463462,0.0,0.0,0.0,0.0,0.0,0.0,0.0,0.0,0.0,-0.00240800255439,-0.207240197898,-0.00119976416052,0.0,0.0,0.0,0.0,0.0,0.0,0.0,0.0,0.0,4.92820450898,-0.0528882462723,8.76008983964,0.0,0.0,0.0,0.0,0.0,0.0,0.0,0.0,0.0
57048000000,51,57048000000,imu_link,-0.000807154489019,-0.345948418748,0.00967065733083,0.938203346004,0.0,0.0,0.0,0.0,0.0,0.0,0.0,0.0,0.0,-0.00231211595011,-0.206993395556,-0.00123717543341,0.0,0.0,0.0,0.0,0.0,0.0,0.0,0.0,0.0,4.93654007582,-0.0533163933528,8.76349135404,0.0,0.0,0.0,0.0,0.0,0.0,0.0,0.0,0.0
57052000000,52,57052000000,imu_link,-0.000806126850924,-0.346336799918,0.0096672136375,0.938060081318,0.0,0.0,0.0,0.0,0.0,0.0,0.0,0.0,0.0,-0.00204937252917,-0.206974949344,-0.00125720725644,0.0,0.0,0.0,0.0,0.0,0.0,0.0,0.0,0.0,4.94279258446,-0.0534698749379,8.76119630788,0.0,0.0,0.0,0.0,0.0,0.0,0.0,0.0,0.0
57056000000,53,57056000000,imu_link,-0.000804988692284,-0.346725426776,0.00966389161553,0.937916541926,0.0,0.0,0.0,0.0,0.0,0.0,0.0,0.0,0.0,-0.00197776371156,-0.207138337711,-0.00121804960295,0.0,0.0,0.0,0.0,0.0,0.0,0.0,0.0,0.0,4.94846065065,-0.0535054299754,8.75774677901,0.0,0.0,0.0,0.0,0.0,0.0,0.0,0.0,0.0
57060000000,54,57060000000,imu_link,-0.000804065603648,-0.347113850158,0.00966071731306,0.937772893108,0.0,0.0,0.0,0.0,0.0,0.0,0.0,0.0,0.0,-0.00205207438733,-0.2070609072,-0.00111087955585,0.0,0.0,0.0,0.0,0.0,0.0,0.0,0.0,0.0,4.95339061127,-0.0532576798982,8.75006707883,0.0,0.0,0.0,0.0,0.0,0.0,0.0,0.0,0.0
57064000000,55,57064000000,imu_link,-0.000803429382401,-0.347501507778,0.00965778064411,0.937629342473,0.0,0.0,0.0,0.0,0.0,0.0,0.0,0.0,0.0,-0.0021416013014,-0.206683521008,-0.000949834979779,0.0,0.0,0.0,0.0,0.0,0.0,0.0,0.0,0.0,4.95859323414,-0.052690525362,8.7455435261,0.0,0.0,0.0,0.0,0.0,0.0,0.0,0.0,0.0
57068000000,56,57068000000,imu_link,-0.000802951658511,-0.34788846056,0.00965515256906,0.93748586779,0.0,0.0,0.0,0.0,0.0,0.0,0.0,0.0,0.0,-0.00215885466841,-0.206339244312,-0.000777706201787,0.0,0.0,0.0,0.0,0.0,0.0,0.0,0.0,0.0,4.96307248524,-0.0523901539394,8.74259322386,0.0,0.0,0.0,0.0,0.0,0.0,0.0,0.0,0.0
57072000000,57,57072000000,imu_link,-0.000802541397324,-0.348274327887,0.00965286413524,0.937342611149,0.0,0.0,0.0,0.0,0.0,0.0,0.0,0.0,0.0,-0.00212607104344,-0.205792328362,-0.000607383844726,0.0,0.0,0.0,0.0,0.0,0.0,0.0,0.0,0.0,4.96752488129,-0.0525583155058,8.73951267305,0.0,0.0,0.0,0.0,0.0,0.0,0.0,0.0,0.0
57076000000,58,57076000000,imu_link,-0.000802481226007,-0.348659283339,0.00965075556818,0.93719951082,0.0,0.0,0.0,0.0,0.0,0.0,0.0,0.0,0.0,-0.00225436281404,-0.205336121303,-0.000462510302856,0.0,0.0,0.0,0.0,0.0,0.0,0.0,0.0,0.0,4.97132772337,-0.0532312061444,8.73771690098,0.0,0.0,0.0,0.0,0.0,0.0,0.0,0.0,0.0
57080000000,59,57080000000,imu_link,-0.00080353799449,-0.349043188511,0.00964856254574,0.93705662162,0.0,0.0,0.0,0.0,0.0,0.0,0.0,0.0,0.0,-0.00278733094009,-0.204801730638,-0.000307967706979,0.0,0.0,0.0,0.0,0.0,0.0,0.0,0.0,0.0,4.97573974721,-0.0537774847115,8.73577126253,0.0,0.0,0.0,0.0,0.0,0.0,0.0,0.0,0.0
57084000000,60,57084000000,imu_link,-0.000806356502454,-0.349425863315,0.00964603585812,0.936914014106,0.0,0.0,0.0,0.0,0.0,0.0,0.0,0.0,0.0,-0.00366493880017,-0.20416747462,-0.000157702308436,0.0,0.0,0.0,0.0,0.0,0.0,0.0,0.0,0.0,4.98099510637,-0.0540827049326,8.73192812483,0.0,0.0,0.0,0.0,0.0,0.0,0.0,0.0,0.0
57088000000,61,57088000000,imu_link,-0.000811366246446,-0.349807632849,0.00964295297472,0.936771570418,0.0,0.0,0.0,0.0,0.0,0.0,0.0,0.0,0.0,-0.00478418117517,-0.203703979481,-3.5843986543e-05,0.0,0.0,0.0,0.0,0.0,0.0,0.0,0.0,0.0,4.9861718645,-0.0543561544604,8.73223881299,0.0,0.0,0.0,0.0,0.0,0.0,0.0,0.0,0.0
57092000000,62,57092000000,imu_link,-0.000818369125347,-0.350188377989,0.0096392533065,0.936629337032,0.0,0.0,0.0,0.0,0.0,0.0,0.0,0.0,0.0,-0.00582059092927,-0.203177525142,2.32712929917e-05,0.0,0.0,0.0,0.0,0.0,0.0,0.0,0.0,0.0,4.99245749101,-0.0547633707315,8.72989957068,0.0,0.0,0.0,0.0,0.0,0.0,0.0,0.0,0.0
57096000000,63,57096000000,imu_link,-0.000826754573648,-0.35056821071,0.00963508799787,0.936487272308,0.0,0.0,0.0,0.0,0.0,0.0,0.0,0.0,0.0,-0.00654513291572,-0.202713840079,4.68453860243e-05,0.0,0.0,0.0,0.0,0.0,0.0,0.0,0.0,0.0,4.99970762438,-0.0554633911139,8.72623245205,0.0,0.0,0.0,0.0,0.0,0.0,0.0,0.0,0.0
57100000000,64,57100000000,imu_link,-0.000836012684604,-0.350947475457,0.00963058392929,0.936345247442,0.0,0.0,0.0,0.0,0.0,0.0,0.0,0.0,0.0,-0.00701037820235,-0.20243655913,4.12298645249e-05,0.0,0.0,0.0,0.0,0.0,0.0,0.0,0.0,0.0,5.00654718993,-0.0561955655292,8.72272208217,0.0,0.0,0.0,0.0,0.0,0.0,0.0,0.0,0.0
57104000000,65,57104000000,imu_link,-0.000845622515672,-0.351326065789,0.00962590475612,0.936203301841,0.0,0.0,0.0,0.0,0.0,0.0,0.0,0.0,0.0,-0.00720248956782,-0.202105140936,2.08685480552e-05,0.0,0.0,0.0,0.0,0.0,0.0,0.0,0.0,0.0,5.01288021954,-0.0565634062053,8.71520069892,0.0,0.0,0.0,0.0,0.0,0.0,0.0,0.0,0.0
57108000000,66,57108000000,imu_link,-0.000855123363649,-0.351703847198,0.00962119202892,0.936061485851,0.0,0.0,0.0,0.0,0.0,0.0,0.0,0.0,0.0,-0.00715342048706,-0.201704224737,-1.42642430493e-05,0.0,0.0,0.0,0.0,0.0,0.0,0.0,0.0,0.0,5.01904088883,-0.0565744913764,8.70987948435,0.0,0.0,0.0,0.0,0.0,0.0,0.0,0.0,0.0
57112000000,67,57112000000,imu_link,-0.000863778930478,-0.352080991745,0.0096166584754,0.935919734282,0.0,0.0,0.0,0.0,0.0,0.0,0.0,0.0,0.0,-0.00672320361732,-0.201398967992,-7.90873705847e-05,0.0,0.0,0.0,0.0,0.0,0.0,0.0,0.0,0.0,5.02454017567,-0.0559936821366,8.70713047678,0.0,0.0,0.0,0.0,0.0,0.0,0.0,0.0,0.0
57116000000,68,57116000000,imu_link,-0.00087068056818,-0.352457974822,0.00961252565523,0.935777867472,0.0,0.0,0.0,0.0,0.0,0.0,0.0,0.0,0.0,-0.0058311631796,-0.201352300311,-0.000199698960685,0.0,0.0,0.0,0.0,0.0,0.0,0.0,0.0,0.0,5.02963925859,-0.0557025332516,8.70748634433,0.0,0.0,0.0,0.0,0.0,0.0,0.0,0.0,0.0
57120000000,69,57120000000,imu_link,-0.000874744388623,-0.35283512918,0.00960903955058,0.935635758614,0.0,0.0,0.0,0.0,0.0,0.0,0.0,0.0,0.0,-0.00439033834779,-0.201489017742,-0.000396124823568,0.0,0.0,0.0,0.0,0.0,0.0,0.0,0.0,0.0,5.03367579513,-0.0555335128071,8.70706631448,0.0,0.0,0.0,0.0,0.0,0.0,0.0,0.0,0.0
57124000000,70,57124000000,imu_link,-0.000875133967625,-0.35321249793,0.00960638521697,0.935493390041,0.0,0.0,0.0,0.0,0.0,0.0,0.0,0.0,0.0,-0.00252586697197,-0.201653148626,-0.000654054166478,0.0,0.0,0.0,0.0,0.0,0.0,0.0,0.0,0.0,5.03585619943,-0.0555026689682,8.70218833723,0.0,0.0,0.0,0.0,0.0,0.0,0.0,0.0,0.0
57128000000,71,57128000000,imu_link,-0.000872067634097,-0.353590270775,0.00960455791113,0.935350689516,0.0,0.0,0.0,0.0,0.0,0.0,0.0,0.0,0.0,-0.00076540309788,-0.201917749526,-0.000876132822508,0.0,0.0,0.0,0.0,0.0,0.0,0.0,0.0,0.0,5.04110847639,-0.0551062524253,8.70230846268,0.0,0.0,0.0,0.0,0.0,0.0,0.0,0.0,0.0
57132000000,72,57132000000,imu_link,-0.000866548930605,-0.353968315683,0.00960331290083,0.935207707927,0.0,0.0,0.0,0.0,0.0,0.0,0.0,0.0,0.0,0.000483027919309,-0.202106708111,-0.00103614352359,0.0,0.0,0.0,0.0,0.0,0.0,0.0,0.0,0.0,5.04720611687,-0.0546788538699,8.70258441493,0.0,0.0,0.0,0.0,0.0,0.0,0.0,0.0,0.0
57136000000,73,57136000000,imu_link,-0.000859716615976,-0.354346738748,0.00960238145995,0.935064406283,0.0,0.0,0.0,0.0,0.0,0.0,0.0,0.0,0.0,0.00115081997567,-0.202346623511,-0.00112063267506,0.0,0.0,0.0,0.0,0.0,0.0,0.0,0.0,0.0,5.05222374659,-0.0542881163283,8.70254566718,0.0,0.0,0.0,0.0,0.0,0.0,0.0,0.0,0.0
57140000000,74,57140000000,imu_link,-0.000852188142719,-0.354725471279,0.00960161593567,0.934920810963,0.0,0.0,0.0,0.0,0.0,0.0,0.0,0.0,0.0,0.00150408053427,-0.202546754715,-0.00116512513007,0.0,0.0,0.0,0.0,0.0,0.0,0.0,0.0,0.0,5.05878336813,-0.0544088050325,8.69914036161,0.0,0.0,0.0,0.0,0.0,0.0,0.0,0.0,0.0
57144000000,75,57144000000,imu_link,-0.000844732417274,-0.355104314738,0.00960078920316,0.934776998502,0.0,0.0,0.0,0.0,0.0,0.0,0.0,0.0,0.0,0.00145859268764,-0.202636746206,-0.00117983961555,0.0,0.0,0.0,0.0,0.0,0.0,0.0,0.0,0.0,5.06542853608,-0.0545573215071,8.69609210998,0.0,0.0,0.0,0.0,0.0,0.0,0.0,0.0,0.0
57148000000,76,57148000000,imu_link,-0.000838003602252,-0.355483509303,0.00959966529756,0.934632879151,0.0,0.0,0.0,0.0,0.0,0.0,0.0,0.0,0.0,0.00106426429077,-0.20285172347,-0.00118834548736,0.0,0.0,0.0,0.0,0.0,0.0,0.0,0.0,0.0,5.07180547884,-0.0548752380945,8.69579859897,0.0,0.0,0.0,0.0,0.0,0.0,0.0,0.0,0.0
57152000000,77,57152000000,imu_link,-0.000832161643294,-0.355862619306,0.00959825260789,0.934488618034,0.0,0.0,0.0,0.0,0.0,0.0,0.0,0.0,0.0,0.000598839331043,-0.202833026085,-0.00116495179261,0.0,0.0,0.0,0.0,0.0,0.0,0.0,0.0,0.0,5.07851949454,-0.0549861504399,8.69173777028,0.0,0.0,0.0,0.0,0.0,0.0,0.0,0.0,0.0
57156000000,78,57156000000,imu_link,-0.000827199261159,-0.35624154818,0.0095966477094,0.934344251036,0.0,0.0,0.0,0.0,0.0,0.0,0.0,0.0,0.0,0.000154487268175,-0.202762932995,-0.00109767250834,0.0,0.0,0.0,0.0,0.0,0.0,0.0,0.0,0.0,5.08460423552,-0.0547564879696,8.68779684359,0.0,0.0,0.0,0.0,0.0,0.0,0.0,0.0,0.0
57160000000,79,57160000000,imu_link,-0.000823092435441,-0.356620078303,0.00959494149304,0.934199860505,0.0,0.0,0.0,0.0,0.0,0.0,0.0,0.0,0.0,-0.000261348086982,-0.202576691819,-0.000992335171147,0.0,0.0,0.0,0.0,0.0,0.0,0.0,0.0,0.0,5.08980208218,-0.0545088580082,8.68033636534,0.0,0.0,0.0,0.0,0.0,0.0,0.0,0.0,0.0
57164000000,80,57164000000,imu_link,-0.000819814670961,-0.356997791576,0.00959317904153,0.934055606283,0.0,0.0,0.0,0.0,0.0,0.0,0.0,0.0,0.0,-0.000654654950927,-0.202166835801,-0.000871090421713,0.0,0.0,0.0,0.0,0.0,0.0,0.0,0.0,0.0,5.0950415557,-0.0547442448601,8.67408757648,0.0,0.0,0.0,0.0,0.0,0.0,0.0,0.0,0.0
57168000000,81,57168000000,imu_link,-0.000817247095177,-0.357375192935,0.00959137970523,0.933911296118,0.0,0.0,0.0,0.0,0.0,0.0,0.0,0.0,0.0,-0.000991443545767,-0.202027727343,-0.000761152543786,0.0,0.0,0.0,0.0,0.0,0.0,0.0,0.0,0.0,5.10003811058,-0.0553788198669,8.67687188921,0.0,0.0,0.0,0.0,0.0,0.0,0.0,0.0,0.0
57172000000,82,57172000000,imu_link,-0.00081578601569,-0.357752667125,0.00958944951462,0.93376678358,0.0,0.0,0.0,0.0,0.0,0.0,0.0,0.0,0.0,-0.00153194229042,-0.202092537434,-0.00062359776475,0.0,0.0,0.0,0.0,0.0,0.0,0.0,0.0,0.0,5.10557852863,-0.0558419561374,8.68015073698,0.0,0.0,0.0,0.0,0.0,0.0,0.0,0.0,0.0
57176000000,83,57176000000,imu_link,-0.000816044906583,-0.358130929901,0.00958726488605,0.933621794664,0.0,0.0,0.0,0.0,0.0,0.0,0.0,0.0,0.0,-0.00238445626749,-0.202537577997,-0.000432766176644,0.0,0.0,0.0,0.0,0.0,0.0,0.0,0.0,0.0,5.11117781459,-0.0560379905692,8.68233649871,0.0,0.0,0.0,0.0,0.0,0.0,0.0,0.0,0.0
57180000000,84,57180000000,imu_link,-0.00081839920498,-0.358510503926,0.00958475089976,0.933476127894,0.0,0.0,0.0,0.0,0.0,0.0,0.0,0.0,0.0,-0.0034281542275,-0.203260884362,-0.000208584448194,0.0,0.0,0.0,0.0,0.0,0.0,0.0,0.0,0.0,5.1150227156,-0.0562703904391,8.67984920397,0.0,0.0,0.0,0.0,0.0,0.0,0.0,0.0,0.0
57184000000,85,57184000000,imu_link,-0.000822402348611,-0.358891230035,0.00958209020366,0.933329841056,0.0,0.0,0.0,0.0,0.0,0.0,0.0,0.0,0.0,-0.00422980658284,-0.203901794571,2.10048539736e-05,0.0,0.0,0.0,0.0,0.0,0.0,0.0,0.0,0.0,5.12007724983,-0.0568054746963,8.67504487687,0.0,0.0,0.0,0.0,0.0,0.0,0.0,0.0,0.0
57188000000,86,57188000000,imu_link,-0.000827332448467,-0.359272891634,0.00957941513047,0.933183015096,0.0,0.0,0.0,0.0,0.0,0.0,0.0,0.0,0.0,-0.00466966814561,-0.204430651448,0.000182832096915,0.0,0.0,0.0,0.0,0.0,0.0,0.0,0.0,0.0,5.12831145454,-0.0576852546305,8.67525632952,0.0,0.0,0.0,0.0,0.0,0.0,0.0,0.0,0.0
57192000000,87,57192000000,imu_link,-0.000832557695101,-0.359655047986,0.00957676399854,0.933035818657,0.0,0.0,0.0,0.0,0.0,0.0,0.0,0.0,0.0,-0.00480560339095,-0.204726646641,0.000248591831469,0.0,0.0,0.0,0.0,0.0,0.0,0.0,0.0,0.0,5.13538378175,-0.0584170216218,8.67033180726,0.0,0.0,0.0,0.0,0.0,0.0,0.0,0.0,0.0
57196000000,88,57196000000,imu_link,-0.000837672476705,-0.360037052653,0.0095741507846,0.932888500657,0.0,0.0,0.0,0.0,0.0,0.0,0.0,0.0,0.0,-0.00474657504854,-0.204678287587,0.000247061826643,0.0,0.0,0.0,0.0,0.0,0.0,0.0,0.0,0.0,5.1404039699,-0.0585749185165,8.65894330339,0.0,0.0,0.0,0.0,0.0,0.0,0.0,0.0,0.0
57200000000,89,57200000000,imu_link,-0.000842341142357,-0.360418129457,0.00957158763623,0.932741361327,0.0,0.0,0.0,0.0,0.0,0.0,0.0,0.0,0.0,-0.00452495749164,-0.204215483443,0.000189638796509,0.0,0.0,0.0,0.0,0.0,0.0,0.0,0.0,0.0,5.14492043103,-0.0583442463324,8.64861418471,0.0,0.0,0.0,0.0,0.0,0.0,0.0,0.0,0.0
57204000000,90,57204000000,imu_link,-0.000846330165654,-0.360797768274,0.00956906284061,0.932594599582,0.0,0.0,0.0,0.0,0.0,0.0,0.0,0.0,0.0,-0.00419403974878,-0.203480073244,8.38462638634e-05,0.0,0.0,0.0,0.0,0.0,0.0,0.0,0.0,0.0,5.14831987864,-0.0576438717144,8.6392870049,0.0,0.0,0.0,0.0,0.0,0.0,0.0,0.0,0.0
57208000000,91,57208000000,imu_link,-0.000849292534679,-0.361175216982,0.00956659978525,0.932448508771,0.0,0.0,0.0,0.0,0.0,0.0,0.0,0.0,0.0,-0.00369341315125,-0.20234273348,-7.48550380754e-05,0.0,0.0,0.0,0.0,0.0,0.0,0.0,0.0,0.0,5.15068756081,-0.0573578579738,8.62642871314,0.0,0.0,0.0,0.0,0.0,0.0,0.0,0.0,0.0
57212000000,92,57212000000,imu_link,-0.000850419055019,-0.361549448887,0.00956440832906,0.932303488619,0.0,0.0,0.0,0.0,0.0,0.0,0.0,0.0,0.0,-0.00277260685848,-0.200658530421,-0.000283515739649,0.0,0.0,0.0,0.0,0.0,0.0,0.0,0.0,0.0,5.15481144709,-0.0575953348695,8.61840672923,0.0,0.0,0.0,0.0,0.0,0.0,0.0,0.0,0.0
57216000000,93,57216000000,imu_link,-0.000849016531838,-0.36191971037,0.00956269501866,0.932159834621,0.0,0.0,0.0,0.0,0.0,0.0,0.0,0.0,0.0,-0.00148768376233,-0.198573042509,-0.000522659378963,0.0,0.0,0.0,0.0,0.0,0.0,0.0,0.0,0.0,5.15541742524,-0.0580902449376,8.60308401776,0.0,0.0,0.0,0.0,0.0,0.0,0.0,0.0,0.0
57220000000,94,57220000000,imu_link,-0.000845290975906,-0.362284867524,0.00956143556371,0.932017992957,0.0,0.0,0.0,0.0,0.0,0.0,0.0,0.0,0.0,-0.000297660212736,-0.195877356504,-0.000738000719403,0.0,0.0,0.0,0.0,0.0,0.0,0.0,0.0,0.0,5.15932505371,-0.0580083643931,8.58910838429,0.0,0.0,0.0,0.0,0.0,0.0,0.0,0.0,0.0
57224000000,95,57224000000,imu_link,-0.000840014695721,-0.362644023056,0.00956042328706,0.931878321039,0.0,0.0,0.0,0.0,0.0,0.0,0.0,0.0,0.0,0.000499374869575,-0.192695031194,-0.000911551772534,0.0,0.0,0.0,0.0,0.0,0.0,0.0,0.0,0.0,5.16225668778,-0.0576453882012,8.57742565362,0.0,0.0,0.0,0.0,0.0,0.0,0.0,0.0,0.0
57228000000,96,57228000000,imu_link,-0.000834446633369,-0.362996703729,0.00955934679552,0.931741013195,0.0,0.0,0.0,0.0,0.0,0.0,0.0,0.0,0.0,0.000655628174074,-0.189250848781,-0.00100295981987,0.0,0.0,0.0,0.0,0.0,0.0,0.0,0.0,0.0,5.16339553214,-0.0570684771951,8.56437728915,0.0,0.0,0.0,0.0,0.0,0.0,0.0,0.0,0.0
57232000000,97,57232000000,imu_link,-0.000829295930479,-0.363342427411,0.00955805162313,0.93160626681,0.0,0.0,0.0,0.0,0.0,0.0,0.0,0.0,0.0,0.00045582332074,-0.185542804932,-0.00103842704499,0.0,0.0,0.0,0.0,0.0,0.0,0.0,0.0,0.0,5.16489481494,-0.0569672176073,8.54586055371,0.0,0.0,0.0,0.0,0.0,0.0,0.0,0.0,0.0
57236000000,98,57236000000,imu_link,-0.000824917114142,-0.363680997706,0.0095565075905,0.931474167426,0.0,0.0,0.0,0.0,0.0,0.0,0.0,0.0,0.0,8.63491750642e-05,-0.181726057901,-0.00102380130028,0.0,0.0,0.0,0.0,0.0,0.0,0.0,0.0,0.0,5.16621320652,-0.057049522883,8.52911341205,0.0,0.0,0.0,0.0,0.0,0.0,0.0,0.0,0.0
57240000000,99,57240000000,imu_link,-0.000820998585006,-0.364011752857,0.00955485187244,0.931344981491,0.0,0.0,0.0,0.0,0.0,0.0,0.0,0.0,0.0,-0.000109788171164,-0.177554226166,-0.0010028162667,0.0,0.0,0.0,0.0,0.0,0.0,0.0,0.0,0.0,5.16880951065,-0.0575404913123,8.51346012224,0.0,0.0,0.0,0.0,0.0,0.0,0.0,0.0,0.0
57244000000,100,57244000000,imu_link,-0.000817199507185,-0.36433360764,0.00955322213882,0.931219142026,0.0,0.0,0.0,0.0,0.0,0.0,0.0,0.0,0.0,-0.000116789471033,-0.172799931784,-0.000981309095995,0.0,0.0,0.0,0.0,0.0,0.0,0.0,0.0,0.0,5.17040804444,-0.0577098226113,8.49417387564,0.0,0.0,0.0,0.0,0.0,0.0,0.0,0.0,0.0
57248000000,101,57248000000,imu_link,-0.00081363238651,-0.364645878841,0.00955157924238,0.93109692749,0.0,0.0,0.0,0.0,0.0,0.0,0.0,0.0,0.0,-0.000179930582294,-0.167676268352,-0.000958581962151,0.0,0.0,0.0,0.0,0.0,0.0,0.0,0.0,0.0,5.17266470319,-0.0572791969271,8.47848446485,0.0,0.0,0.0,0.0,0.0,0.0,0.0,0.0,0.0
57252000000,102,57252000000,imu_link,-0.000810717028897,-0.364948547227,0.00954978522253,0.930978357545,0.0,0.0,0.0,0.0,0.0,0.0,0.0,0.0,0.0,-0.000463567448036,-0.162538024772,-0.000923605092377,0.0,0.0,0.0,0.0,0.0,0.0,0.0,0.0,0.0,5.17436009939,-0.0569133231332,8.4659870796,0.0,0.0,0.0,0.0,0.0,0.0,0.0,0.0,0.0
57256000000,103,57256000000,imu_link,-0.000808788996697,-0.365241457083,0.00954771884464,0.930863505007,0.0,0.0,0.0,0.0,0.0,0.0,0.0,0.0,0.0,-0.000924752287732,-0.157312378383,-0.000884017831237,0.0,0.0,0.0,0.0,0.0,0.0,0.0,0.0,0.0,5.1744047992,-0.057088435425,8.44996215835,0.0,0.0,0.0,0.0,0.0,0.0,0.0,0.0,0.0
57260000000,104,57260000000,imu_link,-0.000807895961031,-0.365524809112,0.0095453489161,0.930752301927,0.0,0.0,0.0,0.0,0.0,0.0,0.0,0.0,0.0,-0.00141480365289,-0.15219233052,-0.000849844991513,0.0,0.0,0.0,0.0,0.0,0.0,0.0,0.0,0.0,5.17438473664,-0.0578318196498,8.43884282545,0.0,0.0,0.0,0.0,0.0,0.0,0.0,0.0,0.0
57264000000,105,57264000000,imu_link,-0.000807977388257,-0.365798814081,0.00954270670997,0.930644675232,0.0,0.0,0.0,0.0,0.0,0.0,0.0,0.0,0.0,-0.00187200242225,-0.14718404211,-0.000811754496135,0.0,0.0,0.0,0.0,0.0,0.0,0.0,0.0,0.0,5.17592156155,-0.0584245055995,8.43057403265,0.0,0.0,0.0,0.0,0.0,0.0,0.0,0.0,0.0
57268000000,106,57268000000,imu_link,-0.000808882413952,-0.366063605877,0.00953992642191,0.930540580504,0.0,0.0,0.0,0.0,0.0,0.0,0.0,0.0,0.0,-0.00223511011706,-0.142246965858,-0.000738501667495,0.0,0.0,0.0,0.0,0.0,0.0,0.0,0.0,0.0,5.17876628581,-0.0588195054604,8.41994208217,0.0,0.0,0.0,0.0,0.0,0.0,0.0,0.0,0.0
57272000000,107,57272000000,imu_link,-0.000810670419214,-0.366319269515,0.00953704256121,0.930439992914,0.0,0.0,0.0,0.0,0.0,0.0,0.0,0.0,0.0,-0.0026199319638,-0.137353733149,-0.000638114709108,0.0,0.0,0.0,0.0,0.0,0.0,0.0,0.0,0.0,5.18091217339,-0.0590521089059,8.4086367384,0.0,0.0,0.0,0.0,0.0,0.0,0.0,0.0,0.0
57276000000,108,57276000000,imu_link,-0.000813394746672,-0.366565755607,0.00953409082351,0.930342940166,0.0,0.0,0.0,0.0,0.0,0.0,0.0,0.0,0.0,-0.00302276398379,-0.132432221678,-0.00051133199539,0.0,0.0,0.0,0.0,0.0,0.0,0.0,0.0,0.0,5.18284501435,-0.0591428796966,8.39525123287,0.0,0.0,0.0,0.0,0.0,0.0,0.0,0.0,0.0
57280000000,109,57280000000,imu_link,-0.000817057739371,-0.366802967085,0.00953107793013,0.930249468857,0.0,0.0,0.0,0.0,0.0,0.0,0.0,0.0,0.0,-0.00342494400292,-0.127457019747,-0.000381039516948,0.0,0.0,0.0,0.0,0.0,0.0,0.0,0.0,0.0,5.18615271,-0.0594275810693,8.38247962318,0.0,0.0,0.0,0.0,0.0,0.0,0.0,0.0,0.0
57284000000,110,57284000000,imu_link,-0.000821695070911,-0.367031228555,0.00952800427265,0.930159459027,0.0,0.0,0.0,0.0,0.0,0.0,0.0,0.0,0.0,-0.00384521160486,-0.122654640817,-0.000243446692805,0.0,0.0,0.0,0.0,0.0,0.0,0.0,0.0,0.0,5.18965789359,-0.0596260574929,8.37405230778,0.0,0.0,0.0,0.0,0.0,0.0,0.0,0.0,0.0
57288000000,111,57288000000,imu_link,-0.000827168161281,-0.367250810196,0.00952493851417,0.930072810993,0.0,0.0,0.0,0.0,0.0,0.0,0.0,0.0,0.0,-0.00418972459416,-0.117996907161,-9.88477471484e-05,0.0,0.0,0.0,0.0,0.0,0.0,0.0,0.0,0.0,5.19250484759,-0.0595755399484,8.36365590963,0.0,0.0,0.0,0.0,0.0,0.0,0.0,0.0,0.0
57292000000,112,57292000000,imu_link,-0.000833486274137,-0.367461777047,0.0095219071866,0.929989505851,0.0,0.0,0.0,0.0,0.0,0.0,0.0,0.0,0.0,-0.00453395818561,-0.113372866027,5.99740047713e-05,0.0,0.0,0.0,0.0,0.0,0.0,0.0,0.0,0.0,5.19586624199,-0.0593679957674,8.35437459273,0.0,0.0,0.0,0.0,0.0,0.0,0.0,0.0,0.0
57296000000,113,57296000000,imu_link,-0.000840540015433,-0.367664133091,0.00951892922344,0.929909548675,0.0,0.0,0.0,0.0,0.0,0.0,0.0,0.0,0.0,-0.00482382596117,-0.108750280517,0.000207594827639,0.0,0.0,0.0,0.0,0.0,0.0,0.0,0.0,0.0,5.19797638383,-0.0589694916707,8.34163120053,0.0,0.0,0.0,0.0,0.0,0.0,0.0,0.0,0.0
57300000000,114,57300000000,imu_link,-0.000848227595774,-0.367857725869,0.00951600980529,0.92983300629,0.0,0.0,0.0,0.0,0.0,0.0,0.0,0.0,0.0,-0.00506462640755,-0.104045017815,0.000338765919883,0.0,0.0,0.0,0.0,0.0,0.0,0.0,0.0,0.0,5.20058746727,-0.0589045681292,8.33057067757,0.0,0.0,0.0,0.0,0.0,0.0,0.0,0.0,0.0
57304000000,115,57304000000,imu_link,-0.000856588900425,-0.368042231471,0.00951307900909,0.929760013894,0.0,0.0,0.0,0.0,0.0,0.0,0.0,0.0,0.0,-0.00533520227871,-0.0991640833817,0.00044435654833,0.0,0.0,0.0,0.0,0.0,0.0,0.0,0.0,0.0,5.20477180311,-0.0592368670301,8.32323829221,0.0,0.0,0.0,0.0,0.0,0.0,0.0,0.0,0.0
57308000000,116,57308000000,imu_link,-0.000865733700601,-0.368217679233,0.0095100492491,0.929690566892,0.0,0.0,0.0,0.0,0.0,0.0,0.0,0.0,0.0,-0.00567304266035,-0.0942970779656,0.000529545599509,0.0,0.0,0.0,0.0,0.0,0.0,0.0,0.0,0.0,5.20794443491,-0.0599117981066,8.31613692103,0.0,0.0,0.0,0.0,0.0,0.0,0.0,0.0,0.0
57312000000,117,57312000000,imu_link,-0.000875749789346,-0.368384272837,0.00950688248954,0.929624590775,0.0,0.0,0.0,0.0,0.0,0.0,0.0,0.0,0.0,-0.00605967569901,-0.0895380412478,0.000613602455123,0.0,0.0,0.0,0.0,0.0,0.0,0.0,0.0,0.0,5.21317235905,-0.0603325900332,8.31212684509,0.0,0.0,0.0,0.0,0.0,0.0,0.0,0.0,0.0
57316000000,118,57316000000,imu_link,-0.000886623181399,-0.368542629792,0.00950355368016,0.929561846459,0.0,0.0,0.0,0.0,0.0,0.0,0.0,0.0,0.0,-0.00644744156956,-0.0851101273408,0.000684432679719,0.0,0.0,0.0,0.0,0.0,0.0,0.0,0.0,0.0,5.21755147549,-0.0606646882103,8.30857428129,0.0,0.0,0.0,0.0,0.0,0.0,0.0,0.0,0.0
57320000000,119,57320000000,imu_link,-0.000898192156304,-0.368693385323,0.00950005924318,0.929502087004,0.0,0.0,0.0,0.0,0.0,0.0,0.0,0.0,0.0,-0.00676381212238,-0.0810237267926,0.000724814500616,0.0,0.0,0.0,0.0,0.0,0.0,0.0,0.0,0.0,5.22216342066,-0.060912421114,8.3062822034,0.0,0.0,0.0,0.0,0.0,0.0,0.0,0.0,0.0
57324000000,120,57324000000,imu_link,-0.000910037942817,-0.368836944148,0.00949644266671,0.929445156015,0.0,0.0,0.0,0.0,0.0,0.0,0.0,0.0,0.0,-0.0068795217934,-0.0771562625231,0.000708876069247,0.0,0.0,0.0,0.0,0.0,0.0,0.0,0.0,0.0,5.22843553853,-0.0612595533009,8.30350947867,0.0,0.0,0.0,0.0,0.0,0.0,0.0,0.0,0.0
57328000000,121,57328000000,imu_link,-0.000922164229112,-0.368973761286,0.00949265083031,0.929390877229,0.0,0.0,0.0,0.0,0.0,0.0,0.0,0.0,0.0,-0.00700897970894,-0.0735327206744,0.000669632503979,0.0,0.0,0.0,0.0,0.0,0.0,0.0,0.0,0.0,5.23478466242,-0.0615770371543,8.29934215174,0.0,0.0,0.0,0.0,0.0,0.0,0.0,0.0,0.0
57332000000,122,57332000000,imu_link,-0.000934883478045,-0.369104117332,0.00948861327067,0.929339143036,0.0,0.0,0.0,0.0,0.0,0.0,0.0,0.0,0.0,-0.00729801974502,-0.0700579094296,0.000655741491677,0.0,0.0,0.0,0.0,0.0,0.0,0.0,0.0,0.0,5.24124256778,-0.0617096553954,8.2948784016,0.0,0.0,0.0,0.0,0.0,0.0,0.0,0.0,0.0
57336000000,123,57336000000,imu_link,-0.000948504329287,-0.369228030418,0.00948428565484,0.929289949487,0.0,0.0,0.0,0.0,0.0,0.0,0.0,0.0,0.0,-0.00773874238542,-0.0665907674364,0.000678311877524,0.0,0.0,0.0,0.0,0.0,0.0,0.0,0.0,0.0,5.24675747037,-0.0615182202291,8.28742685936,0.0,0.0,0.0,0.0,0.0,0.0,0.0,0.0,0.0
57340000000,124,57340000000,imu_link,-0.00096342404839,-0.369345704958,0.00947957772223,0.92924321878,0.0,0.0,0.0,0.0,0.0,0.0,0.0,0.0,0.0,-0.00838171452877,-0.0632310433042,0.000732668311276,0.0,0.0,0.0,0.0,0.0,0.0,0.0,0.0,0.0,5.25213254323,-0.0609011568368,8.28221883118,0.0,0.0,0.0,0.0,0.0,0.0,0.0,0.0,0.0
57344000000,125,57344000000,imu_link,-0.000979413074924,-0.369457490679,0.00947448616911,0.929198814809,0.0,0.0,0.0,0.0,0.0,0.0,0.0,0.0,0.0,-0.00892034958663,-0.0600600327555,0.000743710461016,0.0,0.0,0.0,0.0,0.0,0.0,0.0,0.0,0.0,5.25751825755,-0.0605706342654,8.27835718387,0.0,0.0,0.0,0.0,0.0,0.0,0.0,0.0,0.0
57348000000,126,57348000000,imu_link,-0.000995905182377,-0.369563563813,0.00946902960916,0.929156670295,0.0,0.0,0.0,0.0,0.0,0.0,0.0,0.0,0.0,-0.00919333954817,-0.0569860196061,0.00065915590708,0.0,0.0,0.0,0.0,0.0,0.0,0.0,0.0,0.0,5.26359020128,-0.0606341654227,8.27593907239,0.0,0.0,0.0,0.0,0.0,0.0,0.0,0.0,0.0
57352000000,127,57352000000,imu_link,-0.00101243369108,-0.36966401959,0.00946330028022,0.929116749147,0.0,0.0,0.0,0.0,0.0,0.0,0.0,0.0,0.0,-0.00923295092434,-0.053965171449,0.000531430239339,0.0,0.0,0.0,0.0,0.0,0.0,0.0,0.0,0.0,5.26877748923,-0.0608190855284,8.27123275397,0.0,0.0,0.0,0.0,0.0,0.0,0.0,0.0,0.0
57356000000,128,57356000000,imu_link,-0.00102883969964,-0.369758846454,0.00945737211819,0.929079057492,0.0,0.0,0.0,0.0,0.0,0.0,0.0,0.0,0.0,-0.00918503051626,-0.0509386097752,0.000408718991061,0.0,0.0,0.0,0.0,0.0,0.0,0.0,0.0,0.0,5.27312675102,-0.0610552246155,8.26331755037,0.0,0.0,0.0,0.0,0.0,0.0,0.0,0.0,0.0
57360000000,129,57360000000,imu_link,-0.00104502703091,-0.369848128048,0.00945132741492,0.929043563299,0.0,0.0,0.0,0.0,0.0,0.0,0.0,0.0,0.0,-0.00907764008616,-0.0479573214028,0.000306613530071,0.0,0.0,0.0,0.0,0.0,0.0,0.0,0.0,0.0,5.27827875994,-0.0612176812669,8.25657905151,0.0,0.0,0.0,0.0,0.0,0.0,0.0,0.0,0.0
57364000000,130,57364000000,imu_link,-0.0010608898037,-0.369932172853,0.00944520684363,0.929010145299,0.0,0.0,0.0,0.0,0.0,0.0,0.0,0.0,0.0,-0.00891507327265,-0.0451422749437,0.000204277417093,0.0,0.0,0.0,0.0,0.0,0.0,0.0,0.0,0.0,5.28421931088,-0.0613568129593,8.25355697428,0.0,0.0,0.0,0.0,0.0,0.0,0.0,0.0,0.0
57368000000,131,57368000000,imu_link,-0.0010764040637,-0.370011499429,0.00943896164916,0.928978599133,0.0,0.0,0.0,0.0,0.0,0.0,0.0,0.0,0.0,-0.0087529631468,-0.0426059876394,7.55890981288e-05,0.0,0.0,0.0,0.0,0.0,0.0,0.0,0.0,0.0,5.29086270059,-0.0614262029679,8.25379910946,0.0,0.0,0.0,0.0,0.0,0.0,0.0,0.0,0.0
57372000000,132,57372000000,imu_link,-0.00109147112038,-0.370086469464,0.00943257170965,0.928948782443,0.0,0.0,0.0,0.0,0.0,0.0,0.0,0.0,0.0,-0.00855052922472,-0.0402644906525,-8.01961334423e-05,0.0,0.0,0.0,0.0,0.0,0.0,0.0,0.0,0.0,5.29794743936,-0.0615651383478,8.25238164029,0.0,0.0,0.0,0.0,0.0,0.0,0.0,0.0,0.0
57376000000,133,57376000000,imu_link,-0.001106160784,-0.37015712745,0.00942598793579,0.928920679153,0.0,0.0,0.0,0.0,0.0,0.0,0.0,0.0,0.0,-0.0083898356334,-0.0379462753244,-0.00024578891278,0.0,0.0,0.0,0.0,0.0,0.0,0.0,0.0,0.0,5.30310142969,-0.0616280487062,8.24346942711,0.0,0.0,0.0,0.0,0.0,0.0,0.0,0.0,0.0
57380000000,134,57380000000,imu_link,-0.00112050848846,-0.370223240044,0.00941919394568,0.928894383543,0.0,0.0,0.0,0.0,0.0,0.0,0.0,0.0,0.0,-0.00824749347749,-0.0355020530545,-0.000412720950018,0.0,0.0,0.0,0.0,0.0,0.0,0.0,0.0,0.0,5.30846332658,-0.0615310676058,8.23359291815,0.0,0.0,0.0,0.0,0.0,0.0,0.0,0.0,0.0
57384000000,135,57384000000,imu_link,-0.00113472591372,-0.370284524257,0.00941215687262,0.928870009633,0.0,0.0,0.0,0.0,0.0,0.0,0.0,0.0,0.0,-0.00820816678068,-0.032904273685,-0.000556081645383,0.0,0.0,0.0,0.0,0.0,0.0,0.0,0.0,0.0,5.31478978451,-0.0613563435964,8.22653893886,0.0,0.0,0.0,0.0,0.0,0.0,0.0,0.0,0.0
57388000000,136,57388000000,imu_link,-0.00114890753325,-0.37034079279,0.0094048826649,0.928847633032,0.0,0.0,0.0,0.0,0.0,0.0,0.0,0.0,0.0,-0.00821070360767,-0.0302050643487,-0.000679398219977,0.0,0.0,0.0,0.0,0.0,0.0,0.0,0.0,0.0,5.32045662062,-0.0609932032234,8.21876848867,0.0,0.0,0.0,0.0,0.0,0.0,0.0,0.0,0.0
57392000000,137,57392000000,imu_link,-0.0011629879814,-0.370392040404,0.00939743013763,0.928827256368,0.0,0.0,0.0,0.0,0.0,0.0,0.0,0.0,0.0,-0.00817197726066,-0.0275032738538,-0.000787468311021,0.0,0.0,0.0,0.0,0.0,0.0,0.0,0.0,0.0,5.32701945849,-0.0607545461409,8.2146633323,0.0,0.0,0.0,0.0,0.0,0.0,0.0,0.0,0.0
57396000000,138,57396000000,imu_link,-0.00117696911837,-0.370438381131,0.00938981287077,0.928808834983,0.0,0.0,0.0,0.0,0.0,0.0,0.0,0.0,0.0,-0.00813217186047,-0.0248627096147,-0.000888701633204,0.0,0.0,0.0,0.0,0.0,0.0,0.0,0.0,0.0,5.33195458601,-0.0606787141212,8.20716389811,0.0,0.0,0.0,0.0,0.0,0.0,0.0,0.0,0.0
57400000000,139,57400000000,imu_link,-0.00119120479752,-0.370480077219,0.0093819846011,0.928792265138,0.0,0.0,0.0,0.0,0.0,0.0,0.0,0.0,0.0,-0.00826656839357,-0.0223614586602,-0.000945505678162,0.0,0.0,0.0,0.0,0.0,0.0,0.0,0.0,0.0,5.33800993194,-0.0606554649709,8.20422388634,0.0,0.0,0.0,0.0,0.0,0.0,0.0,0.0,0.0
57404000000,140,57404000000,imu_link,-0.00120613076795,-0.370517578395,0.00937388126638,0.92877736821,0.0,0.0,0.0,0.0,0.0,0.0,0.0,0.0,0.0,-0.00861741536382,-0.0201000649697,-0.000950724381204,0.0,0.0,0.0,0.0,0.0,0.0,0.0,0.0,0.0,5.3450550267,-0.060627977416,8.20375909238,0.0,0.0,0.0,0.0,0.0,0.0,0.0,0.0,0.0
57408000000,141,57408000000,imu_link,-0.00122180183907,-0.3705511496,0.0093655210434,0.928764038788,0.0,0.0,0.0,0.0,0.0,0.0,0.0,0.0,0.0,-0.00899165764611,-0.017980988621,-0.000936960714679,0.0,0.0,0.0,0.0,0.0,0.0,0.0,0.0,0.0,5.35057922333,-0.0606893462192,8.19803707774,0.0,0.0,0.0,0.0,0.0,0.0,0.0,0.0,0.0
57412000000,142,57412000000,imu_link,-0.0012378056065,-0.370581205064,0.00935701427978,0.928752111478,0.0,0.0,0.0,0.0,0.0,0.0,0.0,0.0,0.0,-0.00915598631069,-0.0160869182817,-0.000947789028953,0.0,0.0,0.0,0.0,0.0,0.0,0.0,0.0,0.0,5.35731593073,-0.0609023097519,8.19717515436,0.0,0.0,0.0,0.0,0.0,0.0,0.0,0.0,0.0
57416000000,143,57416000000,imu_link,-0.00125368080759,-0.370608191634,0.00934849831462,0.928741407582,0.0,0.0,0.0,0.0,0.0,0.0,0.0,0.0,0.0,-0.00908287311431,-0.01443570496,-0.000979708549495,0.0,0.0,0.0,0.0,0.0,0.0,0.0,0.0,0.0,5.36394525696,-0.0610738308917,8.19607376565,0.0,0.0,0.0,0.0,0.0,0.0,0.0,0.0,0.0
57420000000,144,57420000000,imu_link,-0.00126947924756,-0.37063261402,0.00933999293257,0.928731725731,0.0,0.0,0.0,0.0,0.0,0.0,0.0,0.0,0.0,-0.00903264011641,-0.0130559498259,-0.000992188171634,0.0,0.0,0.0,0.0,0.0,0.0,0.0,0.0,0.0,5.3710762892,-0.0611465598236,8.19559659121,0.0,0.0,0.0,0.0,0.0,0.0,0.0,0.0,0.0
57424000000,145,57424000000,imu_link,-0.00128562304365,-0.370654850694,0.00933141644088,0.928722915351,0.0,0.0,0.0,0.0,0.0,0.0,0.0,0.0,0.0,-0.00919542906257,-0.0118778244697,-0.00096389134339,0.0,0.0,0.0,0.0,0.0,0.0,0.0,0.0,0.0,5.37847704062,-0.0611211224691,8.1947716942,0.0,0.0,0.0,0.0,0.0,0.0,0.0,0.0,0.0
57428000000,146,57428000000,imu_link,-0.00130256162994,-0.370674910628,0.00932266327701,0.928714973452,0.0,0.0,0.0,0.0,0.0,0.0,0.0,0.0,0.0,-0.00958652688862,-0.0107022546236,-0.00090128752013,0.0,0.0,0.0,0.0,0.0,0.0,0.0,0.0,0.0,5.38495692984,-0.0609849549562,8.1895947834,0.0,0.0,0.0,0.0,0.0,0.0,0.0,0.0,0.0
57432000000,147,57432000000,imu_link,-0.00132043390985,-0.370692797406,0.00931368679016,0.928707898989,0.0,0.0,0.0,0.0,0.0,0.0,0.0,0.0,0.0,-0.0100507898813,-0.00952786764747,-0.000834568891605,0.0,0.0,0.0,0.0,0.0,0.0,0.0,0.0,0.0,5.39176128697,-0.0608236507959,8.18590443572,0.0,0.0,0.0,0.0,0.0,0.0,0.0,0.0,0.0
57436000000,148,57436000000,imu_link,-0.00133897939048,-0.370708645656,0.00930453176403,0.928701638234,0.0,0.0,0.0,0.0,0.0,0.0,0.0,0.0,0.0,-0.0103864545746,-0.00842719774392,-0.000795142428452,0.0,0.0,0.0,0.0,0.0,0.0,0.0,0.0,0.0,5.39711375549,-0.0608309929778,8.17907405698,0.0,0.0,0.0,0.0,0.0,0.0,0.0,0.0,0.0
57440000000,149,57440000000,imu_link,-0.001357818779,-0.370722688122,0.00929528042579,0.928696098087,0.0,0.0,0.0,0.0,0.0,0.0,0.0,0.0,0.0,-0.0105318993867,-0.00745368130206,-0.000787531434086,0.0,0.0,0.0,0.0,0.0,0.0,0.0,0.0,0.0,5.40276181798,-0.0609204247885,8.17337912604,0.0,0.0,0.0,0.0,0.0,0.0,0.0,0.0,0.0
57444000000,150,57444000000,imu_link,-0.00137684323883,-0.370735036421,0.00928593030939,0.928691234249,0.0,0.0,0.0,0.0,0.0,0.0,0.0,0.0,0.0,-0.0106278135105,-0.00654070964566,-0.000801086871968,0.0,0.0,0.0,0.0,0.0,0.0,0.0,0.0,0.0,5.40903134456,-0.0609856043424,8.16859367311,0.0,0.0,0.0,0.0,0.0,0.0,0.0,0.0,0.0
57448000000,151,57448000000,imu_link,-0.00139637922987,-0.37074584838,0.00927637926513,0.928686984307,0.0,0.0,0.0,0.0,0.0,0.0,0.0,0.0,0.0,-0.010895030487,-0.00571100657318,-0.000801358220273,0.0,0.0,0.0,0.0,0.0,0.0,0.0,0.0,0.0,5.41513479503,-0.0609742437981,8.16311436527,0.0,0.0,0.0,0.0,0.0,0.0,0.0,0.0,0.0
57452000000,152,57452000000,imu_link,-0.00141685331462,-0.370755271531,0.00926651338024,0.928683289872,0.0,0.0,0.0,0.0,0.0,0.0,0.0,0.0,0.0,-0.0113821617303,-0.00495857633827,-0.000775262142941,0.0,0.0,0.0,0.0,0.0,0.0,0.0,0.0,0.0,5.42275973658,-0.0609579841472,8.16200368023,0.0,0.0,0.0,0.0,0.0,0.0,0.0,0.0,0.0
57456000000,153,57456000000,imu_link,-0.00143849576713,-0.370763482031,0.00925625100828,0.92868008105,0.0,0.0,0.0,0.0,0.0,0.0,0.0,0.0,0.0,-0.0119922208194,-0.00429977565599,-0.000744169238822,0.0,0.0,0.0,0.0,0.0,0.0,0.0,0.0,0.0,5.42866546128,-0.0610027496692,8.15691150545,0.0,0.0,0.0,0.0,0.0,0.0,0.0,0.0,0.0
57460000000,154,57460000000,imu_link,-0.00146129739481,-0.370770569181,0.00924559299318,0.928677322136,0.0,0.0,0.0,0.0,0.0,0.0,0.0,0.0,0.0,-0.0125982946843,-0.00368910527262,-0.000714266539262,0.0,0.0,0.0,0.0,0.0,0.0,0.0,0.0,0.0,5.43412194196,-0.061129443363,8.15011626968,0.0,0.0,0.0,0.0,0.0,0.0,0.0,0.0,0.0
57464000000,155,57464000000,imu_link,-0.00148522788643,-0.370776529509,0.0092345466099,0.928675014422,0.0,0.0,0.0,0.0,0.0,0.0,0.0,0.0,0.0,-0.013188928859,-0.00307672989022,-0.000686588641554,0.0,0.0,0.0,0.0,0.0,0.0,0.0,0.0,0.0,5.44028985689,-0.0613006708144,8.14469714102,0.0,0.0,0.0,0.0,0.0,0.0,0.0,0.0,0.0
57468000000,156,57468000000,imu_link,-0.00151004839636,-0.370781348392,0.00922315823306,0.9286731636,0.0,0.0,0.0,0.0,0.0,0.0,0.0,0.0,0.0,-0.0136599896852,-0.00245764894968,-0.000681652062457,0.0,0.0,0.0,0.0,0.0,0.0,0.0,0.0,0.0,5.44595153325,-0.0615111020501,8.13764025544,0.0,0.0,0.0,0.0,0.0,0.0,0.0,0.0,0.0
57472000000,157,57472000000,imu_link,-0.00153519080454,-0.370784966736,0.00921156149954,0.928671792813,0.0,0.0,0.0,0.0,0.0,0.0,0.0,0.0,0.0,-0.0138421873786,-0.00180955862403,-0.000720030042554,0.0,0.0,0.0,0.0,0.0,0.0,0.0,0.0,0.0,5.45266380142,-0.0616441524606,8.13330149664,0.0,0.0,0.0,0.0,0.0,0.0,0.0,0.0,0.0
57476000000,158,57476000000,imu_link,-0.0015603555699,-0.370787215717,0.00919986222854,0.928670968905,0.0,0.0,0.0,0.0,0.0,0.0,0.0,0.0,0.0,-0.0138648515358,-0.00107214530234,-0.000764964712019,0.0,0.0,0.0,0.0,0.0,0.0,0.0,0.0,0.0,5.45835576232,-0.0616108930159,8.12588402492,0.0,0.0,0.0,0.0,0.0,0.0,0.0,0.0,0.0
57480000000,159,57480000000,imu_link,-0.00158542702907,-0.370787763386,0.00918810981554,0.928670824126,0.0,0.0,0.0,0.0,0.0,0.0,0.0,0.0,0.0,-0.0138230225864,-0.000156647321971,-0.000808735420005,0.0,0.0,0.0,0.0,0.0,0.0,0.0,0.0,0.0,5.46423671715,-0.0614124621727,8.11804321098,0.0,0.0,0.0,0.0,0.0,0.0,0.0,0.0,0.0
57484000000,160,57484000000,imu_link,-0.00161046010166,-0.370786277815,0.0091763086498,0.928671490874,0.0,0.0,0.0,0.0,0.0,0.0,0.0,0.0,0.0,-0.0138042526669,0.000937772724436,-0.000840606103892,0.0,0.0,0.0,0.0,0.0,0.0,0.0,0.0,0.0,5.47009202241,-0.0612422313953,8.11043004264,0.0,0.0,0.0,0.0,0.0,0.0,0.0,0.0,0.0
57488000000,161,57488000000,imu_link,-0.00163567753783,-0.370782434857,0.00916441370772,0.92867309861,0.0,0.0,0.0,0.0,0.0,0.0,0.0,0.0,0.0,-0.0138956709994,0.00220776543554,-0.0008523892253,0.0,0.0,0.0,0.0,0.0,0.0,0.0,0.0,0.0,5.47590148529,-0.0610760663334,8.10296552157,0.0,0.0,0.0,0.0,0.0,0.0,0.0,0.0,0.0
57492000000,162,57492000000,imu_link,-0.00166138566291,-0.37077632907,0.00915233577328,0.92867560986,0.0,0.0,0.0,0.0,0.0,0.0,0.0,0.0,0.0,-0.014146333286,0.0034283815645,-0.000848679316277,0.0,0.0,0.0,0.0,0.0,0.0,0.0,0.0,0.0,5.48228535601,-0.0609529985104,8.09972136834,0.0,0.0,0.0,0.0,0.0,0.0,0.0,0.0,0.0
57496000000,163,57496000000,imu_link,-0.0016877011569,-0.370768200544,0.00914003703489,0.92867892883,0.0,0.0,0.0,0.0,0.0,0.0,0.0,0.0,0.0,-0.0144593647172,0.00452032022984,-0.000840623913833,0.0,0.0,0.0,0.0,0.0,0.0,0.0,0.0,0.0,5.48775608742,-0.0609041829019,8.09456882148,0.0,0.0,0.0,0.0,0.0,0.0,0.0,0.0,0.0
57500000000,164,57500000000,imu_link,-0.00171435647609,-0.370758480217,0.00912758610322,0.928682883174,0.0,0.0,0.0,0.0,0.0,0.0,0.0,0.0,0.0,-0.0146375624523,0.00537892636797,-0.000849855499149,0.0,0.0,0.0,0.0,0.0,0.0,0.0,0.0,0.0,5.49429376615,-0.0609747112584,8.09380291256,0.0,0.0,0.0,0.0,0.0,0.0,0.0,0.0,0.0
57504000000,165,57504000000,imu_link,-0.00174053275238,-0.370747514492,0.00911518493384,0.928687334062,0.0,0.0,0.0,0.0,0.0,0.0,0.0,0.0,0.0,-0.0143997887281,0.00604703566439,-0.000916752012521,0.0,0.0,0.0,0.0,0.0,0.0,0.0,0.0,0.0,5.50216630562,-0.0611580585763,8.09634438068,0.0,0.0,0.0,0.0,0.0,0.0,0.0,0.0,0.0
57508000000,166,57508000000,imu_link,-0.00176564192752,-0.37073533461,0.00910296404937,0.928692268852,0.0,0.0,0.0,0.0,0.0,0.0,0.0,0.0,0.0,-0.0138649122213,0.00669550436487,-0.00103199918945,0.0,0.0,0.0,0.0,0.0,0.0,0.0,0.0,0.0,5.50937789652,-0.0611679938632,8.09512740942,0.0,0.0,0.0,0.0,0.0,0.0,0.0,0.0,0.0
57512000000,167,57512000000,imu_link,-0.00178968323337,-0.370721720119,0.00909092772376,0.928697775543,0.0,0.0,0.0,0.0,0.0,0.0,0.0,0.0,0.0,-0.0133278055094,0.00746264833467,-0.00114558493653,0.0,0.0,0.0,0.0,0.0,0.0,0.0,0.0,0.0,5.51481868631,-0.0609799327539,8.08761544047,0.0,0.0,0.0,0.0,0.0,0.0,0.0,0.0,0.0
57516000000,168,57516000000,imu_link,-0.0018130024414,-0.370706529657,0.00907901600936,0.92870391049,0.0,0.0,0.0,0.0,0.0,0.0,0.0,0.0,0.0,-0.012961676444,0.00830750898939,-0.00122301599862,0.0,0.0,0.0,0.0,0.0,0.0,0.0,0.0,0.0,5.51995747587,-0.0606574653397,8.07961792257,0.0,0.0,0.0,0.0,0.0,0.0,0.0,0.0,0.0
57520000000,169,57520000000,imu_link,-0.00183598834832,-0.370689676878,0.00906714058649,0.928710708221,0.0,0.0,0.0,0.0,0.0,0.0,0.0,0.0,0.0,-0.0127920337476,0.00920071227453,-0.0012694442233,0.0,0.0,0.0,0.0,0.0,0.0,0.0,0.0,0.0,5.52577446836,-0.0603353019865,8.07428894207,0.0,0.0,0.0,0.0,0.0,0.0,0.0,0.0,0.0
57524000000,170,57524000000,imu_link,-0.00185886354694,-0.370671329299,0.00905521998905,0.928718102146,0.0,0.0,0.0,0.0,0.0,0.0,0.0,0.0,0.0,-0.012741674554,0.0100048716209,-0.0013122711581,0.0,0.0,0.0,0.0,0.0,0.0,0.0,0.0,0.0,5.53180400169,-0.0600075382578,8.07144951407,0.0,0.0,0.0,0.0,0.0,0.0,0.0,0.0,0.0
57528000000,171,57528000000,imu_link,-0.00188133354942,-0.370651889255,0.00904329077536,0.928725931838,0.0,0.0,0.0,0.0,0.0,0.0,0.0,0.0,0.0,-0.0125497636807,0.0105911042437,-0.00139232710427,0.0,0.0,0.0,0.0,0.0,0.0,0.0,0.0,0.0,5.53878922387,-0.0599218323249,8.07280226708,0.0,0.0,0.0,0.0,0.0,0.0,0.0,0.0,0.0
57532000000,172,57532000000,imu_link,-0.00190290689297,-0.370631978368,0.00903146748718,0.928733949068,0.0,0.0,0.0,0.0,0.0,0.0,0.0,0.0,0.0,-0.0121114523382,0.0108403483387,-0.00150971846043,0.0,0.0,0.0,0.0,0.0,0.0,0.0,0.0,0.0,5.54572901548,-0.0598643620698,8.07496606368,0.0,0.0,0.0,0.0,0.0,0.0,0.0,0.0,0.0
57536000000,173,57536000000,imu_link,-0.00192317183817,-0.370612134819,0.00901988942054,0.928741938608,0.0,0.0,0.0,0.0,0.0,0.0,0.0,0.0,0.0,-0.0114587623148,0.0107978052921,-0.00163825183554,0.0,0.0,0.0,0.0,0.0,0.0,0.0,0.0,0.0,5.55168406772,-0.0597119651324,8.07304891756,0.0,0.0,0.0,0.0,0.0,0.0,0.0,0.0,0.0
57540000000,174,57540000000,imu_link,-0.00194197672403,-0.370592423257,0.00900859070101,0.928749874748,0.0,0.0,0.0,0.0,0.0,0.0,0.0,0.0,0.0,-0.0107296350267,0.0107197654968,-0.00177897508105,0.0,0.0,0.0,0.0,0.0,0.0,0.0,0.0,0.0,5.55724083352,-0.0594140807548,8.06654939267,0.0,0.0,0.0,0.0,0.0,0.0,0.0,0.0,0.0
57544000000,175,57544000000,imu_link,-0.00195947027895,-0.370572686954,0.00899756209106,0.928757819906,0.0,0.0,0.0,0.0,0.0,0.0,0.0,0.0,0.0,-0.0100705153236,0.010726756959,-0.00189654422297,0.0,0.0,0.0,0.0,0.0,0.0,0.0,0.0,0.0,5.56381788163,-0.0591293650444,8.06191293362,0.0,0.0,0.0,0.0,0.0,0.0,0.0,0.0,0.0
57548000000,176,57548000000,imu_link,-0.00197595079691,-0.370552861349,0.00898673998974,0.928765799903,0.0,0.0,0.0,0.0,0.0,0.0,0.0,0.0,0.0,-0.00956138320796,0.0107699227827,-0.00198841711828,0.0,0.0,0.0,0.0,0.0,0.0,0.0,0.0,0.0,5.56975546642,-0.0589192251914,8.05685519437,0.0,0.0,0.0,0.0,0.0,0.0,0.0,0.0,0.0
57552000000,177,57552000000,imu_link,-0.0019914595756,-0.370533005808,0.00897610692796,0.928773791189,0.0,0.0,0.0,0.0,0.0,0.0,0.0,0.0,0.0,-0.00907495387714,0.010781362507,-0.0020806919264,0.0,0.0,0.0,0.0,0.0,0.0,0.0,0.0,0.0,5.57526799127,-0.0588413775059,8.05167102712,0.0,0.0,0.0,0.0,0.0,0.0,0.0,0.0,0.0
57556000000,178,57556000000,imu_link,-0.00200585324938,-0.370513336336,0.00896567507783,0.928781707841,0.0,0.0,0.0,0.0,0.0,0.0,0.0,0.0,0.0,-0.00852074538897,0.0106759224747,-0.00219369377017,0.0,0.0,0.0,0.0,0.0,0.0,0.0,0.0,0.0,5.58074456542,-0.0588191342047,8.04791212439,0.0,0.0,0.0,0.0,0.0,0.0,0.0,0.0,0.0
57560000000,179,57560000000,imu_link,-0.00201885633477,-0.370494163026,0.00895549747302,0.928789426322,0.0,0.0,0.0,0.0,0.0,0.0,0.0,0.0,0.0,-0.00783029118415,0.0104023078104,-0.00233284958748,0.0,0.0,0.0,0.0,0.0,0.0,0.0,0.0,0.0,5.58628335723,-0.0587923680478,8.0448007172,0.0,0.0,0.0,0.0,0.0,0.0,0.0,0.0,0.0
57564000000,180,57564000000,imu_link,-0.00203044302024,-0.37047563473,0.00894560919461,0.928796887079,0.0,0.0,0.0,0.0,0.0,0.0,0.0,0.0,0.0,-0.00712207404348,0.010048389821,-0.00246036896536,0.0,0.0,0.0,0.0,0.0,0.0,0.0,0.0,0.0,5.59245021378,-0.058630774319,8.04217296848,0.0,0.0,0.0,0.0,0.0,0.0,0.0,0.0,0.0
57568000000,181,57568000000,imu_link,-0.00204091074032,-0.370457943895,0.00893598942866,0.928804013009,0.0,0.0,0.0,0.0,0.0,0.0,0.0,0.0,0.0,-0.00655677531543,0.00959217411772,-0.00254229948508,0.0,0.0,0.0,0.0,0.0,0.0,0.0,0.0,0.0,5.59896110227,-0.0583844410574,8.04089959401,0.0,0.0,0.0,0.0,0.0,0.0,0.0,0.0,0.0
57572000000,182,57572000000,imu_link,-0.00205049682731,-0.370441184471,0.00892662060293,0.928810766386,0.0,0.0,0.0,0.0,0.0,0.0,0.0,0.0,0.0,-0.006105403457,0.00908642241908,-0.00258835224316,0.0,0.0,0.0,0.0,0.0,0.0,0.0,0.0,0.0,5.60529787594,-0.0582183189245,8.03876327652,0.0,0.0,0.0,0.0,0.0,0.0,0.0,0.0,0.0
57576000000,183,57576000000,imu_link,-0.00205923042471,-0.370425320294,0.0089175266057,0.928817161434,0.0,0.0,0.0,0.0,0.0,0.0,0.0,0.0,0.0,-0.00566296194298,0.00860020829067,-0.00261793754522,0.0,0.0,0.0,0.0,0.0,0.0,0.0,0.0,0.0,5.61041667823,-0.0581353736244,8.03253136792,0.0,0.0,0.0,0.0,0.0,0.0,0.0,0.0,0.0
57580000000,184,57580000000,imu_link,-0.00206707763913,-0.37041029211,0.00890873075121,0.92882322172,0.0,0.0,0.0,0.0,0.0,0.0,0.0,0.0,0.0,-0.00520017044414,0.00814570439484,-0.00264301497388,0.0,0.0,0.0,0.0,0.0,0.0,0.0,0.0,0.0,5.61620221335,-0.0580799942805,8.02794284511,0.0,0.0,0.0,0.0,0.0,0.0,0.0,0.0,0.0
57584000000,185,57584000000,imu_link,-0.00207403710052,-0.370396016478,0.00890024306974,0.928828980502,0.0,0.0,0.0,0.0,0.0,0.0,0.0,0.0,0.0,-0.00473447615224,0.00773609786636,-0.00266374706289,0.0,0.0,0.0,0.0,0.0,0.0,0.0,0.0,0.0,5.62225090028,-0.0579968183897,8.02371431915,0.0,0.0,0.0,0.0,0.0,0.0,0.0,0.0,0.0
57588000000,186,57588000000,imu_link,-0.00208002210676,-0.370382292055,0.00889207983072,0.928834518176,0.0,0.0,0.0,0.0,0.0,0.0,0.0,0.0,0.0,-0.00422452121171,0.00743448617103,-0.00269312609699,0.0,0.0,0.0,0.0,0.0,0.0,0.0,0.0,0.0,5.62712812864,-0.0579321014747,8.01589813691,0.0,0.0,0.0,0.0,0.0,0.0,0.0,0.0,0.0
57592000000,187,57592000000,imu_link,-0.00208522062519,-0.370368930976,0.00888419196345,0.928839909756,0.0,0.0,0.0,0.0,0.0,0.0,0.0,0.0,0.0,-0.00381003366644,0.00723490514819,-0.0027106176223,0.0,0.0,0.0,0.0,0.0,0.0,0.0,0.0,0.0,5.6322329193,-0.0578618865069,8.00909603935,0.0,0.0,0.0,0.0,0.0,0.0,0.0,0.0,0.0
57596000000,188,57596000000,imu_link,-0.00209030835814,-0.370355859908,0.00887645560354,0.928845184182,0.0,0.0,0.0,0.0,0.0,0.0,0.0,0.0,0.0,-0.00373193627091,0.00707787271604,-0.00266055228944,0.0,0.0,0.0,0.0,0.0,0.0,0.0,0.0,0.0,5.6377370551,-0.0577483413732,8.00450148836,0.0,0.0,0.0,0.0,0.0,0.0,0.0,0.0,0.0
57600000000,189,57600000000,imu_link,-0.00209615476915,-0.370343102136,0.00886871849653,0.928850331683,0.0,0.0,0.0,0.0,0.0,0.0,0.0,0.0,0.0,-0.00408594498524,0.00691223539664,-0.00252017294581,0.0,0.0,0.0,0.0,0.0,0.0,0.0,0.0,0.0,5.64380843631,-0.0577269804741,8.00204784091,0.0,0.0,0.0,0.0,0.0,0.0,0.0,0.0,0.0
57604000000,190,57604000000,imu_link,-0.00210330805634,-0.370330524426,0.00886089783263,0.928855404927,0.0,0.0,0.0,0.0,0.0,0.0,0.0,0.0,0.0,-0.00470923982469,0.00682074213313,-0.00231684202165,0.0,0.0,0.0,0.0,0.0,0.0,0.0,0.0,0.0,5.64928661053,-0.0578843819422,7.99716384104,0.0,0.0,0.0,0.0,0.0,0.0,0.0,0.0,0.0
57608000000,191,57608000000,imu_link,-0.00211156845719,-0.370317964444,0.00885301526392,0.928860468859,0.0,0.0,0.0,0.0,0.0,0.0,0.0,0.0,0.0,-0.00523496502379,0.0068157551162,-0.00214057072258,0.0,0.0,0.0,0.0,0.0,0.0,0.0,0.0,0.0,5.65446688908,-0.0582315898244,7.9912914944,0.0,0.0,0.0,0.0,0.0,0.0,0.0,0.0,0.0
57612000000,192,57612000000,imu_link,-0.00212001661835,-0.370305249367,0.00884524248506,0.92886559281,0.0,0.0,0.0,0.0,0.0,0.0,0.0,0.0,0.0,-0.00530108812394,0.00689961363515,-0.00205491741274,0.0,0.0,0.0,0.0,0.0,0.0,0.0,0.0,0.0,5.66097356128,-0.0586698230221,7.98909335187,0.0,0.0,0.0,0.0,0.0,0.0,0.0,0.0,0.0
57616000000,193,57616000000,imu_link,-0.00212773800395,-0.370292322041,0.00883777036351,0.928870799833,0.0,0.0,0.0,0.0,0.0,0.0,0.0,0.0,0.0,-0.0049068554698,0.00701003744122,-0.00204998911859,0.0,0.0,0.0,0.0,0.0,0.0,0.0,0.0,0.0,5.66642829429,-0.0589399912899,7.98524180053,0.0,0.0,0.0,0.0,0.0,0.0,0.0,0.0,0.0
57620000000,194,57620000000,imu_link,-0.00213428773975,-0.370278956708,0.00883065559118,0.928876180423,0.0,0.0,0.0,0.0,0.0,0.0,0.0,0.0,0.0,-0.00429441783546,0.00724004092217,-0.00210125093647,0.0,0.0,0.0,0.0,0.0,0.0,0.0,0.0,0.0,5.67094122641,-0.0590166270601,7.97818788509,0.0,0.0,0.0,0.0,0.0,0.0,0.0,0.0,0.0
57624000000,195,57624000000,imu_link,-0.00213986068554,-0.37026492995,0.00882383116416,0.928881823834,0.0,0.0,0.0,0.0,0.0,0.0,0.0,0.0,0.0,-0.00378380408845,0.00759126831987,-0.00214770051419,0.0,0.0,0.0,0.0,0.0,0.0,0.0,0.0,0.0,5.67596254702,-0.0589099359742,7.97240689313,0.0,0.0,0.0,0.0,0.0,0.0,0.0,0.0,0.0
57628000000,196,57628000000,imu_link,-0.00214507835217,-0.370250185512,0.00881715441954,0.928887752398,0.0,0.0,0.0,0.0,0.0,0.0,0.0,0.0,0.0,-0.00358798567174,0.0079756531272,-0.00214537467923,0.0,0.0,0.0,0.0,0.0,0.0,0.0,0.0,0.0,5.68005563786,-0.0587699934018,7.96514990671,0.0,0.0,0.0,0.0,0.0,0.0,0.0,0.0,0.0
57632000000,197,57632000000,imu_link,-0.00215050447765,-0.370234713164,0.00881052767718,0.928893969784,0.0,0.0,0.0,0.0,0.0,0.0,0.0,0.0,0.0,-0.00367202761342,0.0083680604861,-0.00208405305416,0.0,0.0,0.0,0.0,0.0,0.0,0.0,0.0,0.0,5.68501539005,-0.0587286018004,7.96071614579,0.0,0.0,0.0,0.0,0.0,0.0,0.0,0.0,0.0
57636000000,198,57636000000,imu_link,-0.00215632530547,-0.370218504305,0.0088039381528,0.928900479063,0.0,0.0,0.0,0.0,0.0,0.0,0.0,0.0,0.0,-0.00384489785125,0.00876586400564,-0.00199419495105,0.0,0.0,0.0,0.0,0.0,0.0,0.0,0.0,0.0,5.68856673519,-0.0588397381469,7.95269291509,0.0,0.0,0.0,0.0,0.0,0.0,0.0,0.0,0.0
57640000000,199,57640000000,imu_link,-0.00216234537168,-0.370201655154,0.00879742468915,0.928907241926,0.0,0.0,0.0,0.0,0.0,0.0,0.0,0.0,0.0,-0.00392026266937,0.0091109835985,-0.00192241358425,0.0,0.0,0.0,0.0,0.0,0.0,0.0,0.0,0.0,5.69272949255,-0.0590825884255,7.94712786554,0.0,0.0,0.0,0.0,0.0,0.0,0.0,0.0,0.0
57644000000,200,57644000000,imu_link,-0.00216831336618,-0.370184650989,0.0087909937278,0.928914065465,0.0,0.0,0.0,0.0,0.0,0.0,0.0,0.0,0.0,-0.00388005907245,0.00919389308029,-0.00189383291406,0.0,0.0,0.0,0.0,0.0,0.0,0.0,0.0,0.0,5.69824338544,-0.0593295203947,7.94769414793,0.0,0.0,0.0,0.0,0.0,0.0,0.0,0.0,0.0
57648000000,201,57648000000,imu_link,-0.00217415379104,-0.370168214796,0.00878463307315,0.928920661861,0.0,0.0,0.0,0.0,0.0,0.0,0.0,0.0,0.0,-0.00381053799964,0.00888741486817,-0.00188440799303,0.0,0.0,0.0,0.0,0.0,0.0,0.0,0.0,0.0,5.70318382567,-0.0594925238968,7.94826792148,0.0,0.0,0.0,0.0,0.0,0.0,0.0,0.0,0.0
57652000000,202,57652000000,imu_link,-0.00217991755924,-0.370153014425,0.00877830305548,0.928926765287,0.0,0.0,0.0,0.0,0.0,0.0,0.0,0.0,0.0,-0.00377522762045,0.00822181444096,-0.00188354441822,0.0,0.0,0.0,0.0,0.0,0.0,0.0,0.0,0.0,5.70881440063,-0.0596103172488,7.95002533911,0.0,0.0,0.0,0.0,0.0,0.0,0.0,0.0,0.0
57656000000,203,57656000000,imu_link,-0.00218557884459,-0.370139459033,0.00877200800176,0.928932212805,0.0,0.0,0.0,0.0,0.0,0.0,0.0,0.0,0.0,-0.00372909206154,0.00733590043337,-0.00188518619092,0.0,0.0,0.0,0.0,0.0,0.0,0.0,0.0,0.0,5.7124045581,-0.0596894558722,7.94464780549,0.0,0.0,0.0,0.0,0.0,0.0,0.0,0.0,0.0
57660000000,204,57660000000,imu_link,-0.0021910542942,-0.370127658211,0.00876572839878,0.928936961217,0.0,0.0,0.0,0.0,0.0,0.0,0.0,0.0,0.0,-0.00364837771506,0.00639074675851,-0.00191125350477,0.0,0.0,0.0,0.0,0.0,0.0,0.0,0.0,0.0,5.71647356931,-0.0597705565411,7.93838311036,0.0,0.0,0.0,0.0,0.0,0.0,0.0,0.0,0.0
57664000000,205,57664000000,imu_link,-0.00219604302397,-0.370117461051,0.00875947692058,0.92894107132,0.0,0.0,0.0,0.0,0.0,0.0,0.0,0.0,0.0,-0.00342483473465,0.00552560440162,-0.00198722390573,0.0,0.0,0.0,0.0,0.0,0.0,0.0,0.0,0.0,5.72065967399,-0.0599174776678,7.93076620874,0.0,0.0,0.0,0.0,0.0,0.0,0.0,0.0,0.0
57668000000,206,57668000000,imu_link,-0.00220019994689,-0.370108553801,0.00875330935204,0.928944668481,0.0,0.0,0.0,0.0,0.0,0.0,0.0,0.0,0.0,-0.0030291694327,0.0048278196095,-0.0021013532578,0.0,0.0,0.0,0.0,0.0,0.0,0.0,0.0,0.0,5.72467913219,-0.0600383937624,7.92189109474,0.0,0.0,0.0,0.0,0.0,0.0,0.0,0.0,0.0
57672000000,207,57672000000,imu_link,-0.00220333726959,-0.370100535406,0.00874728844742,0.928947912394,0.0,0.0,0.0,0.0,0.0,0.0,0.0,0.0,0.0,-0.00253273138034,0.00434497697002,-0.00222134509158,0.0,0.0,0.0,0.0,0.0,0.0,0.0,0.0,0.0,5.72904876078,-0.0600782264104,7.91341062867,0.0,0.0,0.0,0.0,0.0,0.0,0.0,0.0,0.0
57676000000,208,57676000000,imu_link,-0.00220532642272,-0.370093046064,0.00874147815724,0.928950946149,0.0,0.0,0.0,0.0,0.0,0.0,0.0,0.0,0.0,-0.00196300766369,0.00405510255247,-0.00233565293979,0.0,0.0,0.0,0.0,0.0,0.0,0.0,0.0,0.0,5.73239544081,-0.060051023149,7.90279187166,0.0,0.0,0.0,0.0,0.0,0.0,0.0,0.0,0.0
57680000000,209,57680000000,imu_link,-0.00220616294036,-0.370085975402,0.00873588983333,0.928953813644,0.0,0.0,0.0,0.0,0.0,0.0,0.0,0.0,0.0,-0.00138857593611,0.00382458705768,-0.002445581228,0.0,0.0,0.0,0.0,0.0,0.0,0.0,0.0,0.0,5.73581992268,-0.0600105813634,7.8946277116,0.0,0.0,0.0,0.0,0.0,0.0,0.0,0.0,0.0
57684000000,210,57684000000,imu_link,-0.00220620707994,-0.370079563722,0.00873042954206,0.928956419196,0.0,0.0,0.0,0.0,0.0,0.0,0.0,0.0,0.0,-0.00100001042598,0.00346643229606,-0.00253231977843,0.0,0.0,0.0,0.0,0.0,0.0,0.0,0.0,0.0,5.74071684482,-0.0599442854151,7.89279015178,0.0,0.0,0.0,0.0,0.0,0.0,0.0,0.0,0.0
57688000000,211,57688000000,imu_link,-0.00220596582907,-0.370074282038,0.00872500223023,0.92895857487,0.0,0.0,0.0,0.0,0.0,0.0,0.0,0.0,0.0,-0.000866779205162,0.00285704669835,-0.00256909282955,0.0,0.0,0.0,0.0,0.0,0.0,0.0,0.0,0.0,5.746048565,-0.0599231835806,7.89362774973,0.0,0.0,0.0,0.0,0.0,0.0,0.0,0.0,0.0
57692000000,212,57692000000,imu_link,-0.00220594386396,-0.370070312754,0.00871955906792,0.928960207285,0.0,0.0,0.0,0.0,0.0,0.0,0.0,0.0,0.0,-0.000977868321471,0.00215161563989,-0.00253504386921,0.0,0.0,0.0,0.0,0.0,0.0,0.0,0.0,0.0,5.75119662963,-0.0599849722033,7.89197961486,0.0,0.0,0.0,0.0,0.0,0.0,0.0,0.0,0.0
57696000000,213,57696000000,imu_link,-0.00220635049669,-0.370067524805,0.00871409534662,0.92896136822,0.0,0.0,0.0,0.0,0.0,0.0,0.0,0.0,0.0,-0.00118641801619,0.00151755954334,-0.00246453487233,0.0,0.0,0.0,0.0,0.0,0.0,0.0,0.0,0.0,5.75439656872,-0.06014164927,7.88322592084,0.0,0.0,0.0,0.0,0.0,0.0,0.0,0.0,0.0
57700000000,214,57700000000,imu_link,-0.00220726572257,-0.370065787886,0.00870861542854,0.928962109363,0.0,0.0,0.0,0.0,0.0,0.0,0.0,0.0,0.0,-0.00143068915667,0.000953934625598,-0.00237728148437,0.0,0.0,0.0,0.0,0.0,0.0,0.0,0.0,0.0,5.75747588406,-0.0603587847232,7.87429772667,0.0,0.0,0.0,0.0,0.0,0.0,0.0,0.0,0.0
57704000000,215,57704000000,imu_link,-0.00220867710819,-0.370064949291,0.00870310993171,0.92896249167,0.0,0.0,0.0,0.0,0.0,0.0,0.0,0.0,0.0,-0.0016701864622,0.000472472672747,-0.00229678538684,0.0,0.0,0.0,0.0,0.0,0.0,0.0,0.0,0.0,5.76016643988,-0.0605821157864,7.864471354,0.0,0.0,0.0,0.0,0.0,0.0,0.0,0.0,0.0
57708000000,216,57708000000,imu_link,-0.00221031889742,-0.370064956814,0.00869758297408,0.928962536532,0.0,0.0,0.0,0.0,0.0,0.0,0.0,0.0,0.0,-0.00178523014879,1.805465395e-05,-0.0022635873682,0.0,0.0,0.0,0.0,0.0,0.0,0.0,0.0,0.0,5.76490414324,-0.0608590311233,7.86080990339,0.0,0.0,0.0,0.0,0.0,0.0,0.0,0.0,0.0
57712000000,217,57712000000,imu_link,-0.00221192000583,-0.370065632294,0.00869206326644,0.928962315296,0.0,0.0,0.0,0.0,0.0,0.0,0.0,0.0,0.0,-0.00176819207211,-0.000341620570072,-0.00226732815675,0.0,0.0,0.0,0.0,0.0,0.0,0.0,0.0,0.0,5.76966969572,-0.0610908572858,7.85645279571,0.0,0.0,0.0,0.0,0.0,0.0,0.0,0.0,0.0
57716000000,218,57716000000,imu_link,-0.00221312956143,-0.370066813802,0.00868660739272,0.928961892777,0.0,0.0,0.0,0.0,0.0,0.0,0.0,0.0,0.0,-0.0015769336272,-0.00061567743732,-0.0023098134789,0.0,0.0,0.0,0.0,0.0,0.0,0.0,0.0,0.0,5.77324753069,-0.0612616056432,7.84929193727,0.0,0.0,0.0,0.0,0.0,0.0,0.0,0.0,0.0
57720000000,219,57720000000,imu_link,-0.00221367933748,-0.370068493875,0.00868128394579,0.928961271945,0.0,0.0,0.0,0.0,0.0,0.0,0.0,0.0,0.0,-0.0012483600808,-0.000886957897362,-0.00237007538258,0.0,0.0,0.0,0.0,0.0,0.0,0.0,0.0,0.0,5.7768584528,-0.0613863172887,7.84309070429,0.0,0.0,0.0,0.0,0.0,0.0,0.0,0.0,0.0
57724000000,220,57724000000,imu_link,-0.002213525218,-0.370070902741,0.0086760954575,0.928960361166,0.0,0.0,0.0,0.0,0.0,0.0,0.0,0.0,0.0,-0.000899926617508,-0.00128232290738,-0.00243718258506,0.0,0.0,0.0,0.0,0.0,0.0,0.0,0.0,0.0,5.78092963399,-0.0614393885601,7.83986618359,0.0,0.0,0.0,0.0,0.0,0.0,0.0,0.0,0.0
57728000000,221,57728000000,imu_link,-0.00221281000524,-0.370074495316,0.00867096855651,0.928958979553,0.0,0.0,0.0,0.0,0.0,0.0,0.0,0.0,0.0,-0.000633570166684,-0.00192175573848,-0.00251166623797,0.0,0.0,0.0,0.0,0.0,0.0,0.0,0.0,0.0,5.78572687814,-0.0614787625184,7.84022942442,0.0,0.0,0.0,0.0,0.0,0.0,0.0,0.0,0.0
57732000000,222,57732000000,imu_link,-0.00221175398368,-0.370079471628,0.00866580945835,0.928957047753,0.0,0.0,0.0,0.0,0.0,0.0,0.0,0.0,0.0,-0.000487837045226,-0.00266772050231,-0.00258882913033,0.0,0.0,0.0,0.0,0.0,0.0,0.0,0.0,0.0,5.79037031953,-0.061523837966,7.83843546474,0.0,0.0,0.0,0.0,0.0,0.0,0.0,0.0,0.0
57736000000,223,57736000000,imu_link,-0.00221064452595,-0.370085781046,0.00866050170562,0.928954586311,0.0,0.0,0.0,0.0,0.0,0.0,0.0,0.0,0.0,-0.00049688603278,-0.00338499073255,-0.00266694316585,0.0,0.0,0.0,0.0,0.0,0.0,0.0,0.0,0.0,5.79410381344,-0.0615784583336,7.83257515076,0.0,0.0,0.0,0.0,0.0,0.0,0.0,0.0,0.0
57740000000,224,57740000000,imu_link,-0.00220965201355,-0.370093133693,0.00865497547233,0.928951710925,0.0,0.0,0.0,0.0,0.0,0.0,0.0,0.0,0.0,-0.000596607744872,-0.00394539696035,-0.00274614314704,0.0,0.0,0.0,0.0,0.0,0.0,0.0,0.0,0.0,5.79724737304,-0.0616926471262,7.82372342207,0.0,0.0,0.0,0.0,0.0,0.0,0.0,0.0,0.0
57744000000,225,57744000000,imu_link,-0.00220882359614,-0.370101112703,0.0086492338698,0.928948587505,0.0,0.0,0.0,0.0,0.0,0.0,0.0,0.0,0.0,-0.000715663853032,-0.00428127714346,-0.00281543040133,0.0,0.0,0.0,0.0,0.0,0.0,0.0,0.0,0.0,5.80155204553,-0.0618835747861,7.81704488636,0.0,0.0,0.0,0.0,0.0,0.0,0.0,0.0,0.0
57748000000,226,57748000000,imu_link,-0.0022080425301,-0.370109450455,0.00864336063087,0.928945322152,0.0,0.0,0.0,0.0,0.0,0.0,0.0,0.0,0.0,-0.000763724913844,-0.00447381834206,-0.00286759211762,0.0,0.0,0.0,0.0,0.0,0.0,0.0,0.0,0.0,5.80595593445,-0.0620992569932,7.81172239335,0.0,0.0,0.0,0.0,0.0,0.0,0.0,0.0,0.0
57752000000,227,57752000000,imu_link,-0.00220711199644,-0.370118120455,0.00863750863385,0.928941924456,0.0,0.0,0.0,0.0,0.0,0.0,0.0,0.0,0.0,-0.000691952348864,-0.0046532981519,-0.00288518038688,0.0,0.0,0.0,0.0,0.0,0.0,0.0,0.0,0.0,5.81127374905,-0.062308517733,7.81073889263,0.0,0.0,0.0,0.0,0.0,0.0,0.0,0.0,0.0
57756000000,228,57756000000,imu_link,-0.00220579611553,-0.370127171701,0.00863181149446,0.928938374201,0.0,0.0,0.0,0.0,0.0,0.0,0.0,0.0,0.0,-0.000486126806937,-0.00486044402823,-0.00288432737731,0.0,0.0,0.0,0.0,0.0,0.0,0.0,0.0,0.0,5.81432047802,-0.0624689157023,7.80464924702,0.0,0.0,0.0,0.0,0.0,0.0,0.0,0.0,0.0
57760000000,229,57760000000,imu_link,-0.00220375931531,-0.370136513164,0.00862639621315,0.928934707262,0.0,0.0,0.0,0.0,0.0,0.0,0.0,0.0,0.0,-0.000100501566989,-0.00502025686404,-0.00288664538262,0.0,0.0,0.0,0.0,0.0,0.0,0.0,0.0,0.0,5.81750611682,-0.062600585023,7.79803855125,0.0,0.0,0.0,0.0,0.0,0.0,0.0,0.0,0.0
57764000000,230,57764000000,imu_link,-0.0022007646175,-0.370145687064,0.00862132090262,0.928931106062,0.0,0.0,0.0,0.0,0.0,0.0,0.0,0.0,0.0,0.000408123559048,-0.0049347689444,-0.00290611539566,0.0,0.0,0.0,0.0,0.0,0.0,0.0,0.0,0.0,5.82183026062,-0.0626967355544,7.79192268187,0.0,0.0,0.0,0.0,0.0,0.0,0.0,0.0,0.0
57768000000,231,57768000000,imu_link,-0.00219698518496,-0.370154053888,0.00861656645349,0.928927825199,0.0,0.0,0.0,0.0,0.0,0.0,0.0,0.0,0.0,0.000835820064909,-0.00450436008478,-0.00290281218794,0.0,0.0,0.0,0.0,0.0,0.0,0.0,0.0,0.0,5.82621288757,-0.0627071531637,7.7847790457,0.0,0.0,0.0,0.0,0.0,0.0,0.0,0.0,0.0
57772000000,232,57772000000,imu_link,-0.00219274114028,-0.370161221731,0.00861211074874,0.928925020312,0.0,0.0,0.0,0.0,0.0,0.0,0.0,0.0,0.0,0.00111259476202,-0.00386171487211,-0.00285077881042,0.0,0.0,0.0,0.0,0.0,0.0,0.0,0.0,0.0,5.8292555466,-0.0627114534494,7.77670020541,0.0,0.0,0.0,0.0,0.0,0.0,0.0,0.0,0.0
57776000000,233,57776000000,imu_link,-0.0021884715254,-0.370167129795,0.00860792603609,0.92892271488,0.0,0.0,0.0,0.0,0.0,0.0,0.0,0.0,0.0,0.00118059881516,-0.00318456218565,-0.00273041518337,0.0,0.0,0.0,0.0,0.0,0.0,0.0,0.0,0.0,5.83188062737,-0.0627517088993,7.77027936522,0.0,0.0,0.0,0.0,0.0,0.0,0.0,0.0,0.0
57780000000,234,57780000000,imu_link,-0.00218456264067,-0.370172181521,0.00860397096765,0.928920747641,0.0,0.0,0.0,0.0,0.0,0.0,0.0,0.0,0.0,0.001059612672,-0.0027229311984,-0.00255750762745,0.0,0.0,0.0,0.0,0.0,0.0,0.0,0.0,0.0,5.83592490201,-0.0628764916546,7.77030056587,0.0,0.0,0.0,0.0,0.0,0.0,0.0,0.0,0.0
57784000000,235,57784000000,imu_link,-0.00218118887555,-0.37017697772,0.0086002197435,0.928918879021,0.0,0.0,0.0,0.0,0.0,0.0,0.0,0.0,0.0,0.000850006563123,-0.00258391608419,-0.0023639319918,0.0,0.0,0.0,0.0,0.0,0.0,0.0,0.0,0.0,5.83984227976,-0.0630848542171,7.77087779463,0.0,0.0,0.0,0.0,0.0,0.0,0.0,0.0,0.0
57788000000,236,57788000000,imu_link,-0.00217842522702,-0.37018215906,0.00859662807345,0.928916853956,0.0,0.0,0.0,0.0,0.0,0.0,0.0,0.0,0.0,0.000594337005287,-0.00278930574259,-0.00217664732672,0.0,0.0,0.0,0.0,0.0,0.0,0.0,0.0,0.0,5.84360700758,-0.0633467132138,7.77117283012,0.0,0.0,0.0,0.0,0.0,0.0,0.0,0.0,0.0
57792000000,237,57792000000,imu_link,-0.00217639075213,-0.370187993459,0.0085931358877,0.928914565952,0.0,0.0,0.0,0.0,0.0,0.0,0.0,0.0,0.0,0.000270986377393,-0.00313826566995,-0.0019950585988,0.0,0.0,0.0,0.0,0.0,0.0,0.0,0.0,0.0,5.84745817453,-0.0635791093792,7.76907547837,0.0,0.0,0.0,0.0,0.0,0.0,0.0,0.0,0.0
57796000000,238,57796000000,imu_link,-0.00217522272029,-0.370194340289,0.00858970752333,0.928912071053,0.0,0.0,0.0,0.0,0.0,0.0,0.0,0.0,0.0,-0.000122053291446,-0.00341091024358,-0.00180471156945,0.0,0.0,0.0,0.0,0.0,0.0,0.0,0.0,0.0,5.84933818527,-0.0637964058571,7.75936012347,0.0,0.0,0.0,0.0,0.0,0.0,0.0,0.0,0.0
57800000000,239,57800000000,imu_link,-0.00217518526183,-0.370200933958,0.0085862848266,0.928909475018,0.0,0.0,0.0,0.0,0.0,0.0,0.0,0.0,0.0,-0.000647275996159,-0.00353942652419,-0.00159264736937,0.0,0.0,0.0,0.0,0.0,0.0,0.0,0.0,0.0,5.85233280799,-0.064023830087,7.7517740097,0.0,0.0,0.0,0.0,0.0,0.0,0.0,0.0,0.0
57804000000,240,57804000000,imu_link,-0.00217639915081,-0.370207620603,0.00858280345023,0.928906839473,0.0,0.0,0.0,0.0,0.0,0.0,0.0,0.0,0.0,-0.00123977399593,-0.00358448654175,-0.0013882079024,0.0,0.0,0.0,0.0,0.0,0.0,0.0,0.0,0.0,5.85602380458,-0.0643145122782,7.74675730846,0.0,0.0,0.0,0.0,0.0,0.0,0.0,0.0,0.0
57808000000,241,57808000000,imu_link,-0.00217874262884,-0.370214499905,0.00857920988731,0.928904125461,0.0,0.0,0.0,0.0,0.0,0.0,0.0,0.0,0.0,-0.00178609380775,-0.00368352198157,-0.00123109501316,0.0,0.0,0.0,0.0,0.0,0.0,0.0,0.0,0.0,5.85998178747,-0.0646812117932,7.74424147984,0.0,0.0,0.0,0.0,0.0,0.0,0.0,0.0,0.0
57812000000,242,57812000000,imu_link,-0.00218206973983,-0.370221753547,0.0085754817422,0.928901261107,0.0,0.0,0.0,0.0,0.0,0.0,0.0,0.0,0.0,-0.00226962585474,-0.00388084850136,-0.00111128728019,0.0,0.0,0.0,0.0,0.0,0.0,0.0,0.0,0.0,5.86356935498,-0.0650411811112,7.74147785368,0.0,0.0,0.0,0.0,0.0,0.0,0.0,0.0,0.0
57816000000,243,57816000000,imu_link,-0.00218632954832,-0.370229370035,0.00857160810875,0.928898251188,0.0,0.0,0.0,0.0,0.0,0.0,0.0,0.0,0.0,-0.00273146388058,-0.0040721602868,-0.00100597872198,0.0,0.0,0.0,0.0,0.0,0.0,0.0,0.0,0.0,5.86559768896,-0.0653400574929,7.73346358967,0.0,0.0,0.0,0.0,0.0,0.0,0.0,0.0,0.0
57820000000,244,57820000000,imu_link,-0.00219142460629,-0.37023722757,0.00856762194952,0.928895144154,0.0,0.0,0.0,0.0,0.0,0.0,0.0,0.0,0.0,-0.00314136418587,-0.00419838892794,-0.000903471560005,0.0,0.0,0.0,0.0,0.0,0.0,0.0,0.0,0.0,5.86938178461,-0.0656467846401,7.72918062089,0.0,0.0,0.0,0.0,0.0,0.0,0.0,0.0,0.0
57824000000,245,57824000000,imu_link,-0.00219714793227,-0.370245202215,0.00856357690279,0.928891989377,0.0,0.0,0.0,0.0,0.0,0.0,0.0,0.0,0.0,-0.00344461689836,-0.00425886274855,-0.000814441406688,0.0,0.0,0.0,0.0,0.0,0.0,0.0,0.0,0.0,5.87205724266,-0.0659324664516,7.72224940578,0.0,0.0,0.0,0.0,0.0,0.0,0.0,0.0,0.0
57828000000,246,57828000000,imu_link,-0.00220312361625,-0.370253411016,0.00855954063593,0.928888740454,0.0,0.0,0.0,0.0,0.0,0.0,0.0,0.0,0.0,-0.00356130423852,-0.00438397285229,-0.000763500586443,0.0,0.0,0.0,0.0,0.0,0.0,0.0,0.0,0.0,5.87556996201,-0.0662163467316,7.71920792006,0.0,0.0,0.0,0.0,0.0,0.0,0.0,0.0,0.0
57832000000,247,57832000000,imu_link,-0.00220927039022,-0.370262346322,0.00855553181066,0.928885201139,0.0,0.0,0.0,0.0,0.0,0.0,0.0,0.0,0.0,-0.00363911501588,-0.00477445150919,-0.000718639653937,0.0,0.0,0.0,0.0,0.0,0.0,0.0,0.0,0.0,5.87979576162,-0.0664095816834,7.72031620854,0.0,0.0,0.0,0.0,0.0,0.0,0.0,0.0,0.0
57836000000,248,57836000000,imu_link,-0.00221557412467,-0.370272456307,0.0085515689556,0.928881192619,0.0,0.0,0.0,0.0,0.0,0.0,0.0,0.0,0.0,-0.00370904692476,-0.00540626621692,-0.000667521284071,0.0,0.0,0.0,0.0,0.0,0.0,0.0,0.0,0.0,5.88265577194,-0.0665464525236,7.71772597935,0.0,0.0,0.0,0.0,0.0,0.0,0.0,0.0,0.0
57840000000,249,57840000000,imu_link,-0.00222217215197,-0.370283995077,0.00854765501375,0.928876613192,0.0,0.0,0.0,0.0,0.0,0.0,0.0,0.0,0.0,-0.00384341449189,-0.00617434343391,-0.000589461461197,0.0,0.0,0.0,0.0,0.0,0.0,0.0,0.0,0.0,5.88632063009,-0.0666456865325,7.71556566428,0.0,0.0,0.0,0.0,0.0,0.0,0.0,0.0,0.0
57844000000,250,57844000000,imu_link,-0.00222899840502,-0.370297019273,0.00854381779622,0.928871440115,0.0,0.0,0.0,0.0,0.0,0.0,0.0,0.0,0.0,-0.00394221442802,-0.00697325194566,-0.000510686848412,0.0,0.0,0.0,0.0,0.0,0.0,0.0,0.0,0.0,5.88977634386,-0.0667759326637,7.71150811731,0.0,0.0,0.0,0.0,0.0,0.0,0.0,0.0,0.0
57848000000,251,57848000000,imu_link,-0.00223566615737,-0.370311345349,0.00854009268651,0.928865747091,0.0,0.0,0.0,0.0,0.0,0.0,0.0,0.0,0.0,-0.00385398543664,-0.00767496057549,-0.000487195924278,0.0,0.0,0.0,0.0,0.0,0.0,0.0,0.0,0.0,5.89324281903,-0.0669635762273,7.70612353037,0.0,0.0,0.0,0.0,0.0,0.0,0.0,0.0,0.0
57852000000,252,57852000000,imu_link,-0.0022416491861,-0.370326623694,0.00853652665282,0.928859674281,0.0,0.0,0.0,0.0,0.0,0.0,0.0,0.0,0.0,-0.00351101422065,-0.00819064665928,-0.00053953902051,0.0,0.0,0.0,0.0,0.0,0.0,0.0,0.0,0.0,5.89689139079,-0.0671094309544,7.70029455478,0.0,0.0,0.0,0.0,0.0,0.0,0.0,0.0,0.0
57856000000,253,57856000000,imu_link,-0.00224646361499,-0.370342548589,0.00853316360641,0.928853344304,0.0,0.0,0.0,0.0,0.0,0.0,0.0,0.0,0.0,-0.00293374368038,-0.00854375759307,-0.00066127450477,0.0,0.0,0.0,0.0,0.0,0.0,0.0,0.0,0.0,5.90005740255,-0.0671944858395,7.69365183859,0.0,0.0,0.0,0.0,0.0,0.0,0.0,0.0,0.0
57860000000,254,57860000000,imu_link,-0.00224993927353,-0.370358903771,0.00853002505968,0.928846843588,0.0,0.0,0.0,0.0,0.0,0.0,0.0,0.0,0.0,-0.0022724397557,-0.00878117409683,-0.000804667519291,0.0,0.0,0.0,0.0,0.0,0.0,0.0,0.0,0.0,5.90242756912,-0.0671536922133,7.68576722454,0.0,0.0,0.0,0.0,0.0,0.0,0.0,0.0,0.0
57864000000,255,57864000000,imu_link,-0.00225217774937,-0.370375688619,0.00852707529968,0.928840172453,0.0,0.0,0.0,0.0,0.0,0.0,0.0,0.0,0.0,-0.00166492796368,-0.0090177681045,-0.000945847868662,0.0,0.0,0.0,0.0,0.0,0.0,0.0,0.0,0.0,5.90567982738,-0.0670730893868,7.68173959381,0.0,0.0,0.0,0.0,0.0,0.0,0.0,0.0,0.0
57868000000,256,57868000000,imu_link,-0.00225340752746,-0.370392880836,0.00852427982871,0.928833339536,0.0,0.0,0.0,0.0,0.0,0.0,0.0,0.0,0.0,-0.001169815022,-0.00924139280394,-0.00106076048549,0.0,0.0,0.0,0.0,0.0,0.0,0.0,0.0,0.0,5.90916948021,-0.0670037863899,7.67818705526,0.0,0.0,0.0,0.0,0.0,0.0,0.0,0.0,0.0
57872000000,257,57872000000,imu_link,-0.00225391002712,-0.370410360409,0.00852160124623,0.928826392338,0.0,0.0,0.0,0.0,0.0,0.0,0.0,0.0,0.0,-0.000811760983876,-0.00939924201965,-0.00114100157704,0.0,0.0,0.0,0.0,0.0,0.0,0.0,0.0,0.0,5.91096907348,-0.0669413896506,7.67005573465,0.0,0.0,0.0,0.0,0.0,0.0,0.0,0.0,0.0
57876000000,258,57876000000,imu_link,-0.0022541489284,-0.37042794125,0.00851895913831,0.928819404669,0.0,0.0,0.0,0.0,0.0,0.0,0.0,0.0,0.0,-0.000683064224494,-0.00945493124986,-0.00117282378062,0.0,0.0,0.0,0.0,0.0,0.0,0.0,0.0,0.0,5.91473287601,-0.0669138053511,7.66635895518,0.0,0.0,0.0,0.0,0.0,0.0,0.0,0.0,0.0
57880000000,259,57880000000,imu_link,-0.00225463968236,-0.370445370511,0.00851625859948,0.928812476987,0.0,0.0,0.0,0.0,0.0,0.0,0.0,0.0,0.0,-0.000810136014758,-0.00937228726076,-0.00115339769724,0.0,0.0,0.0,0.0,0.0,0.0,0.0,0.0,0.0,5.91800348812,-0.0669651845296,7.66083610618,0.0,0.0,0.0,0.0,0.0,0.0,0.0,0.0,0.0
57884000000,260,57884000000,imu_link,-0.00225572206103,-0.370462546224,0.00851344941788,0.928805649607,0.0,0.0,0.0,0.0,0.0,0.0,0.0,0.0,0.0,-0.00110382060976,-0.00923331809717,-0.00109441103731,0.0,0.0,0.0,0.0,0.0,0.0,0.0,0.0,0.0,5.92080894299,-0.0670677137479,7.65561733644,0.0,0.0,0.0,0.0,0.0,0.0,0.0,0.0,0.0
57888000000,261,57888000000,imu_link,-0.00225770560436,-0.370479620175,0.00851047532937,0.928798861762,0.0,0.0,0.0,0.0,0.0,0.0,0.0,0.0,0.0,-0.00155239218828,-0.00917471480425,-0.0010041239013,0.0,0.0,0.0,0.0,0.0,0.0,0.0,0.0,0.0,5.92403414825,-0.0671938493541,7.65337581458,0.0,0.0,0.0,0.0,0.0,0.0,0.0,0.0,0.0
57892000000,262,57892000000,imu_link,-0.00226074889762,-0.370496820201,0.00850732659862,0.928792022268,0.0,0.0,0.0,0.0,0.0,0.0,0.0,0.0,0.0,-0.00207748492297,-0.00923812434268,-0.000888842329776,0.0,0.0,0.0,0.0,0.0,0.0,0.0,0.0,0.0,5.9275154486,-0.0674087504911,7.65234422351,0.0,0.0,0.0,0.0,0.0,0.0,0.0,0.0,0.0
57896000000,263,57896000000,imu_link,-0.00226488283591,-0.370514160425,0.00850400779394,0.928785125356,0.0,0.0,0.0,0.0,0.0,0.0,0.0,0.0,0.0,-0.00261614331227,-0.00930903716714,-0.0007656979621,0.0,0.0,0.0,0.0,0.0,0.0,0.0,0.0,0.0,5.92924128615,-0.0676526703204,7.64558230964,0.0,0.0,0.0,0.0,0.0,0.0,0.0,0.0,0.0
57900000000,264,57900000000,imu_link,-0.00227015434901,-0.370531280589,0.00850049012042,0.92877831487,0.0,0.0,0.0,0.0,0.0,0.0,0.0,0.0,0.0,-0.00318023288151,-0.00918576935281,-0.000647425664201,0.0,0.0,0.0,0.0,0.0,0.0,0.0,0.0,0.0,5.93221681234,-0.0679336539817,7.63905306097,0.0,0.0,0.0,0.0,0.0,0.0,0.0,0.0,0.0
57904000000,265,57904000000,imu_link,-0.00227649341136,-0.370547857537,0.00849676736422,0.92877171996,0.0,0.0,0.0,0.0,0.0,0.0,0.0,0.0,0.0,-0.00371143246137,-0.00888879708475,-0.00054518330604,0.0,0.0,0.0,0.0,0.0,0.0,0.0,0.0,0.0,5.93596057682,-0.0682638223502,7.63444719597,0.0,0.0,0.0,0.0,0.0,0.0,0.0,0.0,0.0
57908000000,266,57908000000,imu_link,-0.00228370791198,-0.37056371924,0.00849288247992,0.928765409352,0.0,0.0,0.0,0.0,0.0,0.0,0.0,0.0,0.0,-0.00414464948348,-0.00850006996714,-0.000458671106783,0.0,0.0,0.0,0.0,0.0,0.0,0.0,0.0,0.0,5.93873845602,-0.0685819739513,7.62882192962,0.0,0.0,0.0,0.0,0.0,0.0,0.0,0.0,0.0
57912000000,267,57912000000,imu_link,-0.00229155254217,-0.370578953211,0.00848890334488,0.928759348133,0.0,0.0,0.0,0.0,0.0,0.0,0.0,0.0,0.0,-0.00445178330967,-0.00815957103495,-0.000386030184276,0.0,0.0,0.0,0.0,0.0,0.0,0.0,0.0,0.0,5.94102426759,-0.068873351956,7.62425027153,0.0,0.0,0.0,0.0,0.0,0.0,0.0,0.0,0.0
57916000000,268,57916000000,imu_link,-0.00229983247786,-0.37059381695,0.00848490388206,0.92875343338,0.0,0.0,0.0,0.0,0.0,0.0,0.0,0.0,0.0,-0.00465595761681,-0.00795863334592,-0.000315009927812,0.0,0.0,0.0,0.0,0.0,0.0,0.0,0.0,0.0,5.94386518949,-0.0691208645904,7.62207808044,0.0,0.0,0.0,0.0,0.0,0.0,0.0,0.0,0.0
57920000000,269,57920000000,imu_link,-0.00230807319616,-0.370608462019,0.00848102225604,0.92874760454,0.0,0.0,0.0,0.0,0.0,0.0,0.0,0.0,0.0,-0.00461488468971,-0.00784147083791,-0.000267669150208,0.0,0.0,0.0,0.0,0.0,0.0,0.0,0.0,0.0,5.94690074997,-0.069385281656,7.61956332779,0.0,0.0,0.0,0.0,0.0,0.0,0.0,0.0,0.0
57924000000,270,57924000000,imu_link,-0.00231554360691,-0.370622941406,0.0084774376155,0.928741840671,0.0,0.0,0.0,0.0,0.0,0.0,0.0,0.0,0.0,-0.00420136381949,-0.00775610215681,-0.000272582430291,0.0,0.0,0.0,0.0,0.0,0.0,0.0,0.0,0.0,5.95155561252,-0.0696654185258,7.61972091119,0.0,0.0,0.0,0.0,0.0,0.0,0.0,0.0,0.0
57928000000,271,57928000000,imu_link,-0.00232173054712,-0.370637121767,0.00847426642832,0.928736195237,0.0,0.0,0.0,0.0,0.0,0.0,0.0,0.0,0.0,-0.00352733516938,-0.00760121473906,-0.000318584338641,0.0,0.0,0.0,0.0,0.0,0.0,0.0,0.0,0.0,5.95500870514,-0.0697236293122,7.61596547463,0.0,0.0,0.0,0.0,0.0,0.0,0.0,0.0,0.0
57932000000,272,57932000000,imu_link,-0.00232668530109,-0.370651099462,0.00847148083846,0.928730629955,0.0,0.0,0.0,0.0,0.0,0.0,0.0,0.0,0.0,-0.00288273707377,-0.00749791789324,-0.000367976561124,0.0,0.0,0.0,0.0,0.0,0.0,0.0,0.0,0.0,5.95787953217,-0.0695684249283,7.61276957441,0.0,0.0,0.0,0.0,0.0,0.0,0.0,0.0,0.0
57936000000,273,57936000000,imu_link,-0.00233043908546,-0.370664934007,0.00846904044104,0.928725121392,0.0,0.0,0.0,0.0,0.0,0.0,0.0,0.0,0.0,-0.00226040314404,-0.00742642128299,-0.000430325241324,0.0,0.0,0.0,0.0,0.0,0.0,0.0,0.0,0.0,5.95957122747,-0.0694230284777,7.6066813919,0.0,0.0,0.0,0.0,0.0,0.0,0.0,0.0,0.0
57940000000,274,57940000000,imu_link,-0.00233299845101,-0.370678433023,0.00846692100802,0.928719746564,0.0,0.0,0.0,0.0,0.0,0.0,0.0,0.0,0.0,-0.00164469800243,-0.00725126037594,-0.000502821311547,0.0,0.0,0.0,0.0,0.0,0.0,0.0,0.0,0.0,5.96147096411,-0.0693198910993,7.59937021857,0.0,0.0,0.0,0.0,0.0,0.0,0.0,0.0,0.0
57944000000,275,57944000000,imu_link,-0.00233430690028,-0.370691339821,0.00846512627112,0.928714608063,0.0,0.0,0.0,0.0,0.0,0.0,0.0,0.0,0.0,-0.00100086094445,-0.00693813208901,-0.000584198969916,0.0,0.0,0.0,0.0,0.0,0.0,0.0,0.0,0.0,5.96370515836,-0.0692342712391,7.5923760692,0.0,0.0,0.0,0.0,0.0,0.0,0.0,0.0,0.0
57948000000,276,57948000000,imu_link,-0.00233446036672,-0.370703396062,0.00846364830285,0.928709808875,0.0,0.0,0.0,0.0,0.0,0.0,0.0,0.0,0.0,-0.000401828473567,-0.00648553765238,-0.000651619632464,0.0,0.0,0.0,0.0,0.0,0.0,0.0,0.0,0.0,5.96629504937,-0.0691789875444,7.58632428042,0.0,0.0,0.0,0.0,0.0,0.0,0.0,0.0,0.0
57952000000,277,57952000000,imu_link,-0.00233378806329,-0.370714658206,0.00846244374164,0.92870532607,0.0,0.0,0.0,0.0,0.0,0.0,0.0,0.0,0.0,3.60280495302e-05,-0.00606196648695,-0.000678131563599,0.0,0.0,0.0,0.0,0.0,0.0,0.0,0.0,0.0,5.97017184297,-0.06915596901,7.5856763538,0.0,0.0,0.0,0.0,0.0,0.0,0.0,0.0,0.0
57956000000,278,57956000000,imu_link,-0.00233265278499,-0.370725628594,0.00846143763558,0.928700958925,0.0,0.0,0.0,0.0,0.0,0.0,0.0,0.0,0.0,0.000289166230655,-0.00590724094189,-0.000671943099276,0.0,0.0,0.0,0.0,0.0,0.0,0.0,0.0,0.0,5.97432352713,-0.0691840082929,7.58910625698,0.0,0.0,0.0,0.0,0.0,0.0,0.0,0.0,0.0
57960000000,279,57960000000,imu_link,-0.00233151291555,-0.37073716818,0.00846052727306,0.928696363542,0.0,0.0,0.0,0.0,0.0,0.0,0.0,0.0,0.0,0.000306371102295,-0.00621398599426,-0.000628033832768,0.0,0.0,0.0,0.0,0.0,0.0,0.0,0.0,0.0,5.97834414883,-0.0692493330562,7.59453434958,0.0,0.0,0.0,0.0,0.0,0.0,0.0,0.0,0.0
57964000000,280,57964000000,imu_link,-0.00233065759893,-0.370750158218,0.00845963437481,0.928691188072,0.0,0.0,0.0,0.0,0.0,0.0,0.0,0.0,0.0,0.000170664810752,-0.00699384714847,-0.000566414129144,0.0,0.0,0.0,0.0,0.0,0.0,0.0,0.0,0.0,5.98354420616,-0.0694133229121,7.60252378397,0.0,0.0,0.0,0.0,0.0,0.0,0.0,0.0,0.0
57968000000,281,57968000000,imu_link,-0.00233027705197,-0.370764995104,0.00845870800299,0.928685274177,0.0,0.0,0.0,0.0,0.0,0.0,0.0,0.0,0.0,-6.4669893221e-05,-0.00798626152083,-0.000492975751249,0.0,0.0,0.0,0.0,0.0,0.0,0.0,0.0,0.0,5.98708936826,-0.0696139082687,7.60283783436,0.0,0.0,0.0,0.0,0.0,0.0,0.0,0.0,0.0
57972000000,282,57972000000,imu_link,-0.00233004024801,-0.370781642211,0.00845778245148,0.928678636896,0.0,0.0,0.0,0.0,0.0,0.0,0.0,0.0,0.0,-0.000139762738291,-0.00896032084859,-0.000464997112095,0.0,0.0,0.0,0.0,0.0,0.0,0.0,0.0,0.0,5.99097915428,-0.0699316598383,7.60071824454,0.0,0.0,0.0,0.0,0.0,0.0,0.0,0.0,0.0
57976000000,283,57976000000,imu_link,-0.00232943117597,-0.370799856577,0.00845689573959,0.928671374076,0.0,0.0,0.0,0.0,0.0,0.0,0.0,0.0,0.0,3.29399453049e-05,-0.00980564899498,-0.000515157987363,0.0,0.0,0.0,0.0,0.0,0.0,0.0,0.0,0.0,5.99423485572,-0.0701980759643,7.59586854017,0.0,0.0,0.0,0.0,0.0,0.0,0.0,0.0,0.0
57980000000,284,57980000000,imu_link,-0.00232824298598,-0.370819391921,0.00845607019804,0.928663584263,0.0,0.0,0.0,0.0,0.0,0.0,0.0,0.0,0.0,0.000306986577153,-0.0105192507014,-0.000593433044491,0.0,0.0,0.0,0.0,0.0,0.0,0.0,0.0,0.0,5.99747831175,-0.0703197166828,7.59101665326,0.0,0.0,0.0,0.0,0.0,0.0,0.0,0.0,0.0
57984000000,285,57984000000,imu_link,-0.00232659325711,-0.370840109765,0.00845531448338,0.928655322286,0.0,0.0,0.0,0.0,0.0,0.0,0.0,0.0,0.0,0.000528691016933,-0.0111578995078,-0.000645964231062,0.0,0.0,0.0,0.0,0.0,0.0,0.0,0.0,0.0,5.99991498575,-0.0703621576758,7.58540474621,0.0,0.0,0.0,0.0,0.0,0.0,0.0,0.0,0.0
57988000000,286,57988000000,imu_link,-0.00232475931409,-0.370862068229,0.00845463413328,0.928646564094,0.0,0.0,0.0,0.0,0.0,0.0,0.0,0.0,0.0,0.000622378683297,-0.0118268287904,-0.00064447276025,0.0,0.0,0.0,0.0,0.0,0.0,0.0,0.0,0.0,6.00350251508,-0.0704144037788,7.58404532637,0.0,0.0,0.0,0.0,0.0,0.0,0.0,0.0,0.0
57992000000,287,57992000000,imu_link,-0.0023231689669,-0.370885413256,0.00845399145742,0.928637250571,0.0,0.0,0.0,0.0,0.0,0.0,0.0,0.0,0.0,0.000509750500331,-0.0125726315991,-0.000581073655229,0.0,0.0,0.0,0.0,0.0,0.0,0.0,0.0,0.0,6.00814680789,-0.0705352931775,7.58604584284,0.0,0.0,0.0,0.0,0.0,0.0,0.0,0.0,0.0
57996000000,288,57996000000,imu_link,-0.0023221407416,-0.370909937681,0.00845334441754,0.928627463927,0.0,0.0,0.0,0.0,0.0,0.0,0.0,0.0,0.0,0.000242402678568,-0.0132056034969,-0.000478228643498,0.0,0.0,0.0,0.0,0.0,0.0,0.0,0.0,0.0,6.01066173883,-0.0707239739153,7.58012456012,0.0,0.0,0.0,0.0,0.0,0.0,0.0,0.0,0.0
58000000000,289,58000000000,imu_link,-0.00232182164941,-0.370935068988,0.00845267890391,0.928617432509,0.0,0.0,0.0,0.0,0.0,0.0,0.0,0.0,0.0,-9.31329022066e-05,-0.013529763394,-0.000354964042047,0.0,0.0,0.0,0.0,0.0,0.0,0.0,0.0,0.0,6.01447460315,-0.0710028650701,7.57488076964,0.0,0.0,0.0,0.0,0.0,0.0,0.0,0.0,0.0
58004000000,290,58004000000,imu_link,-0.00232211346097,-0.37096020098,0.00845201610937,0.928607398475,0.0,0.0,0.0,0.0,0.0,0.0,0.0,0.0,0.0,-0.000376282469111,-0.01352798776,-0.00024038848325,0.0,0.0,0.0,0.0,0.0,0.0,0.0,0.0,0.0,6.01828536838,-0.0713196311324,7.56960060148,0.0,0.0,0.0,0.0,0.0,0.0,0.0,0.0,0.0
58008000000,291,58008000000,imu_link,-0.0023227338105,-0.370984839994,0.00845142303071,0.928597559146,0.0,0.0,0.0,0.0,0.0,0.0,0.0,0.0,0.0,-0.000513583563857,-0.013261674922,-0.00014733232859,0.0,0.0,0.0,0.0,0.0,0.0,0.0,0.0,0.0,6.02138030644,-0.071635419081,7.56378728251,0.0,0.0,0.0,0.0,0.0,0.0,0.0,0.0,0.0
58012000000,292,58012000000,imu_link,-0.0023233758514,-0.37100863561,0.00845095125327,0.928588054872,0.0,0.0,0.0,0.0,0.0,0.0,0.0,0.0,0.0,-0.000497201302141,-0.0128079854425,-8.74250913471e-05,0.0,0.0,0.0,0.0,0.0,0.0,0.0,0.0,0.0,6.02418998235,-0.0719082660433,7.55896020992,0.0,0.0,0.0,0.0,0.0,0.0,0.0,0.0,0.0
58016000000,293,58016000000,imu_link,-0.00232380583172,-0.371031452793,0.00845063483169,0.928578939959,0.0,0.0,0.0,0.0,0.0,0.0,0.0,0.0,0.0,-0.000365336999612,-0.0122825529377,-5.51410520347e-05,0.0,0.0,0.0,0.0,0.0,0.0,0.0,0.0,0.0,6.0264688157,-0.0721574684575,7.55420918334,0.0,0.0,0.0,0.0,0.0,0.0,0.0,0.0,0.0
58020000000,294,58020000000,imu_link,-0.00232382836037,-0.371053496837,0.00845048416515,0.928570132852,0.0,0.0,0.0,0.0,0.0,0.0,0.0,0.0,0.0,-0.000141786910585,-0.0118684039777,-5.41736806066e-05,0.0,0.0,0.0,0.0,0.0,0.0,0.0,0.0,0.0,6.02888071011,-0.0723134162394,7.55240152545,0.0,0.0,0.0,0.0,0.0,0.0,0.0,0.0,0.0
58024000000,295,58024000000,imu_link,-0.00232311851242,-0.371075197485,0.00845050289729,0.928561462658,0.0,0.0,0.0,0.0,0.0,0.0,0.0,0.0,0.0,0.000231282598442,-0.0116868608311,-0.000111579353625,0.0,0.0,0.0,0.0,0.0,0.0,0.0,0.0,0.0,6.03245448396,-0.0724303084247,7.55478220612,0.0,0.0,0.0,0.0,0.0,0.0,0.0,0.0,0.0
58028000000,296,58028000000,imu_link,-0.00232142088138,-0.371096578989,0.00845069347837,0.928552920327,0.0,0.0,0.0,0.0,0.0,0.0,0.0,0.0,0.0,0.000723272684174,-0.0115193382954,-0.000215233653257,0.0,0.0,0.0,0.0,0.0,0.0,0.0,0.0,0.0,6.03501897388,-0.0724923647891,7.55180321754,0.0,0.0,0.0,0.0,0.0,0.0,0.0,0.0,0.0
58032000000,297,58032000000,imu_link,-0.00231870378435,-0.371117466174,0.00845105191883,0.928544576008,0.0,0.0,0.0,0.0,0.0,0.0,0.0,0.0,0.0,0.00123005126644,-0.0112575991642,-0.000326723569083,0.0,0.0,0.0,0.0,0.0,0.0,0.0,0.0,0.0,6.03736625543,-0.0724834879806,7.5468804743,0.0,0.0,0.0,0.0,0.0,0.0,0.0,0.0,0.0
58036000000,298,58036000000,imu_link,-0.00231512704953,-0.371137688669,0.00845155326699,0.928536497658,0.0,0.0,0.0,0.0,0.0,0.0,0.0,0.0,0.0,0.0016587920661,-0.0109034470026,-0.000420242035832,0.0,0.0,0.0,0.0,0.0,0.0,0.0,0.0,0.0,6.03911673704,-0.0724378075928,7.54074505017,0.0,0.0,0.0,0.0,0.0,0.0,0.0,0.0,0.0
58040000000,299,58040000000,imu_link,-0.00231104148011,-0.371157198558,0.00845216085684,0.928528703931,0.0,0.0,0.0,0.0,0.0,0.0,0.0,0.0,0.0,0.00191808373558,-0.0105220630055,-0.000465719105065,0.0,0.0,0.0,0.0,0.0,0.0,0.0,0.0,0.0,6.04222108611,-0.0724663790645,7.53863641954,0.0,0.0,0.0,0.0,0.0,0.0,0.0,0.0,0.0
58044000000,300,58044000000,imu_link,-0.00230680007294,-0.371176235763,0.00845283690641,0.928521098428,0.0,0.0,0.0,0.0,0.0,0.0,0.0,0.0,0.0,0.00200535340835,-0.0102684201215,-0.000463105104508,0.0,0.0,0.0,0.0,0.0,0.0,0.0,0.0,0.0,6.04529517223,-0.0725919480681,7.53852534975,0.0,0.0,0.0,0.0,0.0,0.0,0.0,0.0,0.0
58048000000,301,58048000000,imu_link,-0.00230282450484,-0.371195044997,0.00845349474058,0.928513583097,0.0,0.0,0.0,0.0,0.0,0.0,0.0,0.0,0.0,0.00187962175704,-0.010144702593,-0.000422343385921,0.0,0.0,0.0,0.0,0.0,0.0,0.0,0.0,0.0,6.04799129345,-0.0727339892124,7.53771637133,0.0,0.0,0.0,0.0,0.0,0.0,0.0,0.0,0.0
58052000000,302,58052000000,imu_link,-0.00229932988088,-0.37121386827,0.00845409377563,0.928506061038,0.0,0.0,0.0,0.0,0.0,0.0,0.0,0.0,0.0,0.00164536012013,-0.010150368311,-0.000360366964928,0.0,0.0,0.0,0.0,0.0,0.0,0.0,0.0,0.0,6.0516528356,-0.072968303418,7.53906589749,0.0,0.0,0.0,0.0,0.0,0.0,0.0,0.0,0.0
58056000000,303,58056000000,imu_link,-0.00229641579423,-0.371232971629,0.00845460068706,0.928498425942,0.0,0.0,0.0,0.0,0.0,0.0,0.0,0.0,0.0,0.00135743124041,-0.0102988197776,-0.000295228075855,0.0,0.0,0.0,0.0,0.0,0.0,0.0,0.0,0.0,6.05370900648,-0.073216532531,7.53684977718,0.0,0.0,0.0,0.0,0.0,0.0,0.0,0.0,0.0
58060000000,304,58060000000,imu_link,-0.00229428848425,-0.371252548384,0.00845499027393,0.928490600221,0.0,0.0,0.0,0.0,0.0,0.0,0.0,0.0,0.0,0.000968173351403,-0.0105505163002,-0.000203394910657,0.0,0.0,0.0,0.0,0.0,0.0,0.0,0.0,0.0,6.05621112037,-0.0734674329361,7.53477493251,0.0,0.0,0.0,0.0,0.0,0.0,0.0,0.0,0.0
58064000000,305,58064000000,imu_link,-0.00229324031753,-0.371272720577,0.0084551921236,0.928482534962,0.0,0.0,0.0,0.0,0.0,0.0,0.0,0.0,0.0,0.000429545209104,-0.0108666325109,-8.99040966323e-05,0.0,0.0,0.0,0.0,0.0,0.0,0.0,0.0,0.0,6.05958389178,-0.0737064121783,7.53412510367,0.0,0.0,0.0,0.0,0.0,0.0,0.0,0.0,0.0
58068000000,306,58068000000,imu_link,-0.00229350826027,-0.371293551822,0.00845515044878,0.92847420461,0.0,0.0,0.0,0.0,0.0,0.0,0.0,0.0,0.0,-0.000229744275334,-0.0112159589446,4.17245812746e-05,0.0,0.0,0.0,0.0,0.0,0.0,0.0,0.0,0.0,6.06281112983,-0.0739740209531,7.53293123333,0.0,0.0,0.0,0.0,0.0,0.0,0.0,0.0,0.0
58072000000,307,58072000000,imu_link,-0.00229500164428,-0.371315089023,0.00845488405773,0.928465590405,0.0,0.0,0.0,0.0,0.0,0.0,0.0,0.0,0.0,-0.000843667417601,-0.011590948502,0.000165292638745,0.0,0.0,0.0,0.0,0.0,0.0,0.0,0.0,0.0,6.06531111909,-0.0743105380475,7.53012068139,0.0,0.0,0.0,0.0,0.0,0.0,0.0,0.0,0.0
58076000000,308,58076000000,imu_link,-0.00229703783059,-0.371337308287,0.00845450776335,0.928456702485,0.0,0.0,0.0,0.0,0.0,0.0,0.0,0.0,0.0,-0.00111925589903,-0.0119559806752,0.000215421703246,0.0,0.0,0.0,0.0,0.0,0.0,0.0,0.0,0.0,6.06874112083,-0.0747442568083,7.52910885787,0.0,0.0,0.0,0.0,0.0,0.0,0.0,0.0,0.0
58080000000,309,58080000000,imu_link,-0.0022988344249,-0.371360202311,0.00845418184,0.928447544188,0.0,0.0,0.0,0.0,0.0,0.0,0.0,0.0,0.0,-0.00100184109111,-0.0123204944849,0.00019468861685,0.0,0.0,0.0,0.0,0.0,0.0,0.0,0.0,0.0,6.07208887025,-0.0750886780521,7.52791106233,0.0,0.0,0.0,0.0,0.0,0.0,0.0,0.0,0.0
58084000000,310,58084000000,imu_link,-0.00230010185134,-0.3713839984,0.00845401428262,0.928438024268,0.0,0.0,0.0,0.0,0.0,0.0,0.0,0.0,0.0,-0.000731012147534,-0.0128088200654,0.000170441684759,0.0,0.0,0.0,0.0,0.0,0.0,0.0,0.0,0.0,6.07475121894,-0.0752628744891,7.52680373496,0.0,0.0,0.0,0.0,0.0,0.0,0.0,0.0,0.0
58088000000,311,58088000000,imu_link,-0.00230101637747,-0.371409012917,0.00845402431913,0.928428015476,0.0,0.0,0.0,0.0,0.0,0.0,0.0,0.0,0.0,-0.000539923879932,-0.0134669126821,0.00018801859374,0.0,0.0,0.0,0.0,0.0,0.0,0.0,0.0,0.0,6.07903968295,-0.0753718572908,7.53009364761,0.0,0.0,0.0,0.0,0.0,0.0,0.0,0.0,0.0
58096000000,312,58096000000,imu_link,-0.0023028605816,-0.371463266886,0.00845433553059,0.928406302434,0.0,0.0,0.0,0.0,0.0,0.0,0.0,0.0,0.0,-0.000540180878285,-0.0149642025772,0.0002787774139,0.0,0.0,0.0,0.0,0.0,0.0,0.0,0.0,0.0,6.08393070594,-0.0755196958044,7.52868711152,0.0,0.0,0.0,0.0,0.0,0.0,0.0,0.0,0.0
58100000000,313,58100000000,imu_link,-0.00230377439416,-0.371492117502,0.00845454911425,0.928394754324,0.0,0.0,0.0,0.0,0.0,0.0,0.0,0.0,0.0,-0.000519778666939,-0.0155337790646,0.000284466433152,0.0,0.0,0.0,0.0,0.0,0.0,0.0,0.0,0.0,6.08635541823,-0.0757343732111,7.51936671636,0.0,0.0,0.0,0.0,0.0,0.0,0.0,0.0,0.0
58104000000,314,58104000000,imu_link,-0.00230462701092,-0.371521624704,0.00845477676817,0.928382942444,0.0,0.0,0.0,0.0,0.0,0.0,0.0,0.0,0.0,-0.000491837643544,-0.0158878338904,0.000279989643685,0.0,0.0,0.0,0.0,0.0,0.0,0.0,0.0,0.0,6.08847351682,-0.0758763477397,7.51246669284,0.0,0.0,0.0,0.0,0.0,0.0,0.0,0.0,0.0
58108000000,315,58108000000,imu_link,-0.0023055385781,-0.371551121902,0.00845499610089,0.928371133409,0.0,0.0,0.0,0.0,0.0,0.0,0.0,0.0,0.0,-0.000520702110484,-0.0158824029537,0.000287077198538,0.0,0.0,0.0,0.0,0.0,0.0,0.0,0.0,0.0,6.09118138224,-0.0760242657782,7.50461698285,0.0,0.0,0.0,0.0,0.0,0.0,0.0,0.0,0.0
58112000000,316,58112000000,imu_link,-0.00230664678674,-0.371579833361,0.00845517445688,0.928359637665,0.0,0.0,0.0,0.0,0.0,0.0,0.0,0.0,0.0,-0.000615909849414,-0.0154585938469,0.000304168903566,0.0,0.0,0.0,0.0,0.0,0.0,0.0,0.0,0.0,6.0948446964,-0.0761691755854,7.49851073043,0.0,0.0,0.0,0.0,0.0,0.0,0.0,0.0,0.0
58116000000,317,58116000000,imu_link,-0.00230804720358,-0.371607406073,0.00845529622831,0.928348596506,0.0,0.0,0.0,0.0,0.0,0.0,0.0,0.0,0.0,-0.000756721400092,-0.0148442526674,0.00033158437696,0.0,0.0,0.0,0.0,0.0,0.0,0.0,0.0,0.0,6.09610442976,-0.0762664071626,7.49084408849,0.0,0.0,0.0,0.0,0.0,0.0,0.0,0.0,0.0
58120000000,318,58120000000,imu_link,-0.00230964399123,-0.371633937134,0.00845540647751,0.928337971008,0.0,0.0,0.0,0.0,0.0,0.0,0.0,0.0,0.0,-0.000845129146732,-0.014282669952,0.000362167296634,0.0,0.0,0.0,0.0,0.0,0.0,0.0,0.0,0.0,6.09795429189,-0.076411651181,7.48813295675,0.0,0.0,0.0,0.0,0.0,0.0,0.0,0.0,0.0
58124000000,319,58124000000,imu_link,-0.00231125521258,-0.371659848311,0.00845560669497,0.928327591946,0.0,0.0,0.0,0.0,0.0,0.0,0.0,0.0,0.0,-0.000832205912509,-0.0139491898724,0.000406283802009,0.0,0.0,0.0,0.0,0.0,0.0,0.0,0.0,0.0,6.09971817633,-0.0765519980036,7.48755301751,0.0,0.0,0.0,0.0,0.0,0.0,0.0,0.0,0.0
58128000000,320,58128000000,imu_link,-0.00231280303056,-0.371685303401,0.0084559451162,0.928317393551,0.0,0.0,0.0,0.0,0.0,0.0,0.0,0.0,0.0,-0.000774956937735,-0.0137043455083,0.000458413984361,0.0,0.0,0.0,0.0,0.0,0.0,0.0,0.0,0.0,6.10120324791,-0.0766690771017,7.48432735413,0.0,0.0,0.0,0.0,0.0,0.0,0.0,0.0,0.0
58132000000,321,58132000000,imu_link,-0.00231417570883,-0.371710006696,0.0084564632959,0.928307494175,0.0,0.0,0.0,0.0,0.0,0.0,0.0,0.0,0.0,-0.000656733180001,-0.0133007714154,0.000508907148618,0.0,0.0,0.0,0.0,0.0,0.0,0.0,0.0,0.0,6.10366578606,-0.0768314374952,7.47975841043,0.0,0.0,0.0,0.0,0.0,0.0,0.0,0.0,0.0
58136000000,322,58136000000,imu_link,-0.00231515337888,-0.371733499471,0.00845719148009,0.928298077855,0.0,0.0,0.0,0.0,0.0,0.0,0.0,0.0,0.0,-0.000428680941507,-0.0126510381846,0.000532325469152,0.0,0.0,0.0,0.0,0.0,0.0,0.0,0.0,0.0,6.1046403583,-0.0770389926466,7.47089678841,0.0,0.0,0.0,0.0,0.0,0.0,0.0,0.0,0.0
58140000000,323,58140000000,imu_link,-0.00231547323882,-0.371755568196,0.00845815491377,0.928289230636,0.0,0.0,0.0,0.0,0.0,0.0,0.0,0.0,0.0,-7.29534469161e-05,-0.0118873439338,0.000518493215243,0.0,0.0,0.0,0.0,0.0,0.0,0.0,0.0,0.0,6.10647995112,-0.0772204102012,7.46627672005,0.0,0.0,0.0,0.0,0.0,0.0,0.0,0.0,0.0
58144000000,324,58144000000,imu_link,-0.00231499176091,-0.37177640509,0.00845934388238,0.9282808761,0.0,0.0,0.0,0.0,0.0,0.0,0.0,0.0,0.0,0.000346685036622,-0.0112276676126,0.000473565675998,0.0,0.0,0.0,0.0,0.0,0.0,0.0,0.0,0.0,6.10818138555,-0.0773347225327,7.46446152743,0.0,0.0,0.0,0.0,0.0,0.0,0.0,0.0,0.0
58148000000,325,58148000000,imu_link,-0.00231388407272,-0.371796352898,0.00846069274696,0.928272877224,0.0,0.0,0.0,0.0,0.0,0.0,0.0,0.0,0.0,0.000671229544441,-0.0107517276891,0.000430899544215,0.0,0.0,0.0,0.0,0.0,0.0,0.0,0.0,0.0,6.10981005129,-0.0773614745889,7.463293451,0.0,0.0,0.0,0.0,0.0,0.0,0.0,0.0,0.0
58152000000,326,58152000000,imu_link,-0.00231256344375,-0.371815705221,0.00846209985833,0.928265116369,0.0,0.0,0.0,0.0,0.0,0.0,0.0,0.0,0.0,0.000783685576136,-0.0104320617236,0.000418030734109,0.0,0.0,0.0,0.0,0.0,0.0,0.0,0.0,0.0,6.1124360205,-0.0774000123054,7.46333034062,0.0,0.0,0.0,0.0,0.0,0.0,0.0,0.0,0.0
58156000000,327,58156000000,imu_link,-0.00231169113928,-0.371834782845,0.0084634465005,0.928257464513,0.0,0.0,0.0,0.0,0.0,0.0,0.0,0.0,0.0,0.000565650175697,-0.0102823343082,0.000473168498145,0.0,0.0,0.0,0.0,0.0,0.0,0.0,0.0,0.0,6.11524739935,-0.0773917390125,7.46421187546,0.0,0.0,0.0,0.0,0.0,0.0,0.0,0.0,0.0
58160000000,328,58160000000,imu_link,-0.00231186276171,-0.371853972027,0.00846461326194,0.92824976655,0.0,0.0,0.0,0.0,0.0,0.0,0.0,0.0,0.0,4.71653797853e-05,-0.0103380584413,0.000583831023478,0.0,0.0,0.0,0.0,0.0,0.0,0.0,0.0,0.0,6.11810034472,-0.0774467878842,7.46562627163,0.0,0.0,0.0,0.0,0.0,0.0,0.0,0.0,0.0
58164000000,329,58164000000,imu_link,-0.00231354222187,-0.371873554584,0.00846550847505,0.928241909251,0.0,0.0,0.0,0.0,0.0,0.0,0.0,0.0,0.0,-0.000704996858155,-0.0105435625788,0.000738366051473,0.0,0.0,0.0,0.0,0.0,0.0,0.0,0.0,0.0,6.1206822757,-0.0776293167126,7.46560458994,0.0,0.0,0.0,0.0,0.0,0.0,0.0,0.0,0.0
58168000000,330,58168000000,imu_link,-0.00231699869832,-0.371893589868,0.00846609812145,0.928233868438,0.0,0.0,0.0,0.0,0.0,0.0,0.0,0.0,0.0,-0.00158869201439,-0.0107799297645,0.000927211891414,0.0,0.0,0.0,0.0,0.0,0.0,0.0,0.0,0.0,6.12276971831,-0.0779087769939,7.46278404606,0.0,0.0,0.0,0.0,0.0,0.0,0.0,0.0,0.0
58172000000,331,58172000000,imu_link,-0.00232213978897,-0.371913888107,0.00846637140578,0.928225720423,0.0,0.0,0.0,0.0,0.0,0.0,0.0,0.0,0.0,-0.00243061379691,-0.0109144077447,0.00109378066061,0.0,0.0,0.0,0.0,0.0,0.0,0.0,0.0,0.0,6.12502767188,-0.0782892317296,7.45834880625,0.0,0.0,0.0,0.0,0.0,0.0,0.0,0.0,0.0
58176000000,332,58176000000,imu_link,-0.00232876304803,-0.371934211434,0.00846633871955,0.928217560886,0.0,0.0,0.0,0.0,0.0,0.0,0.0,0.0,0.0,-0.00317552414715,-0.0109215643433,0.0012274149496,0.0,0.0,0.0,0.0,0.0,0.0,0.0,0.0,0.0,6.12649671169,-0.0787075140929,7.4516981734,0.0,0.0,0.0,0.0,0.0,0.0,0.0,0.0,0.0
58180000000,333,58180000000,imu_link,-0.00233653669762,-0.371954469531,0.0084660309035,0.928209426537,0.0,0.0,0.0,0.0,0.0,0.0,0.0,0.0,0.0,-0.00376029012952,-0.0108814164442,0.00131362890521,0.0,0.0,0.0,0.0,0.0,0.0,0.0,0.0,0.0,6.12852938957,-0.0791458048599,7.44780119954,0.0,0.0,0.0,0.0,0.0,0.0,0.0,0.0,0.0
58184000000,334,58184000000,imu_link,-0.00234525551407,-0.371974680593,0.00846545244147,0.92820131054,0.0,0.0,0.0,0.0,0.0,0.0,0.0,0.0,0.0,-0.00424905998582,-0.0108518574586,0.00136377761837,0.0,0.0,0.0,0.0,0.0,0.0,0.0,0.0,0.0,6.130538042,-0.0794689071712,7.44490181199,0.0,0.0,0.0,0.0,0.0,0.0,0.0,0.0,0.0
58188000000,335,58188000000,imu_link,-0.00235485698941,-0.371994872462,0.00846460393965,0.928193201866,0.0,0.0,0.0,0.0,0.0,0.0,0.0,0.0,0.0,-0.00470883669823,-0.010837534593,0.00140260686009,0.0,0.0,0.0,0.0,0.0,0.0,0.0,0.0,0.0,6.13196112759,-0.0797092567095,7.44068391653,0.0,0.0,0.0,0.0,0.0,0.0,0.0,0.0,0.0
58192000000,336,58192000000,imu_link,-0.00236528742475,-0.372015153835,0.00846351237954,0.928185056813,0.0,0.0,0.0,0.0,0.0,0.0,0.0,0.0,0.0,-0.00513918408444,-0.0108820452436,0.00144403735406,0.0,0.0,0.0,0.0,0.0,0.0,0.0,0.0,0.0,6.13489491297,-0.0799529780449,7.44048204497,0.0,0.0,0.0,0.0,0.0,0.0,0.0,0.0,0.0
58196000000,337,58196000000,imu_link,-0.00237642127508,-0.372035662548,0.008462225706,0.928176819981,0.0,0.0,0.0,0.0,0.0,0.0,0.0,0.0,0.0,-0.00550299689064,-0.0110014161322,0.00148444670929,0.0,0.0,0.0,0.0,0.0,0.0,0.0,0.0,0.0,6.13560218857,-0.0801729513041,7.43528463043,0.0,0.0,0.0,0.0,0.0,0.0,0.0,0.0,0.0
58200000000,338,58200000000,imu_link,-0.00238788523408,-0.372056746174,0.00846084330017,0.928168352058,0.0,0.0,0.0,0.0,0.0,0.0,0.0,0.0,0.0,-0.00567671151874,-0.0113097034113,0.00150171921822,0.0,0.0,0.0,0.0,0.0,0.0,0.0,0.0,0.0,6.13843214951,-0.0803800296982,7.43628004431,0.0,0.0,0.0,0.0,0.0,0.0,0.0,0.0,0.0
58204000000,339,58204000000,imu_link,-0.00239901250196,-0.372078805395,0.00845948192769,0.928159493019,0.0,0.0,0.0,0.0,0.0,0.0,0.0,0.0,0.0,-0.00552113984615,-0.011836669798,0.00144933614491,0.0,0.0,0.0,0.0,0.0,0.0,0.0,0.0,0.0,6.14214897741,-0.0805426608188,7.44004608243,0.0,0.0,0.0,0.0,0.0,0.0,0.0,0.0,0.0
58208000000,340,58208000000,imu_link,-0.00240930048878,-0.372102001006,0.00845819120978,0.928150179184,0.0,0.0,0.0,0.0,0.0,0.0,0.0,0.0,0.0,-0.00512385413747,-0.0124522897694,0.00132654670733,0.0,0.0,0.0,0.0,0.0,0.0,0.0,0.0,0.0,6.14464640818,-0.0805856492446,7.43893461912,0.0,0.0,0.0,0.0,0.0,0.0,0.0,0.0,0.0
58212000000,341,58212000000,imu_link,-0.00241837225287,-0.372126274166,0.00845702441094,0.928140434573,0.0,0.0,0.0,0.0,0.0,0.0,0.0,0.0,0.0,-0.00454145618639,-0.0130377924876,0.00115829873571,0.0,0.0,0.0,0.0,0.0,0.0,0.0,0.0,0.0,6.14812597248,-0.0805749939708,7.43839189965,0.0,0.0,0.0,0.0,0.0,0.0,0.0,0.0,0.0
58216000000,342,58216000000,imu_link,-0.00242625743756,-0.372151205968,0.00845600987205,0.928130426755,0.0,0.0,0.0,0.0,0.0,0.0,0.0,0.0,0.0,-0.00396557340684,-0.0133976236262,0.00100849590606,0.0,0.0,0.0,0.0,0.0,0.0,0.0,0.0,0.0,6.15051836752,-0.0804384177387,7.43283627774,0.0,0.0,0.0,0.0,0.0,0.0,0.0,0.0,0.0
58220000000,343,58220000000,imu_link,-0.0024334983805,-0.372176168274,0.00845511349074,0.928120406472,0.0,0.0,0.0,0.0,0.0,0.0,0.0,0.0,0.0,-0.00364476106859,-0.0134169655289,0.000943466753276,0.0,0.0,0.0,0.0,0.0,0.0,0.0,0.0,0.0,6.15426799398,-0.0802453967385,7.42885781322,0.0,0.0,0.0,0.0,0.0,0.0,0.0,0.0,0.0
58224000000,344,58224000000,imu_link,-0.00244070270672,-0.372200864303,0.00845426610776,0.928110491788,0.0,0.0,0.0,0.0,0.0,0.0,0.0,0.0,0.0,-0.00361739651622,-0.0132739612132,0.00095926856864,0.0,0.0,0.0,0.0,0.0,0.0,0.0,0.0,0.0,6.15671576251,-0.0801387983179,7.42455380342,0.0,0.0,0.0,0.0,0.0,0.0,0.0,0.0,0.0
58228000000,345,58228000000,imu_link,-0.0024481252569,-0.372225432184,0.00845342455758,0.92810062705,0.0,0.0,0.0,0.0,0.0,0.0,0.0,0.0,0.0,-0.00371697635054,-0.0132042831527,0.00100253212952,0.0,0.0,0.0,0.0,0.0,0.0,0.0,0.0,0.0,6.15845121993,-0.080204851835,7.42223372404,0.0,0.0,0.0,0.0,0.0,0.0,0.0,0.0,0.0
58232000000,346,58232000000,imu_link,-0.00245574617513,-0.372250384752,0.00845259130827,0.928090606602,0.0,0.0,0.0,0.0,0.0,0.0,0.0,0.0,0.0,-0.0038093007709,-0.0134109482576,0.00104349023505,0.0,0.0,0.0,0.0,0.0,0.0,0.0,0.0,0.0,6.16117423254,-0.0803719609572,7.42491637224,0.0,0.0,0.0,0.0,0.0,0.0,0.0,0.0,0.0
58236000000,347,58236000000,imu_link,-0.00246317976574,-0.372276150436,0.00845183934523,0.928080258907,0.0,0.0,0.0,0.0,0.0,0.0,0.0,0.0,0.0,-0.00371108112753,-0.0138500716446,0.00104672899168,0.0,0.0,0.0,0.0,0.0,0.0,0.0,0.0,0.0,6.16288068566,-0.0805893067882,7.42466422959,0.0,0.0,0.0,0.0,0.0,0.0,0.0,0.0,0.0
58240000000,348,58240000000,imu_link,-0.00246994176531,-0.372302800925,0.00845122082344,0.928069555948,0.0,0.0,0.0,0.0,0.0,0.0,0.0,0.0,0.0,-0.00337877409305,-0.0143297868543,0.000984054028103,0.0,0.0,0.0,0.0,0.0,0.0,0.0,0.0,0.0,6.1645398332,-0.0807588339169,7.42156161775,0.0,0.0,0.0,0.0,0.0,0.0,0.0,0.0,0.0
58244000000,349,58244000000,imu_link,-0.00247541843534,-0.372329990319,0.00845080291868,0.928058637448,0.0,0.0,0.0,0.0,0.0,0.0,0.0,0.0,0.0,-0.00274753473693,-0.0146256602902,0.000838126667817,0.0,0.0,0.0,0.0,0.0,0.0,0.0,0.0,0.0,6.16712423776,-0.0808484664744,7.41697573595,0.0,0.0,0.0,0.0,0.0,0.0,0.0,0.0,0.0
58248000000,350,58248000000,imu_link,-0.0024790821866,-0.372356974605,0.00845065258869,0.928047802694,0.0,0.0,0.0,0.0,0.0,0.0,0.0,0.0,0.0,-0.00185550390129,-0.0145228850811,0.000624687201904,0.0,0.0,0.0,0.0,0.0,0.0,0.0,0.0,0.0,6.17001169387,-0.0808067073616,7.41027552691,0.0,0.0,0.0,0.0,0.0,0.0,0.0,0.0,0.0
58252000000,351,58252000000,imu_link,-0.00248080351496,-0.372383094362,0.00845080943504,0.928037316312,0.0,0.0,0.0,0.0,0.0,0.0,0.0,0.0,0.0,-0.000892898882974,-0.0140654513056,0.000405186642001,0.0,0.0,0.0,0.0,0.0,0.0,0.0,0.0,0.0,6.1731706896,-0.080594920462,7.40510938598,0.0,0.0,0.0,0.0,0.0,0.0,0.0,0.0,0.0
58256000000,352,58256000000,imu_link,-0.00248091425966,-0.372408257691,0.0084512372063,0.928027214718,0.0,0.0,0.0,0.0,0.0,0.0,0.0,0.0,0.0,-9.05954968742e-05,-0.0135571481125,0.000230584257546,0.0,0.0,0.0,0.0,0.0,0.0,0.0,0.0,0.0,6.17357604762,-0.0803014509167,7.39875775716,0.0,0.0,0.0,0.0,0.0,0.0,0.0,0.0,0.0
58260000000,353,58260000000,imu_link,-0.00248018778325,-0.37243287621,0.00845181900299,0.928017331811,0.0,0.0,0.0,0.0,0.0,0.0,0.0,0.0,0.0,0.000329140088954,-0.01326735773,0.00014591185106,0.0,0.0,0.0,0.0,0.0,0.0,0.0,0.0,0.0,6.17649694957,-0.0800489309374,7.40212533228,0.0,0.0,0.0,0.0,0.0,0.0,0.0,0.0,0.0
58264000000,354,58264000000,imu_link,-0.00247939512746,-0.372457261363,0.00845246647738,0.928007541385,0.0,0.0,0.0,0.0,0.0,0.0,0.0,0.0,0.0,0.000373179031595,-0.0131422132426,0.000163961760651,0.0,0.0,0.0,0.0,0.0,0.0,0.0,0.0,0.0,6.17931684776,-0.0799210717823,7.40435686725,0.0,0.0,0.0,0.0,0.0,0.0,0.0,0.0,0.0
58268000000,355,58268000000,imu_link,-0.00247921993849,-0.372481490824,0.00845308094639,0.927997811358,0.0,0.0,0.0,0.0,0.0,0.0,0.0,0.0,0.0,8.12584221314e-05,-0.013056072867,0.000263574900717,0.0,0.0,0.0,0.0,0.0,0.0,0.0,0.0,0.0,6.18207613951,-0.0799810026836,7.40429953244,0.0,0.0,0.0,0.0,0.0,0.0,0.0,0.0,0.0
58272000000,356,58272000000,imu_link,-0.00248012722797,-0.372505473423,0.00845360688737,0.927988177602,0.0,0.0,0.0,0.0,0.0,0.0,0.0,0.0,0.0,-0.000436335208035,-0.0129189146372,0.000423998698042,0.0,0.0,0.0,0.0,0.0,0.0,0.0,0.0,0.0,6.18409477408,-0.0802112234546,7.40134559157,0.0,0.0,0.0,0.0,0.0,0.0,0.0,0.0,0.0
58276000000,357,58276000000,imu_link,-0.00248209110353,-0.372528974085,0.00845405262527,0.927978734501,0.0,0.0,0.0,0.0,0.0,0.0,0.0,0.0,0.0,-0.000939249471454,-0.012655223569,0.000583368765253,0.0,0.0,0.0,0.0,0.0,0.0,0.0,0.0,0.0,6.18497776638,-0.0805444693401,7.39454224787,0.0,0.0,0.0,0.0,0.0,0.0,0.0,0.0,0.0
58280000000,358,58280000000,imu_link,-0.00248465574319,-0.372551839355,0.00845450664444,0.92796954411,0.0,0.0,0.0,0.0,0.0,0.0,0.0,0.0,0.0,-0.00121345568203,-0.0123108082505,0.000698832537433,0.0,0.0,0.0,0.0,0.0,0.0,0.0,0.0,0.0,6.18803239113,-0.08096151581,7.39334398846,0.0,0.0,0.0,0.0,0.0,0.0,0.0,0.0,0.0
58284000000,359,58284000000,imu_link,-0.00248714179603,-0.372574206263,0.00845507757709,0.927960552295,0.0,0.0,0.0,0.0,0.0,0.0,0.0,0.0,0.0,-0.00115286102025,-0.0120430635023,0.000738219482703,0.0,0.0,0.0,0.0,0.0,0.0,0.0,0.0,0.0,6.18969365995,-0.0813325495514,7.39142758873,0.0,0.0,0.0,0.0,0.0,0.0,0.0,0.0,0.0
58288000000,360,58288000000,imu_link,-0.00248882580173,-0.372596403571,0.00845585865473,0.927951628183,0.0,0.0,0.0,0.0,0.0,0.0,0.0,0.0,0.0,-0.000740778486425,-0.0119554122157,0.000686236270398,0.0,0.0,0.0,0.0,0.0,0.0,0.0,0.0,0.0,6.1929819568,-0.0816274488492,7.3942602839,0.0,0.0,0.0,0.0,0.0,0.0,0.0,0.0,0.0
58292000000,361,58292000000,imu_link,-0.00248947875091,-0.372618683943,0.00845685623544,0.927942670888,0.0,0.0,0.0,0.0,0.0,0.0,0.0,0.0,0.0,-0.000222451549896,-0.0120047625705,0.000594641405808,0.0,0.0,0.0,0.0,0.0,0.0,0.0,0.0,0.0,6.19511698218,-0.08166811856,7.39388707481,0.0,0.0,0.0,0.0,0.0,0.0,0.0,0.0,0.0
58296000000,362,58296000000,imu_link,-0.00248928796384,-0.372641176546,0.00845803789331,0.927933628329,0.0,0.0,0.0,0.0,0.0,0.0,0.0,0.0,0.0,0.000202309648317,-0.0121229137626,0.000522948351929,0.0,0.0,0.0,0.0,0.0,0.0,0.0,0.0,0.0,6.19632868625,-0.0815504246729,7.39063426056,0.0,0.0,0.0,0.0,0.0,0.0,0.0,0.0,0.0
58300000000,363,58300000000,imu_link,-0.00248864119719,-0.372663868229,0.00845935387643,0.92792450518,0.0,0.0,0.0,0.0,0.0,0.0,0.0,0.0,0.0,0.000437954379175,-0.0122323918011,0.00050040545251,0.0,0.0,0.0,0.0,0.0,0.0,0.0,0.0,0.0,6.19810856282,-0.0814732471549,7.38765057488,0.0,0.0,0.0,0.0,0.0,0.0,0.0,0.0,0.0
58304000000,364,58304000000,imu_link,-0.00248791715952,-0.372686596506,0.00846074254639,0.927915366231,0.0,0.0,0.0,0.0,0.0,0.0,0.0,0.0,0.0,0.000487174657848,-0.0122527309039,0.000519752639288,0.0,0.0,0.0,0.0,0.0,0.0,0.0,0.0,0.0,6.20029308395,-0.08147201909,7.38448726014,0.0,0.0,0.0,0.0,0.0,0.0,0.0,0.0,0.0
58308000000,365,58308000000,imu_link,-0.00248734082276,-0.372709231539,0.00846216094653,0.92790626342,0.0,0.0,0.0,0.0,0.0,0.0,0.0,0.0,0.0,0.000424627112999,-0.0122021479123,0.000561032381266,0.0,0.0,0.0,0.0,0.0,0.0,0.0,0.0,0.0,6.20276497082,-0.0815412640444,7.38229516455,0.0,0.0,0.0,0.0,0.0,0.0,0.0,0.0,0.0
58312000000,366,58312000000,imu_link,-0.00248718398589,-0.372731634199,0.00846356105787,0.927897252349,0.0,0.0,0.0,0.0,0.0,0.0,0.0,0.0,0.0,0.000227687911625,-0.0120754433853,0.000630623804294,0.0,0.0,0.0,0.0,0.0,0.0,0.0,0.0,0.0,6.20487137356,-0.0816742511506,7.37902302857,0.0,0.0,0.0,0.0,0.0,0.0,0.0,0.0,0.0
58316000000,367,58316000000,imu_link,-0.00248774925559,-0.372753818063,0.00846487054595,0.927888327435,0.0,0.0,0.0,0.0,0.0,0.0,0.0,0.0,0.0,-0.000123188480689,-0.011954708645,0.000723062749429,0.0,0.0,0.0,0.0,0.0,0.0,0.0,0.0,0.0,6.20728177684,-0.0818853569912,7.37785872213,0.0,0.0,0.0,0.0,0.0,0.0,0.0,0.0,0.0
58320000000,368,58320000000,imu_link,-0.00248921148266,-0.372775683449,0.0084660622436,0.927879528519,0.0,0.0,0.0,0.0,0.0,0.0,0.0,0.0,0.0,-0.000559775370026,-0.0117795264978,0.000835449571257,0.0,0.0,0.0,0.0,0.0,0.0,0.0,0.0,0.0,6.20875748617,-0.0821496789047,7.37402385169,0.0,0.0,0.0,0.0,0.0,0.0,0.0,0.0,0.0
58324000000,369,58324000000,imu_link,-0.00249155475702,-0.37279709974,0.00846712326254,0.927870908265,0.0,0.0,0.0,0.0,0.0,0.0,0.0,0.0,0.0,-0.000990761766834,-0.0115339809856,0.000938841694846,0.0,0.0,0.0,0.0,0.0,0.0,0.0,0.0,0.0,6.21074188871,-0.08246355093,7.37112298552,0.0,0.0,0.0,0.0,0.0,0.0,0.0,0.0,0.0
58328000000,370,58328000000,imu_link,-0.0024944281391,-0.372817977009,0.00846809747917,0.927862503377,0.0,0.0,0.0,0.0,0.0,0.0,0.0,0.0,0.0,-0.00125032707587,-0.0112414131758,0.000997142074539,0.0,0.0,0.0,0.0,0.0,0.0,0.0,0.0,0.0,6.21289635145,-0.0828286798287,7.36910367738,0.0,0.0,0.0,0.0,0.0,0.0,0.0,0.0,0.0
58332000000,371,58332000000,imu_link,-0.002497412395,-0.372838484004,0.00846907168219,0.927854246421,0.0,0.0,0.0,0.0,0.0,0.0,0.0,0.0,0.0,-0.00130001518384,-0.0110415862777,0.00101763908724,0.0,0.0,0.0,0.0,0.0,0.0,0.0,0.0,0.0,6.21624747632,-0.0831671769137,7.3712604687,0.0,0.0,0.0,0.0,0.0,0.0,0.0,0.0,0.0
58336000000,372,58336000000,imu_link,-0.00250038985277,-0.372858803267,0.0084701110392,0.927846063793,0.0,0.0,0.0,0.0,0.0,0.0,0.0,0.0,0.0,-0.00128382761604,-0.0109407461071,0.0010465181737,0.0,0.0,0.0,0.0,0.0,0.0,0.0,0.0,0.0,6.21773469137,-0.0833187254169,7.36930420453,0.0,0.0,0.0,0.0,0.0,0.0,0.0,0.0,0.0
58340000000,373,58340000000,imu_link,-0.00250370150345,-0.37287917346,0.00847116418462,0.927837859141,0.0,0.0,0.0,0.0,0.0,0.0,0.0,0.0,0.0,-0.00143654007327,-0.0109670820496,0.00111524791421,0.0,0.0,0.0,0.0,0.0,0.0,0.0,0.0,0.0,6.2196593533,-0.0833233970619,7.36891227128,0.0,0.0,0.0,0.0,0.0,0.0,0.0,0.0,0.0
58344000000,374,58344000000,imu_link,-0.00250765751478,-0.372899670572,0.00847217847784,0.927829601561,0.0,0.0,0.0,0.0,0.0,0.0,0.0,0.0,0.0,-0.00174331858656,-0.0110330515868,0.0012174232747,0.0,0.0,0.0,0.0,0.0,0.0,0.0,0.0,0.0,6.22152789264,-0.0833990629192,7.36707360724,0.0,0.0,0.0,0.0,0.0,0.0,0.0,0.0,0.0
58348000000,375,58348000000,imu_link,-0.00251237485343,-0.372920280833,0.00847311384705,0.927821296618,0.0,0.0,0.0,0.0,0.0,0.0,0.0,0.0,0.0,-0.00211176367126,-0.011091050374,0.00132281738013,0.0,0.0,0.0,0.0,0.0,0.0,0.0,0.0,0.0,6.22392316536,-0.0835711204155,7.3656071438,0.0,0.0,0.0,0.0,0.0,0.0,0.0,0.0,0.0
58352000000,376,58352000000,imu_link,-0.00251774781261,-0.372940801253,0.00847395689411,0.927813026294,0.0,0.0,0.0,0.0,0.0,0.0,0.0,0.0,0.0,-0.00243270330585,-0.011040022993,0.00140220143287,0.0,0.0,0.0,0.0,0.0,0.0,0.0,0.0,0.0,6.22578434106,-0.0837882023967,7.36170843296,0.0,0.0,0.0,0.0,0.0,0.0,0.0,0.0,0.0
58356000000,377,58356000000,imu_link,-0.00252362512991,-0.372960993101,0.00847471537933,0.927804886892,0.0,0.0,0.0,0.0,0.0,0.0,0.0,0.0,0.0,-0.00268088963793,-0.0108609403701,0.00145687942833,0.0,0.0,0.0,0.0,0.0,0.0,0.0,0.0,0.0,6.22738971363,-0.0839949275559,7.35684617638,0.0,0.0,0.0,0.0,0.0,0.0,0.0,0.0,0.0
58360000000,378,58360000000,imu_link,-0.00252958188732,-0.372980799249,0.00847544692831,0.927796902025,0.0,0.0,0.0,0.0,0.0,0.0,0.0,0.0,0.0,-0.00272093584245,-0.0106528244995,0.00145902953142,0.0,0.0,0.0,0.0,0.0,0.0,0.0,0.0,0.0,6.23029330871,-0.0842827435996,7.35624816456,0.0,0.0,0.0,0.0,0.0,0.0,0.0,0.0,0.0
58364000000,379,58364000000,imu_link,-0.00253509762271,-0.373000573041,0.00847624431015,0.927788930239,0.0,0.0,0.0,0.0,0.0,0.0,0.0,0.0,0.0,-0.00250391555177,-0.0106373276007,0.00140730840942,0.0,0.0,0.0,0.0,0.0,0.0,0.0,0.0,0.0,6.23296342512,-0.0845620344314,7.35846387587,0.0,0.0,0.0,0.0,0.0,0.0,0.0,0.0,0.0
58368000000,380,58368000000,imu_link,-0.0025396971948,-0.373020752432,0.00847720738568,0.92778079585,0.0,0.0,0.0,0.0,0.0,0.0,0.0,0.0,0.0,-0.00204993562933,-0.010859900701,0.0013134830883,0.0,0.0,0.0,0.0,0.0,0.0,0.0,0.0,0.0,6.2352243896,-0.0847277904515,7.36053210635,0.0,0.0,0.0,0.0,0.0,0.0,0.0,0.0,0.0
58372000000,381,58372000000,imu_link,-0.00254315012421,-0.373041763508,0.00847837816701,0.927772327767,0.0,0.0,0.0,0.0,0.0,0.0,0.0,0.0,0.0,-0.00148322874321,-0.0113130729817,0.00119633334639,0.0,0.0,0.0,0.0,0.0,0.0,0.0,0.0,0.0,6.23849239102,-0.0847859909712,7.36465339683,0.0,0.0,0.0,0.0,0.0,0.0,0.0,0.0,0.0
58376000000,382,58376000000,imu_link,-0.00254537750921,-0.373064039567,0.008479780668,0.927763351698,0.0,0.0,0.0,0.0,0.0,0.0,0.0,0.0,0.0,-0.000877503530833,-0.0120001208232,0.00107578018659,0.0,0.0,0.0,0.0,0.0,0.0,0.0,0.0,0.0,6.23983740348,-0.0847629192421,7.36452717291,0.0,0.0,0.0,0.0,0.0,0.0,0.0,0.0,0.0
58380000000,383,58380000000,imu_link,-0.0025464456256,-0.373087628886,0.00848138816661,0.927753848195,0.0,0.0,0.0,0.0,0.0,0.0,0.0,0.0,0.0,-0.000307740785188,-0.0127128775519,0.000955199006827,0.0,0.0,0.0,0.0,0.0,0.0,0.0,0.0,0.0,6.24106113898,-0.0846692981874,7.36088430279,0.0,0.0,0.0,0.0,0.0,0.0,0.0,0.0,0.0
58384000000,384,58384000000,imu_link,-0.00254646711738,-0.373112443252,0.00848316008361,0.927743852683,0.0,0.0,0.0,0.0,0.0,0.0,0.0,0.0,0.0,0.000202613964318,-0.0133775777804,0.000836754262996,0.0,0.0,0.0,0.0,0.0,0.0,0.0,0.0,0.0,6.24250813165,-0.0845720191446,7.35682642228,0.0,0.0,0.0,0.0,0.0,0.0,0.0,0.0,0.0
