%time,field.header.seq,field.header.stamp,field.header.frame_id,field.orientation.x,field.orientation.y,field.orientation.z,field.orientation.w,field.orientation_covariance0,field.orientation_covariance1,field.orientation_covariance2,field.orientation_covariance3,field.orientation_covariance4,field.orientation_covariance5,field.orientation_covariance6,field.orientation_covariance7,field.orientation_covariance8,field.angular_velocity.x,field.angular_velocity.y,field.angular_velocity.z,field.angular_velocity_covariance0,field.angular_velocity_covariance1,field.angular_velocity_covariance2,field.angular_velocity_covariance3,field.angular_velocity_covariance4,field.angular_velocity_covariance5,field.angular_velocity_covariance6,field.angular_velocity_covariance7,field.angular_velocity_covariance8,field.linear_acceleration.x,field.linear_acceleration.y,field.linear_acceleration.z,field.linear_acceleration_covariance0,field.linear_acceleration_covariance1,field.linear_acceleration_covariance2,field.linear_acceleration_covariance3,field.linear_acceleration_covariance4,field.linear_acceleration_covariance5,field.linear_acceleration_covariance6,field.linear_acceleration_covariance7,field.linear_acceleration_covariance8
31132000000,0,31132000000,imu_link,0.000531212946754,-0.373941184743,0.00187972561491,0.927450362444,0.0,0.0,0.0,0.0,0.0,0.0,0.0,0.0,0.0,-0.00141691877355,-0.0110287178139,-0.000381090849985,0.0,0.0,0.0,0.0,0.0,0.0,0.0,0.0,0.0,6.46772600768,-0.00614564021589,7.12520120179,0.0,0.0,0.0,0.0,0.0,0.0,0.0,0.0,0.0
31136000000,1,31136000000,imu_link,0.00052883564787,-0.373960759692,0.00187794994386,0.927442474684,0.0,0.0,0.0,0.0,0.0,0.0,0.0,0.0,0.0,-0.00145071435017,-0.0105504133223,-0.0003663257533,0.0,0.0,0.0,0.0,0.0,0.0,0.0,0.0,0.0,6.46830349146,-0.00610800190545,7.12577415897,0.0,0.0,0.0,0.0,0.0,0.0,0.0,0.0,0.0
31140000000,2,31140000000,imu_link,0.000526561301484,-0.373979837069,0.00187621712542,0.92743478693,0.0,0.0,0.0,0.0,0.0,0.0,0.0,0.0,0.0,-0.00139454617088,-0.0102823664497,-0.000366023552212,0.0,0.0,0.0,0.0,0.0,0.0,0.0,0.0,0.0,6.46981664099,-0.0061058617304,7.12952833852,0.0,0.0,0.0,0.0,0.0,0.0,0.0,0.0,0.0
31144000000,3,31144000000,imu_link,0.000524841935947,-0.373998784206,0.00187458613344,0.927427150713,0.0,0.0,0.0,0.0,0.0,0.0,0.0,0.0,0.0,-0.00111804276719,-0.0102128292969,-0.000422663314042,0.0,0.0,0.0,0.0,0.0,0.0,0.0,0.0,0.0,6.47217209085,-0.00612799540728,7.13412167472,0.0,0.0,0.0,0.0,0.0,0.0,0.0,0.0,0.0
31148000000,4,31148000000,imu_link,0.000524250574367,-0.374017737699,0.0018730730632,0.927419510602,0.0,0.0,0.0,0.0,0.0,0.0,0.0,0.0,0.0,-0.000572925658948,-0.0102175311578,-0.000578912135067,0.0,0.0,0.0,0.0,0.0,0.0,0.0,0.0,0.0,6.47444969643,-0.00608710972631,7.13698734662,0.0,0.0,0.0,0.0,0.0,0.0,0.0,0.0,0.0
31152000000,5,31152000000,imu_link,0.000525243075425,-0.374036819278,0.00187163302922,0.927411817336,0.0,0.0,0.0,0.0,0.0,0.0,0.0,0.0,0.0,0.000175079300825,-0.0102883298728,-0.000841157517824,0.0,0.0,0.0,0.0,0.0,0.0,0.0,0.0,0.0,6.47674356407,-0.00594727327807,7.1398670004,0.0,0.0,0.0,0.0,0.0,0.0,0.0,0.0,0.0
31156000000,6,31156000000,imu_link,0.000527987080348,-0.374056085017,0.00187021912785,0.927404048283,0.0,0.0,0.0,0.0,0.0,0.0,0.0,0.0,0.0,0.00099199683509,-0.0103895323023,-0.00115648384864,0.0,0.0,0.0,0.0,0.0,0.0,0.0,0.0,0.0,6.47721436908,-0.00569874330451,7.13817402086,0.0,0.0,0.0,0.0,0.0,0.0,0.0,0.0,0.0
31160000000,7,31160000000,imu_link,0.000532456111491,-0.374075592736,0.0018687453955,0.927396180281,0.0,0.0,0.0,0.0,0.0,0.0,0.0,0.0,0.0,0.00178050475629,-0.0105218739704,-0.00150669946738,0.0,0.0,0.0,0.0,0.0,0.0,0.0,0.0,0.0,6.47841001773,-0.00539086300771,7.13780879206,0.0,0.0,0.0,0.0,0.0,0.0,0.0,0.0,0.0
31164000000,8,31164000000,imu_link,0.000538491627255,-0.374095175441,0.00186719685903,0.927388280772,0.0,0.0,0.0,0.0,0.0,0.0,0.0,0.0,0.0,0.00249282781017,-0.0105640214435,-0.00183432842199,0.0,0.0,0.0,0.0,0.0,0.0,0.0,0.0,0.0,6.47854210413,-0.00507012610318,7.13306592049,0.0,0.0,0.0,0.0,0.0,0.0,0.0,0.0,0.0
31168000000,9,31168000000,imu_link,0.000545820111562,-0.374114492329,0.00186562113511,0.927380487269,0.0,0.0,0.0,0.0,0.0,0.0,0.0,0.0,0.0,0.00308750402559,-0.0104221497826,-0.00208895226756,0.0,0.0,0.0,0.0,0.0,0.0,0.0,0.0,0.0,6.4800138297,-0.0047796581234,7.12994769451,0.0,0.0,0.0,0.0,0.0,0.0,0.0,0.0,0.0
31172000000,10,31172000000,imu_link,0.000554106623261,-0.374133339132,0.00186408131528,0.927372882241,0.0,0.0,0.0,0.0,0.0,0.0,0.0,0.0,0.0,0.00353883516455,-0.0101698040593,-0.0022518139587,0.0,0.0,0.0,0.0,0.0,0.0,0.0,0.0,0.0,6.48203980378,-0.00456461310831,7.12943865241,0.0,0.0,0.0,0.0,0.0,0.0,0.0,0.0,0.0
31176000000,11,31176000000,imu_link,0.000563142038367,-0.374151739823,0.00186260254212,0.927365456101,0.0,0.0,0.0,0.0,0.0,0.0,0.0,0.0,0.0,0.00389787754909,-0.0099301653822,-0.00236389264015,0.0,0.0,0.0,0.0,0.0,0.0,0.0,0.0,0.0,6.48176566155,-0.00439657726958,7.12621849496,0.0,0.0,0.0,0.0,0.0,0.0,0.0,0.0,0.0
31180000000,12,31180000000,imu_link,0.000572845292263,-0.374169945572,0.00186121534154,0.927358107506,0.0,0.0,0.0,0.0,0.0,0.0,0.0,0.0,0.0,0.00422483359791,-0.00982586340178,-0.00244649564588,0.0,0.0,0.0,0.0,0.0,0.0,0.0,0.0,0.0,6.48255443132,-0.00427762422551,7.12709753397,0.0,0.0,0.0,0.0,0.0,0.0,0.0,0.0,0.0
31184000000,13,31184000000,imu_link,0.000583053538416,-0.374188291691,0.00185990878729,0.927350701272,0.0,0.0,0.0,0.0,0.0,0.0,0.0,0.0,0.0,0.00447396152691,-0.00990218048484,-0.00250348424656,0.0,0.0,0.0,0.0,0.0,0.0,0.0,0.0,0.0,6.48362512331,-0.00415355622981,7.12920373408,0.0,0.0,0.0,0.0,0.0,0.0,0.0,0.0,0.0
31188000000,14,31188000000,imu_link,0.000593573420275,-0.374206885942,0.00185865251258,0.927343194074,0.0,0.0,0.0,0.0,0.0,0.0,0.0,0.0,0.0,0.0046276650108,-0.0100363979531,-0.00253830985467,0.0,0.0,0.0,0.0,0.0,0.0,0.0,0.0,0.0,6.48441794581,-0.00405913988957,7.12867660245,0.0,0.0,0.0,0.0,0.0,0.0,0.0,0.0,0.0
31192000000,15,31192000000,imu_link,0.000604133046867,-0.374225766364,0.00185742191054,0.92733557076,0.0,0.0,0.0,0.0,0.0,0.0,0.0,0.0,0.0,0.00465066547503,-0.0101908419574,-0.00253364970256,0.0,0.0,0.0,0.0,0.0,0.0,0.0,0.0,0.0,6.48627622252,-0.00399750781052,7.12961419773,0.0,0.0,0.0,0.0,0.0,0.0,0.0,0.0,0.0
31196000000,16,31196000000,imu_link,0.000614525908027,-0.374244860346,0.00185621951233,0.927327860744,0.0,0.0,0.0,0.0,0.0,0.0,0.0,0.0,0.0,0.00457844687096,-0.0103059228669,-0.00248922350223,0.0,0.0,0.0,0.0,0.0,0.0,0.0,0.0,0.0,6.48713885907,-0.00398138934226,7.12770998851,0.0,0.0,0.0,0.0,0.0,0.0,0.0,0.0,0.0
31200000000,17,31200000000,imu_link,0.000624389326399,-0.374264130426,0.00185504386323,0.927320079383,0.0,0.0,0.0,0.0,0.0,0.0,0.0,0.0,0.0,0.004337827188,-0.0104004239154,-0.00237762996004,0.0,0.0,0.0,0.0,0.0,0.0,0.0,0.0,0.0,6.48791911118,-0.00395985817171,7.12613985935,0.0,0.0,0.0,0.0,0.0,0.0,0.0,0.0,0.0
31204000000,18,31204000000,imu_link,0.000633494821903,-0.3742835295,0.00185385064894,0.927312245938,0.0,0.0,0.0,0.0,0.0,0.0,0.0,0.0,0.0,0.00398301824539,-0.0104692823058,-0.00224385398745,0.0,0.0,0.0,0.0,0.0,0.0,0.0,0.0,0.0,6.48921699369,-0.00400628548349,7.12523629512,0.0,0.0,0.0,0.0,0.0,0.0,0.0,0.0,0.0
31208000000,19,31208000000,imu_link,0.00064186925814,-0.37430292906,0.00185261044258,0.927304412335,0.0,0.0,0.0,0.0,0.0,0.0,0.0,0.0,0.0,0.00363526356285,-0.0104688744016,-0.00212883012132,0.0,0.0,0.0,0.0,0.0,0.0,0.0,0.0,0.0,6.48870357544,-0.00411766990108,7.1198597348,0.0,0.0,0.0,0.0,0.0,0.0,0.0,0.0,0.0
31212000000,20,31212000000,imu_link,0.000649920967301,-0.374322108155,0.00185132704815,0.92729666749,0.0,0.0,0.0,0.0,0.0,0.0,0.0,0.0,0.0,0.00347772346369,-0.0103497586934,-0.0020886084949,0.0,0.0,0.0,0.0,0.0,0.0,0.0,0.0,0.0,6.49040155081,-0.00435278717821,7.11841922247,0.0,0.0,0.0,0.0,0.0,0.0,0.0,0.0,0.0
31216000000,21,31216000000,imu_link,0.000657959399338,-0.374340803101,0.00185003338176,0.927289117589,0.0,0.0,0.0,0.0,0.0,0.0,0.0,0.0,0.0,0.0034700298446,-0.0100887893158,-0.00209122389347,0.0,0.0,0.0,0.0,0.0,0.0,0.0,0.0,0.0,6.49065180884,-0.00450721526981,7.11386704705,0.0,0.0,0.0,0.0,0.0,0.0,0.0,0.0,0.0
31220000000,22,31220000000,imu_link,0.000666280199027,-0.374358982245,0.00184877334206,0.927281775147,0.0,0.0,0.0,0.0,0.0,0.0,0.0,0.0,0.0,0.00360765086623,-0.00981106071998,-0.00212884552138,0.0,0.0,0.0,0.0,0.0,0.0,0.0,0.0,0.0,6.49147147417,-0.00459245478069,7.1124269927,0.0,0.0,0.0,0.0,0.0,0.0,0.0,0.0,0.0
31224000000,23,31224000000,imu_link,0.00067497711555,-0.374376931041,0.00184758774489,0.927274524793,0.0,0.0,0.0,0.0,0.0,0.0,0.0,0.0,0.0,0.00379615037832,-0.00968734755588,-0.00216489413832,0.0,0.0,0.0,0.0,0.0,0.0,0.0,0.0,0.0,6.49173543922,-0.00457632648012,7.11275675696,0.0,0.0,0.0,0.0,0.0,0.0,0.0,0.0,0.0
31228000000,24,31228000000,imu_link,0.000684028868188,-0.374395292912,0.00184647475396,0.927267106761,0.0,0.0,0.0,0.0,0.0,0.0,0.0,0.0,0.0,0.00397393166787,-0.00991055503444,-0.00219735809911,0.0,0.0,0.0,0.0,0.0,0.0,0.0,0.0,0.0,6.49316667398,-0.00451594212416,7.11833747067,0.0,0.0,0.0,0.0,0.0,0.0,0.0,0.0,0.0
31232000000,25,31232000000,imu_link,0.000693579001499,-0.374414543822,0.0018454390274,0.927259328709,0.0,0.0,0.0,0.0,0.0,0.0,0.0,0.0,0.0,0.00421876371538,-0.0103905721038,-0.00225419498745,0.0,0.0,0.0,0.0,0.0,0.0,0.0,0.0,0.0,6.49441595394,-0.00448110463274,7.12211306957,0.0,0.0,0.0,0.0,0.0,0.0,0.0,0.0,0.0
31236000000,26,31236000000,imu_link,0.00070391797316,-0.374434774304,0.00184448873681,0.927251153762,0.0,0.0,0.0,0.0,0.0,0.0,0.0,0.0,0.0,0.00459972057752,-0.0109197308281,-0.00236155468724,0.0,0.0,0.0,0.0,0.0,0.0,0.0,0.0,0.0,6.49477630392,-0.00446227136542,7.12057032486,0.0,0.0,0.0,0.0,0.0,0.0,0.0,0.0,0.0
31240000000,27,31240000000,imu_link,0.000715268383291,-0.374455822828,0.00184362239271,0.927242646883,0.0,0.0,0.0,0.0,0.0,0.0,0.0,0.0,0.0,0.00508372795757,-0.0113620424957,-0.00251139977287,0.0,0.0,0.0,0.0,0.0,0.0,0.0,0.0,0.0,6.49563623724,-0.00438670894428,7.11773968524,0.0,0.0,0.0,0.0,0.0,0.0,0.0,0.0,0.0
31244000000,28,31244000000,imu_link,0.000727873748286,-0.374477167111,0.00184285957985,0.927234018671,0.0,0.0,0.0,0.0,0.0,0.0,0.0,0.0,0.0,0.00568470649014,-0.0115229990445,-0.00269814544197,0.0,0.0,0.0,0.0,0.0,0.0,0.0,0.0,0.0,6.49783062422,-0.0042694674754,7.11414960826,0.0,0.0,0.0,0.0,0.0,0.0,0.0,0.0,0.0
31248000000,29,31248000000,imu_link,0.000741769286598,-0.374498404493,0.00184221616329,0.927225431624,0.0,0.0,0.0,0.0,0.0,0.0,0.0,0.0,0.0,0.00630529189871,-0.0114668762964,-0.00288443834403,0.0,0.0,0.0,0.0,0.0,0.0,0.0,0.0,0.0,6.49920412872,-0.00407509065927,7.11012649059,0.0,0.0,0.0,0.0,0.0,0.0,0.0,0.0,0.0
31252000000,30,31252000000,imu_link,0.000756751556854,-0.374519445017,0.001841685415,0.927216922206,0.0,0.0,0.0,0.0,0.0,0.0,0.0,0.0,0.0,0.00683036422621,-0.0113620331742,-0.00303583811145,0.0,0.0,0.0,0.0,0.0,0.0,0.0,0.0,0.0,6.49888019713,-0.00383752002198,7.10584673455,0.0,0.0,0.0,0.0,0.0,0.0,0.0,0.0,0.0
31256000000,31,31256000000,imu_link,0.000772165399369,-0.374540595882,0.00184117044096,0.927208367029,0.0,0.0,0.0,0.0,0.0,0.0,0.0,0.0,0.0,0.00703331436733,-0.0114221487765,-0.00310925724708,0.0,0.0,0.0,0.0,0.0,0.0,0.0,0.0,0.0,6.49950003244,-0.00358633806356,7.10671871667,0.0,0.0,0.0,0.0,0.0,0.0,0.0,0.0,0.0
31260000000,32,31260000000,imu_link,0.000787382984267,-0.374562116963,0.00184061590345,0.927199661722,0.0,0.0,0.0,0.0,0.0,0.0,0.0,0.0,0.0,0.00693463659844,-0.011621731696,-0.00309056467635,0.0,0.0,0.0,0.0,0.0,0.0,0.0,0.0,0.0,6.50034040638,-0.00348286764149,7.10805220544,0.0,0.0,0.0,0.0,0.0,0.0,0.0,0.0,0.0
31264000000,33,31264000000,imu_link,0.000801961520966,-0.374584164411,0.00184004102365,0.927190743525,0.0,0.0,0.0,0.0,0.0,0.0,0.0,0.0,0.0,0.00663416363016,-0.0119050457519,-0.00297991058046,0.0,0.0,0.0,0.0,0.0,0.0,0.0,0.0,0.0,6.50215395292,-0.00357220158326,7.1105523838,0.0,0.0,0.0,0.0,0.0,0.0,0.0,0.0,0.0
31268000000,34,31268000000,imu_link,0.000815652845452,-0.374606760727,0.00183948231153,0.927181603481,0.0,0.0,0.0,0.0,0.0,0.0,0.0,0.0,0.0,0.0062254682184,-0.0122002255758,-0.00280582331132,0.0,0.0,0.0,0.0,0.0,0.0,0.0,0.0,0.0,6.5036363083,-0.00371470111313,7.11108813856,0.0,0.0,0.0,0.0,0.0,0.0,0.0,0.0,0.0
31272000000,35,31272000000,imu_link,0.000828492236282,-0.374629775063,0.00183900382782,0.927172294291,0.0,0.0,0.0,0.0,0.0,0.0,0.0,0.0,0.0,0.00584523117655,-0.0124248813381,-0.00260873405147,0.0,0.0,0.0,0.0,0.0,0.0,0.0,0.0,0.0,6.50375433904,-0.00390814648659,7.10739038171,0.0,0.0,0.0,0.0,0.0,0.0,0.0,0.0,0.0
31276000000,36,31276000000,imu_link,0.000840713378286,-0.374652745032,0.00183863696709,0.927163002527,0.0,0.0,0.0,0.0,0.0,0.0,0.0,0.0,0.0,0.00557956180751,-0.012400434492,-0.00244121437944,0.0,0.0,0.0,0.0,0.0,0.0,0.0,0.0,0.0,6.50420795278,-0.00410439948666,7.1016206814,0.0,0.0,0.0,0.0,0.0,0.0,0.0,0.0,0.0
31280000000,37,31280000000,imu_link,0.000852384046624,-0.374675262248,0.00183837425964,0.927153893203,0.0,0.0,0.0,0.0,0.0,0.0,0.0,0.0,0.0,0.00534422258893,-0.0121558211346,-0.00229017064839,0.0,0.0,0.0,0.0,0.0,0.0,0.0,0.0,0.0,6.50473803509,-0.00423466853691,7.09631083092,0.0,0.0,0.0,0.0,0.0,0.0,0.0,0.0,0.0
31284000000,38,31284000000,imu_link,0.000863369381506,-0.374696956378,0.00183817318203,0.927145116254,0.0,0.0,0.0,0.0,0.0,0.0,0.0,0.0,0.0,0.00503867830274,-0.0117113341651,-0.00213386803335,0.0,0.0,0.0,0.0,0.0,0.0,0.0,0.0,0.0,6.50598030249,-0.00431164318071,7.09283193209,0.0,0.0,0.0,0.0,0.0,0.0,0.0,0.0,0.0
31288000000,39,31288000000,imu_link,0.000873439114077,-0.37471762657,0.00183797441543,0.927136753285,0.0,0.0,0.0,0.0,0.0,0.0,0.0,0.0,0.0,0.00461542553764,-0.0111582641826,-0.00196208251704,0.0,0.0,0.0,0.0,0.0,0.0,0.0,0.0,0.0,6.50707260015,-0.0043665301569,7.09059076291,0.0,0.0,0.0,0.0,0.0,0.0,0.0,0.0,0.0
31292000000,40,31292000000,imu_link,0.00088222216581,-0.374737143499,0.0018377279526,0.92712885713,0.0,0.0,0.0,0.0,0.0,0.0,0.0,0.0,0.0,0.00401088064976,-0.0105350246414,-0.00174405463213,0.0,0.0,0.0,0.0,0.0,0.0,0.0,0.0,0.0,6.50774511301,-0.00441367148978,7.0884475818,0.0,0.0,0.0,0.0,0.0,0.0,0.0,0.0,0.0
31296000000,41,31296000000,imu_link,0.000889432152682,-0.374755412857,0.00183739650074,0.927121466378,0.0,0.0,0.0,0.0,0.0,0.0,0.0,0.0,0.0,0.00326666286989,-0.00986059038888,-0.0014897243249,0.0,0.0,0.0,0.0,0.0,0.0,0.0,0.0,0.0,6.5081944042,-0.00451431304403,7.08621507431,0.0,0.0,0.0,0.0,0.0,0.0,0.0,0.0,0.0
31300000000,42,31300000000,imu_link,0.000894843892918,-0.3747724937,0.00183694617738,0.927114557565,0.0,0.0,0.0,0.0,0.0,0.0,0.0,0.0,0.0,0.00241167003311,-0.00921773752856,-0.00120884846092,0.0,0.0,0.0,0.0,0.0,0.0,0.0,0.0,0.0,6.50734509143,-0.00467168145717,7.08259133339,0.0,0.0,0.0,0.0,0.0,0.0,0.0,0.0,0.0
31304000000,43,31304000000,imu_link,0.000898228802993,-0.374788598127,0.00183632297027,0.927108045385,0.0,0.0,0.0,0.0,0.0,0.0,0.0,0.0,0.0,0.00144044147163,-0.00868900520867,-0.000909991051796,0.0,0.0,0.0,0.0,0.0,0.0,0.0,0.0,0.0,6.50733077697,-0.0048924427963,7.08199572037,0.0,0.0,0.0,0.0,0.0,0.0,0.0,0.0,0.0
31308000000,44,31308000000,imu_link,0.000899505188737,-0.374804141855,0.00183548574969,0.927101762015,0.0,0.0,0.0,0.0,0.0,0.0,0.0,0.0,0.0,0.000423333682034,-0.00838437346306,-0.000614534317431,0.0,0.0,0.0,0.0,0.0,0.0,0.0,0.0,0.0,6.5079162202,-0.00521185104889,7.08397902684,0.0,0.0,0.0,0.0,0.0,0.0,0.0,0.0,0.0
31312000000,45,31312000000,imu_link,0.000898977060235,-0.374819368193,0.00183448984378,0.927095608723,0.0,0.0,0.0,0.0,0.0,0.0,0.0,0.0,0.0,-0.000442655667059,-0.00821128518168,-0.000350185463012,0.0,0.0,0.0,0.0,0.0,0.0,0.0,0.0,0.0,6.50782538666,-0.00555004287744,7.0832183755,0.0,0.0,0.0,0.0,0.0,0.0,0.0,0.0,0.0
31316000000,46,31316000000,imu_link,0.000897013775448,-0.374834228057,0.00183341477576,0.927089604857,0.0,0.0,0.0,0.0,0.0,0.0,0.0,0.0,0.0,-0.00112248597652,-0.00801212241884,-0.000118220485874,0.0,0.0,0.0,0.0,0.0,0.0,0.0,0.0,0.0,6.50830819573,-0.00582730304852,7.08100415071,0.0,0.0,0.0,0.0,0.0,0.0,0.0,0.0,0.0
31320000000,47,31320000000,imu_link,0.000893842951415,-0.374848398601,0.00183231633357,0.927083880632,0.0,0.0,0.0,0.0,0.0,0.0,0.0,0.0,0.0,-0.00168610875285,-0.00763908576678,9.66925497593e-05,0.0,0.0,0.0,0.0,0.0,0.0,0.0,0.0,0.0,6.50925052511,-0.00601431196039,7.07758710714,0.0,0.0,0.0,0.0,0.0,0.0,0.0,0.0,0.0
31324000000,48,31324000000,imu_link,0.000889348093381,-0.374861634556,0.00183120259275,0.927078535344,0.0,0.0,0.0,0.0,0.0,0.0,0.0,0.0,0.0,-0.00230203450068,-0.00713363616344,0.000336992146741,0.0,0.0,0.0,0.0,0.0,0.0,0.0,0.0,0.0,6.50997944476,-0.00610483345873,7.07464426426,0.0,0.0,0.0,0.0,0.0,0.0,0.0,0.0,0.0
31328000000,49,31328000000,imu_link,0.000883364976785,-0.374873958925,0.00183005319737,0.927073559914,0.0,0.0,0.0,0.0,0.0,0.0,0.0,0.0,0.0,-0.00299791336492,-0.00664041076118,0.000598666377908,0.0,0.0,0.0,0.0,0.0,0.0,0.0,0.0,0.0,6.51186056639,-0.00620206776144,7.07583863154,0.0,0.0,0.0,0.0,0.0,0.0,0.0,0.0,0.0
31332000000,50,31332000000,imu_link,0.000876196651604,-0.374885610152,0.00182888119985,0.927068857623,0.0,0.0,0.0,0.0,0.0,0.0,0.0,0.0,0.0,-0.00355104230993,-0.0062761139782,0.000809794128461,0.0,0.0,0.0,0.0,0.0,0.0,0.0,0.0,0.0,6.5131649178,-0.00638867042962,7.07803626667,0.0,0.0,0.0,0.0,0.0,0.0,0.0,0.0,0.0
31336000000,51,31336000000,imu_link,0.000868498973605,-0.374896758166,0.00182769703363,0.927064359119,0.0,0.0,0.0,0.0,0.0,0.0,0.0,0.0,0.0,-0.00379832562252,-0.00600418036074,0.000902970086905,0.0,0.0,0.0,0.0,0.0,0.0,0.0,0.0,0.0,6.51457980171,-0.00657172701305,7.07982529222,0.0,0.0,0.0,0.0,0.0,0.0,0.0,0.0,0.0
31340000000,52,31340000000,imu_link,0.000860885426388,-0.374907629222,0.00182647757985,0.92705997239,0.0,0.0,0.0,0.0,0.0,0.0,0.0,0.0,0.0,-0.0037657383336,-0.00585494137078,0.000870620573157,0.0,0.0,0.0,0.0,0.0,0.0,0.0,0.0,0.0,6.51687143589,-0.00664119023154,7.08370129605,0.0,0.0,0.0,0.0,0.0,0.0,0.0,0.0,0.0
31344000000,53,31344000000,imu_link,0.000853567613376,-0.374918573677,0.00182517511241,0.927055555655,0.0,0.0,0.0,0.0,0.0,0.0,0.0,0.0,0.0,-0.00364427200488,-0.00589489468621,0.000776763742082,0.0,0.0,0.0,0.0,0.0,0.0,0.0,0.0,0.0,6.51849083657,-0.00655926706755,7.08687730947,0.0,0.0,0.0,0.0,0.0,0.0,0.0,0.0,0.0
31348000000,54,31348000000,imu_link,0.000846533504879,-0.374929892458,0.00182375909352,0.927050987285,0.0,0.0,0.0,0.0,0.0,0.0,0.0,0.0,0.0,-0.00353433024448,-0.00609713762302,0.000671244581741,0.0,0.0,0.0,0.0,0.0,0.0,0.0,0.0,0.0,6.51894282593,-0.00638672440955,7.08720996575,0.0,0.0,0.0,0.0,0.0,0.0,0.0,0.0,0.0
31352000000,55,31352000000,imu_link,0.000839868280624,-0.374941629251,0.00182223953678,0.927046249504,0.0,0.0,0.0,0.0,0.0,0.0,0.0,0.0,0.0,-0.00338306218099,-0.00632303625565,0.000554430703162,0.0,0.0,0.0,0.0,0.0,0.0,0.0,0.0,0.0,6.51905284833,-0.0062334106533,7.08501055769,0.0,0.0,0.0,0.0,0.0,0.0,0.0,0.0,0.0
31356000000,56,31356000000,imu_link,0.000833875335254,-0.374953739026,0.00182064397143,0.927041360187,0.0,0.0,0.0,0.0,0.0,0.0,0.0,0.0,0.0,-0.003085970967,-0.0065249745879,0.000393460970245,0.0,0.0,0.0,0.0,0.0,0.0,0.0,0.0,0.0,6.51966215788,-0.00609793244945,7.0830787564,0.0,0.0,0.0,0.0,0.0,0.0,0.0,0.0,0.0
31360000000,57,31360000000,imu_link,0.000828797299999,-0.374966178944,0.00181899697,0.927036336393,0.0,0.0,0.0,0.0,0.0,0.0,0.0,0.0,0.0,-0.00267177874791,-0.00670406816052,0.000198354872826,0.0,0.0,0.0,0.0,0.0,0.0,0.0,0.0,0.0,6.52024532143,-0.00592590559605,7.08117546395,0.0,0.0,0.0,0.0,0.0,0.0,0.0,0.0,0.0
31364000000,58,31364000000,imu_link,0.00082482905139,-0.374978908907,0.00181732061704,0.927031194123,0.0,0.0,0.0,0.0,0.0,0.0,0.0,0.0,0.0,-0.00216309009111,-0.00686174345954,-2.30883790988e-05,0.0,0.0,0.0,0.0,0.0,0.0,0.0,0.0,0.0,6.52084024453,-0.00572615324397,7.079365993,0.0,0.0,0.0,0.0,0.0,0.0,0.0,0.0,0.0
31368000000,59,31368000000,imu_link,0.000821840185753,-0.374991843021,0.00181558203946,0.927025968303,0.0,0.0,0.0,0.0,0.0,0.0,0.0,0.0,0.0,-0.00172094831348,-0.00697295082218,-0.000235394323096,0.0,0.0,0.0,0.0,0.0,0.0,0.0,0.0,0.0,6.52225997236,-0.00544601511813,7.07855623131,0.0,0.0,0.0,0.0,0.0,0.0,0.0,0.0,0.0
31372000000,60,31372000000,imu_link,0.000819416969376,-0.375004664012,0.00181371930916,0.927020787764,0.0,0.0,0.0,0.0,0.0,0.0,0.0,0.0,0.0,-0.0014819565833,-0.00691259175201,-0.000399085246125,0.0,0.0,0.0,0.0,0.0,0.0,0.0,0.0,0.0,6.52447269219,-0.00513834604194,7.07705506167,0.0,0.0,0.0,0.0,0.0,0.0,0.0,0.0,0.0
31376000000,61,31376000000,imu_link,0.000817239649734,-0.375017276132,0.00181169980476,0.927015691596,0.0,0.0,0.0,0.0,0.0,0.0,0.0,0.0,0.0,-0.00139722154727,-0.00680024475863,-0.000518019964861,0.0,0.0,0.0,0.0,0.0,0.0,0.0,0.0,0.0,6.52509529355,-0.00491152802645,7.07458173591,0.0,0.0,0.0,0.0,0.0,0.0,0.0,0.0,0.0
31380000000,62,31380000000,imu_link,0.000815057633541,-0.375029670169,0.00180953583914,0.927010683732,0.0,0.0,0.0,0.0,0.0,0.0,0.0,0.0,0.0,-0.00142632469782,-0.00668265890842,-0.000584267339415,0.0,0.0,0.0,0.0,0.0,0.0,0.0,0.0,0.0,6.52529809316,-0.00474909813431,7.07237739113,0.0,0.0,0.0,0.0,0.0,0.0,0.0,0.0,0.0
31384000000,63,31384000000,imu_link,0.000812767909414,-0.37504208188,0.0018072948948,0.92700566876,0.0,0.0,0.0,0.0,0.0,0.0,0.0,0.0,0.0,-0.00149069564423,-0.00669211765213,-0.000599736913438,0.0,0.0,0.0,0.0,0.0,0.0,0.0,0.0,0.0,6.526246405,-0.00465392382264,7.0734452355,0.0,0.0,0.0,0.0,0.0,0.0,0.0,0.0,0.0
31388000000,64,31388000000,imu_link,0.000810344576505,-0.375054679659,0.00180502723732,0.92700057847,0.0,0.0,0.0,0.0,0.0,0.0,0.0,0.0,0.0,-0.00155777050164,-0.00679237450036,-0.000586920395471,0.0,0.0,0.0,0.0,0.0,0.0,0.0,0.0,0.0,6.52746785341,-0.00459024687178,7.07449712166,0.0,0.0,0.0,0.0,0.0,0.0,0.0,0.0,0.0
31392000000,65,31392000000,imu_link,0.000807864075469,-0.37506760042,0.00180272267431,0.926995357411,0.0,0.0,0.0,0.0,0.0,0.0,0.0,0.0,0.0,-0.00159142725335,-0.00696656240457,-0.000593056652176,0.0,0.0,0.0,0.0,0.0,0.0,0.0,0.0,0.0,6.52760651162,-0.00453523031967,7.07285352235,0.0,0.0,0.0,0.0,0.0,0.0,0.0,0.0,0.0
31396000000,66,31396000000,imu_link,0.000805611444686,-0.375080812012,0.00180035526266,0.926990018378,0.0,0.0,0.0,0.0,0.0,0.0,0.0,0.0,0.0,-0.00149781065296,-0.00712371737766,-0.000664696407067,0.0,0.0,0.0,0.0,0.0,0.0,0.0,0.0,0.0,6.52878713692,-0.00449422565806,7.07247803296,0.0,0.0,0.0,0.0,0.0,0.0,0.0,0.0,0.0
31400000000,67,31400000000,imu_link,0.000803728427114,-0.375094402698,0.001797873473,0.926984525619,0.0,0.0,0.0,0.0,0.0,0.0,0.0,0.0,0.0,-0.00134822660428,-0.00732863418826,-0.000786736376325,0.0,0.0,0.0,0.0,0.0,0.0,0.0,0.0,0.0,6.53053097762,-0.00437274630804,7.07415429538,0.0,0.0,0.0,0.0,0.0,0.0,0.0,0.0,0.0
31404000000,68,31404000000,imu_link,0.000802185275815,-0.3751084949,0.00179523407806,0.926978829687,0.0,0.0,0.0,0.0,0.0,0.0,0.0,0.0,0.0,-0.00122062882955,-0.00759955599344,-0.000923141994611,0.0,0.0,0.0,0.0,0.0,0.0,0.0,0.0,0.0,6.53048376588,-0.00420439828338,7.0725529135,0.0,0.0,0.0,0.0,0.0,0.0,0.0,0.0,0.0
31408000000,69,31408000000,imu_link,0.000800768935308,-0.375123277423,0.00179237542076,0.926972854454,0.0,0.0,0.0,0.0,0.0,0.0,0.0,0.0,0.0,-0.00120348457451,-0.00797209872441,-0.00104802408908,0.0,0.0,0.0,0.0,0.0,0.0,0.0,0.0,0.0,6.53143291914,-0.00401855028247,7.07339365013,0.0,0.0,0.0,0.0,0.0,0.0,0.0,0.0,0.0
31412000000,70,31412000000,imu_link,0.000799246081256,-0.375138734236,0.00178928689796,0.92696660659,0.0,0.0,0.0,0.0,0.0,0.0,0.0,0.0,0.0,-0.00129646123898,-0.00833575444204,-0.00113407146731,0.0,0.0,0.0,0.0,0.0,0.0,0.0,0.0,0.0,6.5321809196,-0.0038707322797,7.07212585785,0.0,0.0,0.0,0.0,0.0,0.0,0.0,0.0,0.0
31416000000,71,31416000000,imu_link,0.00079746507556,-0.375154770983,0.0017859771863,0.926960124355,0.0,0.0,0.0,0.0,0.0,0.0,0.0,0.0,0.0,-0.00145802364418,-0.00864836228108,-0.00118772603896,0.0,0.0,0.0,0.0,0.0,0.0,0.0,0.0,0.0,6.5325160085,-0.0037633616737,7.06925528714,0.0,0.0,0.0,0.0,0.0,0.0,0.0,0.0,0.0
31420000000,72,31420000000,imu_link,0.000795460839054,-0.375171305939,0.00178245716093,0.926953440734,0.0,0.0,0.0,0.0,0.0,0.0,0.0,0.0,0.0,-0.00160130136662,-0.00891693238994,-0.00124295071268,0.0,0.0,0.0,0.0,0.0,0.0,0.0,0.0,0.0,6.53284874994,-0.00372161804045,7.06639931698,0.0,0.0,0.0,0.0,0.0,0.0,0.0,0.0,0.0
31424000000,73,31424000000,imu_link,0.000793260687353,-0.37518826703,0.0017787361097,0.926946584825,0.0,0.0,0.0,0.0,0.0,0.0,0.0,0.0,0.0,-0.0017301243256,-0.00914666030916,-0.00129904760315,0.0,0.0,0.0,0.0,0.0,0.0,0.0,0.0,0.0,6.53330345808,-0.00367449068528,7.06396490506,0.0,0.0,0.0,0.0,0.0,0.0,0.0,0.0,0.0
31428000000,74,31428000000,imu_link,0.000790957183988,-0.37520546584,0.0017748419765,0.926939632731,0.0,0.0,0.0,0.0,0.0,0.0,0.0,0.0,0.0,-0.00181066749225,-0.00927485687852,-0.00135969847654,0.0,0.0,0.0,0.0,0.0,0.0,0.0,0.0,0.0,6.53422832103,-0.0036346124733,7.06142611079,0.0,0.0,0.0,0.0,0.0,0.0,0.0,0.0,0.0
31432000000,75,31432000000,imu_link,0.000788679391718,-0.375222617248,0.00177080821828,0.926932699676,0.0,0.0,0.0,0.0,0.0,0.0,0.0,0.0,0.0,-0.00182491067758,-0.00924939385304,-0.00142926957711,0.0,0.0,0.0,0.0,0.0,0.0,0.0,0.0,0.0,6.53560504581,-0.0035932080343,7.05881481391,0.0,0.0,0.0,0.0,0.0,0.0,0.0,0.0,0.0
31436000000,76,31436000000,imu_link,0.000786722585731,-0.375239765961,0.00176667561672,0.926925767236,0.0,0.0,0.0,0.0,0.0,0.0,0.0,0.0,0.0,-0.00169468632081,-0.00924835300187,-0.00153530240006,0.0,0.0,0.0,0.0,0.0,0.0,0.0,0.0,0.0,6.53697848568,-0.00354617901761,7.05906680569,0.0,0.0,0.0,0.0,0.0,0.0,0.0,0.0,0.0
31440000000,77,31440000000,imu_link,0.00078538633855,-0.375257093041,0.0017625074175,0.926918761736,0.0,0.0,0.0,0.0,0.0,0.0,0.0,0.0,0.0,-0.00141388799272,-0.00934528872481,-0.00166809506129,0.0,0.0,0.0,0.0,0.0,0.0,0.0,0.0,0.0,6.53804809757,-0.00341376592109,7.06014284711,0.0,0.0,0.0,0.0,0.0,0.0,0.0,0.0,0.0
31444000000,78,31444000000,imu_link,0.000784699848996,-0.375274799135,0.00175833068702,0.926911601855,0.0,0.0,0.0,0.0,0.0,0.0,0.0,0.0,0.0,-0.00111462581877,-0.00955048865337,-0.00179367715451,0.0,0.0,0.0,0.0,0.0,0.0,0.0,0.0,0.0,6.53933659704,-0.00318862734622,7.06178889216,0.0,0.0,0.0,0.0,0.0,0.0,0.0,0.0,0.0
31448000000,79,31448000000,imu_link,0.000784387267263,-0.375292902068,0.00175418528072,0.92690428051,0.0,0.0,0.0,0.0,0.0,0.0,0.0,0.0,0.0,-0.000935744017905,-0.00976501885067,-0.00184902121661,0.0,0.0,0.0,0.0,0.0,0.0,0.0,0.0,0.0,6.54135500623,-0.00294587390008,7.06343605907,0.0,0.0,0.0,0.0,0.0,0.0,0.0,0.0,0.0
31452000000,80,31452000000,imu_link,0.000784160843857,-0.375311289819,0.00175007610037,0.926896843268,0.0,0.0,0.0,0.0,0.0,0.0,0.0,0.0,0.0,-0.000889220443607,-0.00991882769461,-0.00184818617073,0.0,0.0,0.0,0.0,0.0,0.0,0.0,0.0,0.0,6.54263431918,-0.00275297959652,7.0626234036,0.0,0.0,0.0,0.0,0.0,0.0,0.0,0.0,0.0
31456000000,81,31456000000,imu_link,0.000784031303178,-0.375329803798,0.0017459875745,0.926889354348,0.0,0.0,0.0,0.0,0.0,0.0,0.0,0.0,0.0,-0.00084053455942,-0.00998710198426,-0.00185669976342,0.0,0.0,0.0,0.0,0.0,0.0,0.0,0.0,0.0,6.54308296969,-0.00265803702051,7.05988345781,0.0,0.0,0.0,0.0,0.0,0.0,0.0,0.0,0.0
31460000000,82,31460000000,imu_link,0.000784367391277,-0.375348234698,0.00174190261913,0.926881898222,0.0,0.0,0.0,0.0,0.0,0.0,0.0,0.0,0.0,-0.000624011650651,-0.00994285049664,-0.00194248840757,0.0,0.0,0.0,0.0,0.0,0.0,0.0,0.0,0.0,6.54501395102,-0.00262061528215,7.05971705317,0.0,0.0,0.0,0.0,0.0,0.0,0.0,0.0,0.0
31464000000,83,31464000000,imu_link,0.000785348807855,-0.375366424196,0.0017378113728,0.926874538881,0.0,0.0,0.0,0.0,0.0,0.0,0.0,0.0,0.0,-0.000325948367228,-0.00981337562074,-0.00206669432065,0.0,0.0,0.0,0.0,0.0,0.0,0.0,0.0,0.0,6.54574135123,-0.00250054027118,7.05715058748,0.0,0.0,0.0,0.0,0.0,0.0,0.0,0.0,0.0
31468000000,84,31468000000,imu_link,0.000786931290689,-0.375384070614,0.00173369826156,0.926867398585,0.0,0.0,0.0,0.0,0.0,0.0,0.0,0.0,0.0,-5.11096665564e-05,-0.00952111132677,-0.00219004096364,0.0,0.0,0.0,0.0,0.0,0.0,0.0,0.0,0.0,6.54608783769,-0.00231665952306,7.05281074287,0.0,0.0,0.0,0.0,0.0,0.0,0.0,0.0,0.0
31472000000,85,31472000000,imu_link,0.00078886667339,-0.375400787991,0.00172950150653,0.926860634017,0.0,0.0,0.0,0.0,0.0,0.0,0.0,0.0,0.0,9.73942518002e-05,-0.00902038034469,-0.00229573205517,0.0,0.0,0.0,0.0,0.0,0.0,0.0,0.0,0.0,6.54735603403,-0.00210463859848,7.04970647729,0.0,0.0,0.0,0.0,0.0,0.0,0.0,0.0,0.0
31476000000,86,31476000000,imu_link,0.000790764300237,-0.375416385891,0.00172514021392,0.926854322851,0.0,0.0,0.0,0.0,0.0,0.0,0.0,0.0,0.0,4.98025092143e-05,-0.00841650927462,-0.00236573060511,0.0,0.0,0.0,0.0,0.0,0.0,0.0,0.0,0.0,6.54856883273,-0.00190944180169,7.0480873953,0.0,0.0,0.0,0.0,0.0,0.0,0.0,0.0,0.0
31480000000,87,31480000000,imu_link,0.000792364430579,-0.37543112367,0.00172055782691,0.926848360423,0.0,0.0,0.0,0.0,0.0,0.0,0.0,0.0,0.0,-0.000128962653336,-0.00795227553963,-0.00241299011503,0.0,0.0,0.0,0.0,0.0,0.0,0.0,0.0,0.0,6.54895217423,-0.00178898614303,7.04875213245,0.0,0.0,0.0,0.0,0.0,0.0,0.0,0.0,0.0
31484000000,88,31484000000,imu_link,0.000793792039327,-0.37544544437,0.00171577628862,0.926842567164,0.0,0.0,0.0,0.0,0.0,0.0,0.0,0.0,0.0,-0.000246005343447,-0.00772716609191,-0.00247320741683,0.0,0.0,0.0,0.0,0.0,0.0,0.0,0.0,0.0,6.54991791799,-0.00171929434655,7.05196369924,0.0,0.0,0.0,0.0,0.0,0.0,0.0,0.0,0.0
31488000000,89,31488000000,imu_link,0.000795500089542,-0.375459636725,0.00171087353524,0.926836825596,0.0,0.0,0.0,0.0,0.0,0.0,0.0,0.0,0.0,-0.000138708035454,-0.00765827364903,-0.00258212158704,0.0,0.0,0.0,0.0,0.0,0.0,0.0,0.0,0.0,6.55117587218,-0.00171478289394,7.05473958041,0.0,0.0,0.0,0.0,0.0,0.0,0.0,0.0,0.0
31492000000,90,31492000000,imu_link,0.000797786115194,-0.375473751918,0.00170589181671,0.926831114654,0.0,0.0,0.0,0.0,0.0,0.0,0.0,0.0,0.0,0.000114366137858,-0.00761729134112,-0.0027272756055,0.0,0.0,0.0,0.0,0.0,0.0,0.0,0.0,0.0,6.55115722329,-0.00164530894984,7.052982413,0.0,0.0,0.0,0.0,0.0,0.0,0.0,0.0,0.0
31496000000,91,31496000000,imu_link,0.000800653575238,-0.375487716939,0.00170083606408,0.926825463903,0.0,0.0,0.0,0.0,0.0,0.0,0.0,0.0,0.0,0.000370017027542,-0.00753692515654,-0.00287085207789,0.0,0.0,0.0,0.0,0.0,0.0,0.0,0.0,0.0,6.55088788915,-0.00146618109467,7.04952843721,0.0,0.0,0.0,0.0,0.0,0.0,0.0,0.0,0.0
31500000000,92,31500000000,imu_link,0.000803944641108,-0.375501460292,0.0016957118307,0.926819902437,0.0,0.0,0.0,0.0,0.0,0.0,0.0,0.0,0.0,0.000553617288206,-0.00741782591062,-0.00298228099252,0.0,0.0,0.0,0.0,0.0,0.0,0.0,0.0,0.0,6.55114557925,-0.00126202987031,7.04716127352,0.0,0.0,0.0,0.0,0.0,0.0,0.0,0.0,0.0
31504000000,93,31504000000,imu_link,0.000807346836764,-0.375514906383,0.00169052109824,0.926814461159,0.0,0.0,0.0,0.0,0.0,0.0,0.0,0.0,0.0,0.00059283440935,-0.00725762703705,-0.00303418341867,0.0,0.0,0.0,0.0,0.0,0.0,0.0,0.0,0.0,6.55187788317,-0.00105570486191,7.04579375949,0.0,0.0,0.0,0.0,0.0,0.0,0.0,0.0,0.0
31508000000,94,31508000000,imu_link,0.000810594130513,-0.375527959615,0.00168531452588,0.926809178957,0.0,0.0,0.0,0.0,0.0,0.0,0.0,0.0,0.0,0.000518345538745,-0.00704558148602,-0.00301273280451,0.0,0.0,0.0,0.0,0.0,0.0,0.0,0.0,0.0,6.55375369273,-0.000907924452255,7.04617805149,0.0,0.0,0.0,0.0,0.0,0.0,0.0,0.0,0.0
31512000000,95,31512000000,imu_link,0.000813282965566,-0.375540490548,0.00168012622832,0.926804108593,0.0,0.0,0.0,0.0,0.0,0.0,0.0,0.0,0.0,0.00026333882664,-0.0067632923723,-0.00289979594323,0.0,0.0,0.0,0.0,0.0,0.0,0.0,0.0,0.0,6.55600727507,-0.000800639295818,7.04711054691,0.0,0.0,0.0,0.0,0.0,0.0,0.0,0.0,0.0
31516000000,96,31516000000,imu_link,0.000814989832666,-0.375552442214,0.00167494485357,0.926799273575,0.0,0.0,0.0,0.0,0.0,0.0,0.0,0.0,0.0,-0.000190016320572,-0.00644983973608,-0.00271263679255,0.0,0.0,0.0,0.0,0.0,0.0,0.0,0.0,0.0,6.55678342666,-0.000737871490531,7.04599046689,0.0,0.0,0.0,0.0,0.0,0.0,0.0,0.0,0.0
31520000000,97,31520000000,imu_link,0.000815486427598,-0.375564041588,0.00166975373336,0.926794582186,0.0,0.0,0.0,0.0,0.0,0.0,0.0,0.0,0.0,-0.000752449464954,-0.0062586084725,-0.00249015634585,0.0,0.0,0.0,0.0,0.0,0.0,0.0,0.0,0.0,6.55697807894,-0.000763724947038,7.04593720666,0.0,0.0,0.0,0.0,0.0,0.0,0.0,0.0,0.0
31524000000,98,31524000000,imu_link,0.000814723222318,-0.375575642936,0.00166456890306,0.926789890898,0.0,0.0,0.0,0.0,0.0,0.0,0.0,0.0,0.0,-0.00133505802627,-0.00625844948187,-0.00225067306726,0.0,0.0,0.0,0.0,0.0,0.0,0.0,0.0,0.0,6.55756626165,-0.000856042637994,7.04772218948,0.0,0.0,0.0,0.0,0.0,0.0,0.0,0.0,0.0
31528000000,99,31528000000,imu_link,0.000812816972311,-0.375587491899,0.00165940574081,0.926785100026,0.0,0.0,0.0,0.0,0.0,0.0,0.0,0.0,0.0,-0.00186083569873,-0.00639093377842,-0.0020257985707,0.0,0.0,0.0,0.0,0.0,0.0,0.0,0.0,0.0,6.55854299199,-0.00096557078293,7.04896939439,0.0,0.0,0.0,0.0,0.0,0.0,0.0,0.0,0.0
31532000000,100,31532000000,imu_link,0.000809841709714,-0.375599478094,0.0016542662782,0.926780254222,0.0,0.0,0.0,0.0,0.0,0.0,0.0,0.0,0.0,-0.00235184906191,-0.00646394533137,-0.00181396110622,0.0,0.0,0.0,0.0,0.0,0.0,0.0,0.0,0.0,6.55923142605,-0.00103060309197,7.04690801133,0.0,0.0,0.0,0.0,0.0,0.0,0.0,0.0,0.0
31536000000,101,31536000000,imu_link,0.000805870899259,-0.375611279412,0.00164915493197,0.926775483943,0.0,0.0,0.0,0.0,0.0,0.0,0.0,0.0,0.0,-0.00280777352672,-0.00636325664083,-0.0016141059587,0.0,0.0,0.0,0.0,0.0,0.0,0.0,0.0,0.0,6.56058820261,-0.00107030811411,7.04431298234,0.0,0.0,0.0,0.0,0.0,0.0,0.0,0.0,0.0
31540000000,102,31540000000,imu_link,0.000801146938849,-0.375622625703,0.00164407708223,0.926770898461,0.0,0.0,0.0,0.0,0.0,0.0,0.0,0.0,0.0,-0.0031501824096,-0.00611706256418,-0.00145747401085,0.0,0.0,0.0,0.0,0.0,0.0,0.0,0.0,0.0,6.56207183987,-0.00113758160657,7.04270326027,0.0,0.0,0.0,0.0,0.0,0.0,0.0,0.0,0.0
31544000000,103,31544000000,imu_link,0.000795944154019,-0.375633578791,0.00163904226906,0.926766472472,0.0,0.0,0.0,0.0,0.0,0.0,0.0,0.0,0.0,-0.00336372058342,-0.00590449230413,-0.00134789146133,0.0,0.0,0.0,0.0,0.0,0.0,0.0,0.0,0.0,6.56177771238,-0.00116272119933,7.04068513056,0.0,0.0,0.0,0.0,0.0,0.0,0.0,0.0,0.0
31548000000,104,31548000000,imu_link,0.000790465115927,-0.375644419074,0.00163405669866,0.926762092148,0.0,0.0,0.0,0.0,0.0,0.0,0.0,0.0,0.0,-0.00348240882314,-0.0058433973644,-0.00127327050728,0.0,0.0,0.0,0.0,0.0,0.0,0.0,0.0,0.0,6.56286803998,-0.00114549015645,7.04308772118,0.0,0.0,0.0,0.0,0.0,0.0,0.0,0.0,0.0
31552000000,105,31552000000,imu_link,0.0007848414224,-0.37565538885,0.0016291211853,0.926757659162,0.0,0.0,0.0,0.0,0.0,0.0,0.0,0.0,0.0,-0.00354012257196,-0.00591315577543,-0.00122281131054,0.0,0.0,0.0,0.0,0.0,0.0,0.0,0.0,0.0,6.56335548636,-0.00107905199041,7.04380664239,0.0,0.0,0.0,0.0,0.0,0.0,0.0,0.0,0.0
31556000000,106,31556000000,imu_link,0.000779178813072,-0.37566666726,0.00162418517081,0.926753100892,0.0,0.0,0.0,0.0,0.0,0.0,0.0,0.0,0.0,-0.00355845169341,-0.0060796702984,-0.00121551089446,0.0,0.0,0.0,0.0,0.0,0.0,0.0,0.0,0.0,6.56492845257,-0.00100773030952,7.04615570677,0.0,0.0,0.0,0.0,0.0,0.0,0.0,0.0,0.0
31560000000,107,31560000000,imu_link,0.000773574457223,-0.375678395684,0.00161920060114,0.926748360014,0.0,0.0,0.0,0.0,0.0,0.0,0.0,0.0,0.0,-0.00354087298866,-0.00632256207952,-0.00124862855586,0.0,0.0,0.0,0.0,0.0,0.0,0.0,0.0,0.0,6.56575708554,-0.000916303342445,7.0464956851,0.0,0.0,0.0,0.0,0.0,0.0,0.0,0.0,0.0
31564000000,108,31564000000,imu_link,0.000768309758246,-0.375690710248,0.00161413386739,0.92674338115,0.0,0.0,0.0,0.0,0.0,0.0,0.0,0.0,0.0,-0.00339930088874,-0.00663917407085,-0.00135008275768,0.0,0.0,0.0,0.0,0.0,0.0,0.0,0.0,0.0,6.56635528,-0.000844140837502,7.04642418299,0.0,0.0,0.0,0.0,0.0,0.0,0.0,0.0,0.0
31568000000,109,31568000000,imu_link,0.000763849529223,-0.375703799469,0.00160898705387,0.926738087465,0.0,0.0,0.0,0.0,0.0,0.0,0.0,0.0,0.0,-0.00304207916016,-0.00705794606206,-0.00153775373366,0.0,0.0,0.0,0.0,0.0,0.0,0.0,0.0,0.0,6.56798915102,-0.00076804052866,7.04873935597,0.0,0.0,0.0,0.0,0.0,0.0,0.0,0.0,0.0
31572000000,110,31572000000,imu_link,0.00076059403295,-0.37571782447,0.00160376922197,0.926732413265,0.0,0.0,0.0,0.0,0.0,0.0,0.0,0.0,0.0,-0.00249779173416,-0.00756403429617,-0.00179630926439,0.0,0.0,0.0,0.0,0.0,0.0,0.0,0.0,0.0,6.56919853288,-0.000613764413831,7.04978063917,0.0,0.0,0.0,0.0,0.0,0.0,0.0,0.0,0.0
31576000000,111,31576000000,imu_link,0.000758833959881,-0.375732590531,0.00159850730515,0.926726437174,0.0,0.0,0.0,0.0,0.0,0.0,0.0,0.0,0.0,-0.00181362434059,-0.00796534562984,-0.00209714140181,0.0,0.0,0.0,0.0,0.0,0.0,0.0,0.0,0.0,6.57017482923,-0.00031219325008,7.04743761955,0.0,0.0,0.0,0.0,0.0,0.0,0.0,0.0,0.0
31580000000,112,31580000000,imu_link,0.000758524704996,-0.375747635123,0.00159321873201,0.926720346703,0.0,0.0,0.0,0.0,0.0,0.0,0.0,0.0,0.0,-0.00114655559901,-0.00811706425396,-0.00238185569779,0.0,0.0,0.0,0.0,0.0,0.0,0.0,0.0,0.0,6.57175620882,8.46669108459e-05,7.04367283865,0.0,0.0,0.0,0.0,0.0,0.0,0.0,0.0,0.0
31584000000,113,31584000000,imu_link,0.000759274108045,-0.375762437848,0.00158789835018,0.926714353177,0.0,0.0,0.0,0.0,0.0,0.0,0.0,0.0,0.0,-0.000661835788015,-0.00798763464789,-0.00259565764074,0.0,0.0,0.0,0.0,0.0,0.0,0.0,0.0,0.0,6.57450202311,0.000468168949639,7.04216051398,0.0,0.0,0.0,0.0,0.0,0.0,0.0,0.0,0.0
31588000000,114,31588000000,imu_link,0.000760460626144,-0.375776849598,0.00158250813851,0.926708517644,0.0,0.0,0.0,0.0,0.0,0.0,0.0,0.0,0.0,-0.000472164675464,-0.00777716299417,-0.00271041337893,0.0,0.0,0.0,0.0,0.0,0.0,0.0,0.0,0.0,6.57555881584,0.000813857981417,7.04099162468,0.0,0.0,0.0,0.0,0.0,0.0,0.0,0.0,0.0
31592000000,115,31592000000,imu_link,0.000761549711232,-0.375790935958,0.00157700232075,0.926702814044,0.0,0.0,0.0,0.0,0.0,0.0,0.0,0.0,0.0,-0.000538824421078,-0.0076015707872,-0.00274590153225,0.0,0.0,0.0,0.0,0.0,0.0,0.0,0.0,0.0,6.57710338547,0.00105347104502,7.04267498823,0.0,0.0,0.0,0.0,0.0,0.0,0.0,0.0,0.0
31596000000,116,31596000000,imu_link,0.000762418754532,-0.375804779691,0.00157138869298,0.926697208918,0.0,0.0,0.0,0.0,0.0,0.0,0.0,0.0,0.0,-0.000660884289735,-0.00747051335685,-0.00275468063057,0.0,0.0,0.0,0.0,0.0,0.0,0.0,0.0,0.0,6.5770412513,0.00116586908548,7.04129092645,0.0,0.0,0.0,0.0,0.0,0.0,0.0,0.0,0.0
31600000000,117,31600000000,imu_link,0.000763066170322,-0.375818368592,0.00156565835726,0.926691707243,0.0,0.0,0.0,0.0,0.0,0.0,0.0,0.0,0.0,-0.00078534400442,-0.00733286932999,-0.00276729117772,0.0,0.0,0.0,0.0,0.0,0.0,0.0,0.0,0.0,6.57655129789,0.00124113794721,7.03808746223,0.0,0.0,0.0,0.0,0.0,0.0,0.0,0.0,0.0
31604000000,118,31604000000,imu_link,0.000763506206453,-0.375831711171,0.0015597574454,0.926686305658,0.0,0.0,0.0,0.0,0.0,0.0,0.0,0.0,0.0,-0.00091333069548,-0.00719983203366,-0.00280753072345,0.0,0.0,0.0,0.0,0.0,0.0,0.0,0.0,0.0,6.57714096911,0.00130408108302,7.03717861406,0.0,0.0,0.0,0.0,0.0,0.0,0.0,0.0,0.0
31608000000,119,31608000000,imu_link,0.000763789972601,-0.375844859563,0.0015536602234,0.926680983028,0.0,0.0,0.0,0.0,0.0,0.0,0.0,0.0,0.0,-0.00102250580705,-0.0070949730646,-0.00286925977586,0.0,0.0,0.0,0.0,0.0,0.0,0.0,0.0,0.0,6.57806674252,0.00136866106929,7.0372575737,0.0,0.0,0.0,0.0,0.0,0.0,0.0,0.0,0.0
31612000000,120,31612000000,imu_link,0.000763917453857,-0.375858033312,0.00154737722919,0.926675650295,0.0,0.0,0.0,0.0,0.0,0.0,0.0,0.0,0.0,-0.00112984553087,-0.00710856991723,-0.00292594859563,0.0,0.0,0.0,0.0,0.0,0.0,0.0,0.0,0.0,6.57837628524,0.00144164901322,7.03757647073,0.0,0.0,0.0,0.0,0.0,0.0,0.0,0.0,0.0
31616000000,121,31616000000,imu_link,0.000764046276706,-0.375871446406,0.00154097238133,0.92667022042,0.0,0.0,0.0,0.0,0.0,0.0,0.0,0.0,0.0,-0.00115227183385,-0.00723777090559,-0.00298249355268,0.0,0.0,0.0,0.0,0.0,0.0,0.0,0.0,0.0,6.5789815454,0.00147886226446,7.03818721646,0.0,0.0,0.0,0.0,0.0,0.0,0.0,0.0,0.0
31620000000,122,31620000000,imu_link,0.000764459050028,-0.375885257753,0.00153454932875,0.926664628528,0.0,0.0,0.0,0.0,0.0,0.0,0.0,0.0,0.0,-0.00102437387768,-0.00745296993764,-0.00304401589649,0.0,0.0,0.0,0.0,0.0,0.0,0.0,0.0,0.0,6.58039548893,0.00157187931679,7.03974400656,0.0,0.0,0.0,0.0,0.0,0.0,0.0,0.0,0.0
31624000000,123,31624000000,imu_link,0.000765424033502,-0.375899427644,0.00152819671802,0.926658890335,0.0,0.0,0.0,0.0,0.0,0.0,0.0,0.0,0.0,-0.000755497227934,-0.00764698812022,-0.00311491244474,0.0,0.0,0.0,0.0,0.0,0.0,0.0,0.0,0.0,6.58197059036,0.00170064775278,7.03991940238,0.0,0.0,0.0,0.0,0.0,0.0,0.0,0.0,0.0
31628000000,124,31628000000,imu_link,0.000767153802725,-0.375913926932,0.00152198442384,0.926653017357,0.0,0.0,0.0,0.0,0.0,0.0,0.0,0.0,0.0,-0.000374977121869,-0.00782547090372,-0.00319341186159,0.0,0.0,0.0,0.0,0.0,0.0,0.0,0.0,0.0,6.58307100043,0.00184178091273,7.03938807582,0.0,0.0,0.0,0.0,0.0,0.0,0.0,0.0,0.0
31632000000,125,31632000000,imu_link,0.000769875030919,-0.375928343575,0.00151597920892,0.926647176436,0.0,0.0,0.0,0.0,0.0,0.0,0.0,0.0,0.0,0.000123364687008,-0.00778182893535,-0.00328387426345,0.0,0.0,0.0,0.0,0.0,0.0,0.0,0.0,0.0,6.58444295612,0.00200723823789,7.03607066119,0.0,0.0,0.0,0.0,0.0,0.0,0.0,0.0,0.0
31636000000,126,31636000000,imu_link,0.000773779419261,-0.375942126687,0.00151023928065,0.926641590813,0.0,0.0,0.0,0.0,0.0,0.0,0.0,0.0,0.0,0.000721797013995,-0.00744110654274,-0.00338378980215,0.0,0.0,0.0,0.0,0.0,0.0,0.0,0.0,0.0,6.58590238559,0.0022009941244,7.03190141408,0.0,0.0,0.0,0.0,0.0,0.0,0.0,0.0,0.0
31640000000,127,31640000000,imu_link,0.000778986009764,-0.37595496951,0.00150478654129,0.926636384835,0.0,0.0,0.0,0.0,0.0,0.0,0.0,0.0,0.0,0.00137968070919,-0.00693496160058,-0.00349615599946,0.0,0.0,0.0,0.0,0.0,0.0,0.0,0.0,0.0,6.58590765699,0.00242947263973,7.02734516968,0.0,0.0,0.0,0.0,0.0,0.0,0.0,0.0,0.0
31644000000,128,31644000000,imu_link,0.000785386340919,-0.375967054637,0.00149959753201,0.926631484574,0.0,0.0,0.0,0.0,0.0,0.0,0.0,0.0,0.0,0.00198278879764,-0.00652723453411,-0.00359888655703,0.0,0.0,0.0,0.0,0.0,0.0,0.0,0.0,0.0,6.58637222822,0.00270798881528,7.02813763239,0.0,0.0,0.0,0.0,0.0,0.0,0.0,0.0,0.0
31648000000,129,31648000000,imu_link,0.000792755612998,-0.375978949288,0.00149462355202,0.926626660166,0.0,0.0,0.0,0.0,0.0,0.0,0.0,0.0,0.0,0.00247224937727,-0.00642536707273,-0.00368153670806,0.0,0.0,0.0,0.0,0.0,0.0,0.0,0.0,0.0,6.587569501,0.0029587768159,7.03334922052,0.0,0.0,0.0,0.0,0.0,0.0,0.0,0.0,0.0
31652000000,130,31652000000,imu_link,0.000800786753235,-0.375991102317,0.00148982996814,0.926621729794,0.0,0.0,0.0,0.0,0.0,0.0,0.0,0.0,0.0,0.00281266320171,-0.00656542034392,-0.00372219942705,0.0,0.0,0.0,0.0,0.0,0.0,0.0,0.0,0.0,6.58880995665,0.00319416577254,7.03779720105,0.0,0.0,0.0,0.0,0.0,0.0,0.0,0.0,0.0
31656000000,131,31656000000,imu_link,0.000809210980783,-0.376003546857,0.00148517803329,0.926616680281,0.0,0.0,0.0,0.0,0.0,0.0,0.0,0.0,0.0,0.00302124476277,-0.00672311460909,-0.00373026509097,0.0,0.0,0.0,0.0,0.0,0.0,0.0,0.0,0.0,6.58855349201,0.00337671436546,7.03573438447,0.0,0.0,0.0,0.0,0.0,0.0,0.0,0.0,0.0
31660000000,132,31660000000,imu_link,0.000817783214882,-0.376016155308,0.00148065298676,0.926611563626,0.0,0.0,0.0,0.0,0.0,0.0,0.0,0.0,0.0,0.00311357810877,-0.00681173710544,-0.00369918599119,0.0,0.0,0.0,0.0,0.0,0.0,0.0,0.0,0.0,6.58861954551,0.00351798838621,7.03253751522,0.0,0.0,0.0,0.0,0.0,0.0,0.0,0.0,0.0
31664000000,133,31664000000,imu_link,0.000826336093305,-0.376028902516,0.00147624690582,0.926606390187,0.0,0.0,0.0,0.0,0.0,0.0,0.0,0.0,0.0,0.00312689749692,-0.00688663694554,-0.00364033074687,0.0,0.0,0.0,0.0,0.0,0.0,0.0,0.0,0.0,6.58795871137,0.00361969728815,7.02877001805,0.0,0.0,0.0,0.0,0.0,0.0,0.0,0.0,0.0
31668000000,134,31668000000,imu_link,0.000834732710466,-0.37604173407,0.00147195331495,0.926601182177,0.0,0.0,0.0,0.0,0.0,0.0,0.0,0.0,0.0,0.00307560294132,-0.00693205268382,-0.00355877399174,0.0,0.0,0.0,0.0,0.0,0.0,0.0,0.0,0.0,6.58762612782,0.00368809888653,7.02543860198,0.0,0.0,0.0,0.0,0.0,0.0,0.0,0.0,0.0
31672000000,135,31672000000,imu_link,0.000842865835031,-0.376054452417,0.00146775017932,0.926596019905,0.0,0.0,0.0,0.0,0.0,0.0,0.0,0.0,0.0,0.00297059836547,-0.00687077297935,-0.00346740483268,0.0,0.0,0.0,0.0,0.0,0.0,0.0,0.0,0.0,6.58826522265,0.00371452778064,7.02303072608,0.0,0.0,0.0,0.0,0.0,0.0,0.0,0.0,0.0
31676000000,136,31676000000,imu_link,0.000850889841886,-0.376066683262,0.00146361862297,0.926591055184,0.0,0.0,0.0,0.0,0.0,0.0,0.0,0.0,0.0,0.00293377771138,-0.0066076585605,-0.00341407562266,0.0,0.0,0.0,0.0,0.0,0.0,0.0,0.0,0.0,6.58920914462,0.00364762991637,7.01963249412,0.0,0.0,0.0,0.0,0.0,0.0,0.0,0.0,0.0
31680000000,137,31680000000,imu_link,0.000859181903798,-0.376078245443,0.00145956530552,0.92658636121,0.0,0.0,0.0,0.0,0.0,0.0,0.0,0.0,0.0,0.00307305208961,-0.00624712278094,-0.00342871379387,0.0,0.0,0.0,0.0,0.0,0.0,0.0,0.0,0.0,6.58973011217,0.00358608780199,7.01745567167,0.0,0.0,0.0,0.0,0.0,0.0,0.0,0.0,0.0
31684000000,138,31684000000,imu_link,0.000867982305083,-0.376088969512,0.00145563347,0.926582006489,0.0,0.0,0.0,0.0,0.0,0.0,0.0,0.0,0.0,0.0033318715099,-0.00579535777238,-0.00346862735584,0.0,0.0,0.0,0.0,0.0,0.0,0.0,0.0,0.0,6.59005929023,0.0036061407773,7.01485656603,0.0,0.0,0.0,0.0,0.0,0.0,0.0,0.0,0.0
31688000000,139,31688000000,imu_link,0.000877328660039,-0.376098981056,0.00145191237102,0.926577939891,0.0,0.0,0.0,0.0,0.0,0.0,0.0,0.0,0.0,0.0036248283218,-0.00541137663428,-0.00347417752488,0.0,0.0,0.0,0.0,0.0,0.0,0.0,0.0,0.0,6.5915825067,0.00370816812368,7.01690486789,0.0,0.0,0.0,0.0,0.0,0.0,0.0,0.0,0.0
31692000000,140,31692000000,imu_link,0.000886767899183,-0.376108580635,0.00144842950874,0.92657403982,0.0,0.0,0.0,0.0,0.0,0.0,0.0,0.0,0.0,0.00371288685367,-0.00518916586961,-0.00338157351267,0.0,0.0,0.0,0.0,0.0,0.0,0.0,0.0,0.0,6.59349035266,0.00387551160033,7.02120722602,0.0,0.0,0.0,0.0,0.0,0.0,0.0,0.0,0.0
31696000000,141,31696000000,imu_link,0.000895476446557,-0.376118165384,0.00144517069458,0.926570145899,0.0,0.0,0.0,0.0,0.0,0.0,0.0,0.0,0.0,0.00341650806021,-0.005180509968,-0.00314037624255,0.0,0.0,0.0,0.0,0.0,0.0,0.0,0.0,0.0,6.59550178763,0.00404791364087,7.02668712114,0.0,0.0,0.0,0.0,0.0,0.0,0.0,0.0,0.0
31700000000,142,31700000000,imu_link,0.000902744142279,-0.376128140435,0.00144209349864,0.926566094454,0.0,0.0,0.0,0.0,0.0,0.0,0.0,0.0,0.0,0.00278292645906,-0.00538983247678,-0.00278498140843,0.0,0.0,0.0,0.0,0.0,0.0,0.0,0.0,0.0,6.59759354361,0.00408342790072,7.03221087677,0.0,0.0,0.0,0.0,0.0,0.0,0.0,0.0,0.0
31704000000,143,31704000000,imu_link,0.000908310245644,-0.376138715333,0.00143914008875,0.926561800786,0.0,0.0,0.0,0.0,0.0,0.0,0.0,0.0,0.0,0.00201756408979,-0.00571200235346,-0.00240717963744,0.0,0.0,0.0,0.0,0.0,0.0,0.0,0.0,0.0,6.59787458988,0.00394809266122,7.03230039388,0.0,0.0,0.0,0.0,0.0,0.0,0.0,0.0,0.0
31708000000,144,31708000000,imu_link,0.000912347432038,-0.376149923981,0.00143629711807,0.92655725099,0.0,0.0,0.0,0.0,0.0,0.0,0.0,0.0,0.0,0.00132967658365,-0.00605262621138,-0.00206800070656,0.0,0.0,0.0,0.0,0.0,0.0,0.0,0.0,0.0,6.59795134196,0.00369588376039,7.03031932756,0.0,0.0,0.0,0.0,0.0,0.0,0.0,0.0,0.0
31712000000,145,31712000000,imu_link,0.000915309295524,-0.376161791304,0.00143359770436,0.926552434442,0.0,0.0,0.0,0.0,0.0,0.0,0.0,0.0,0.0,0.000858150596961,-0.00640710743408,-0.00179876047678,0.0,0.0,0.0,0.0,0.0,0.0,0.0,0.0,0.0,6.59894535646,0.00345782502835,7.03005607598,0.0,0.0,0.0,0.0,0.0,0.0,0.0,0.0,0.0
31716000000,146,31716000000,imu_link,0.000917613332451,-0.376174385085,0.00143111757639,0.926547323073,0.0,0.0,0.0,0.0,0.0,0.0,0.0,0.0,0.0,0.00059425285382,-0.00679853658966,-0.00157290221093,0.0,0.0,0.0,0.0,0.0,0.0,0.0,0.0,0.0,6.59911747885,0.00324880033853,7.02856386984,0.0,0.0,0.0,0.0,0.0,0.0,0.0,0.0,0.0
31720000000,147,31720000000,imu_link,0.000919639485531,-0.3761879352,0.00142894165891,0.926541823017,0.0,0.0,0.0,0.0,0.0,0.0,0.0,0.0,0.0,0.000522228705348,-0.00731434947706,-0.00137898620707,0.0,0.0,0.0,0.0,0.0,0.0,0.0,0.0,0.0,6.5991014504,0.00306307493507,7.02826613051,0.0,0.0,0.0,0.0,0.0,0.0,0.0,0.0,0.0
31724000000,148,31724000000,imu_link,0.00092150821443,-0.376202446353,0.00142706508567,0.926535932204,0.0,0.0,0.0,0.0,0.0,0.0,0.0,0.0,0.0,0.000505096551485,-0.00783281964748,-0.00120997709693,0.0,0.0,0.0,0.0,0.0,0.0,0.0,0.0,0.0,6.59841455017,0.00301341239875,7.02481306781,0.0,0.0,0.0,0.0,0.0,0.0,0.0,0.0,0.0
31728000000,149,31728000000,imu_link,0.000923353769963,-0.376217728204,0.00142546457475,0.926529727777,0.0,0.0,0.0,0.0,0.0,0.0,0.0,0.0,0.0,0.000545883314405,-0.0082487064904,-0.00107714845474,0.0,0.0,0.0,0.0,0.0,0.0,0.0,0.0,0.0,6.59982020174,0.00299167302525,7.02379809989,0.0,0.0,0.0,0.0,0.0,0.0,0.0,0.0,0.0
31732000000,150,31732000000,imu_link,0.000925296127787,-0.376233447054,0.00142411598039,0.926523345113,0.0,0.0,0.0,0.0,0.0,0.0,0.0,0.0,0.0,0.00063788697455,-0.00848463380516,-0.00097832495011,0.0,0.0,0.0,0.0,0.0,0.0,0.0,0.0,0.0,6.60047450846,0.00300203108038,7.01993692078,0.0,0.0,0.0,0.0,0.0,0.0,0.0,0.0,0.0
31736000000,151,31736000000,imu_link,0.000927449621574,-0.376249326266,0.00142300543216,0.926516896434,0.0,0.0,0.0,0.0,0.0,0.0,0.0,0.0,0.0,0.000780394990298,-0.00857138177205,-0.000907644302126,0.0,0.0,0.0,0.0,0.0,0.0,0.0,0.0,0.0,6.60094368129,0.00303054662847,7.01626917979,0.0,0.0,0.0,0.0,0.0,0.0,0.0,0.0,0.0
31740000000,152,31740000000,imu_link,0.000929811047565,-0.376265188142,0.00142208626926,0.926510453969,0.0,0.0,0.0,0.0,0.0,0.0,0.0,0.0,0.0,0.000912735090928,-0.00856224105272,-0.000858113073398,0.0,0.0,0.0,0.0,0.0,0.0,0.0,0.0,0.0,6.60083092282,0.00308147776063,7.0124640313,0.0,0.0,0.0,0.0,0.0,0.0,0.0,0.0,0.0
31744000000,153,31744000000,imu_link,0.000932118681853,-0.376280958521,0.00142128902672,0.926504048208,0.0,0.0,0.0,0.0,0.0,0.0,0.0,0.0,0.0,0.000910800991772,-0.00851285456933,-0.00079158149129,0.0,0.0,0.0,0.0,0.0,0.0,0.0,0.0,0.0,6.60189044312,0.00318021119157,7.01177383526,0.0,0.0,0.0,0.0,0.0,0.0,0.0,0.0,0.0
31748000000,154,31748000000,imu_link,0.000934191049918,-0.37629684747,0.00142055230916,0.926497594116,0.0,0.0,0.0,0.0,0.0,0.0,0.0,0.0,0.0,0.00081313890187,-0.00857667987962,-0.00071919046376,0.0,0.0,0.0,0.0,0.0,0.0,0.0,0.0,0.0,6.6024698948,0.00322459652778,7.01282735042,0.0,0.0,0.0,0.0,0.0,0.0,0.0,0.0,0.0
31752000000,155,31752000000,imu_link,0.000935926195722,-0.376313073998,0.00141989993644,0.926491002798,0.0,0.0,0.0,0.0,0.0,0.0,0.0,0.0,0.0,0.000672614767919,-0.00875860252898,-0.000616414829737,0.0,0.0,0.0,0.0,0.0,0.0,0.0,0.0,0.0,6.6039220524,0.00322274935862,7.01530415291,0.0,0.0,0.0,0.0,0.0,0.0,0.0,0.0,0.0
31756000000,156,31756000000,imu_link,0.000937046571513,-0.376329639648,0.00141934339009,0.926484273871,0.0,0.0,0.0,0.0,0.0,0.0,0.0,0.0,0.0,0.000405679317349,-0.00894111056452,-0.000456094308236,0.0,0.0,0.0,0.0,0.0,0.0,0.0,0.0,0.0,6.60410768457,0.00327384475427,7.01357494139,0.0,0.0,0.0,0.0,0.0,0.0,0.0,0.0,0.0
31760000000,157,31760000000,imu_link,0.000937283294001,-0.376346425484,0.00141887167897,0.92647745592,0.0,0.0,0.0,0.0,0.0,0.0,0.0,0.0,0.0,1.21823287216e-05,-0.00905919397232,-0.000250356251063,0.0,0.0,0.0,0.0,0.0,0.0,0.0,0.0,0.0,6.60430814211,0.00325334028468,7.0109613585,0.0,0.0,0.0,0.0,0.0,0.0,0.0,0.0,0.0
31764000000,158,31764000000,imu_link,0.000936658288415,-0.37636343854,0.00141849369026,0.926470546039,0.0,0.0,0.0,0.0,0.0,0.0,0.0,0.0,0.0,-0.000369485555251,-0.00918109451909,-4.46145556494e-05,0.0,0.0,0.0,0.0,0.0,0.0,0.0,0.0,0.0,6.60409779095,0.00311375929319,7.00872972882,0.0,0.0,0.0,0.0,0.0,0.0,0.0,0.0,0.0
31768000000,159,31768000000,imu_link,0.000935425687462,-0.376380818085,0.00141824666669,0.926463487318,0.0,0.0,0.0,0.0,0.0,0.0,0.0,0.0,0.0,-0.000626490140807,-0.00937838216408,0.000130668662235,0.0,0.0,0.0,0.0,0.0,0.0,0.0,0.0,0.0,6.60459849728,0.0029526183954,7.00909988209,0.0,0.0,0.0,0.0,0.0,0.0,0.0,0.0,0.0
31772000000,160,31772000000,imu_link,0.000934069179868,-0.376398591875,0.00141815871963,0.926456267924,0.0,0.0,0.0,0.0,0.0,0.0,0.0,0.0,0.0,-0.000654155377144,-0.00959108340954,0.000227974319387,0.0,0.0,0.0,0.0,0.0,0.0,0.0,0.0,0.0,6.60685262797,0.00280183941677,7.01209708723,0.0,0.0,0.0,0.0,0.0,0.0,0.0,0.0,0.0
31776000000,161,31776000000,imu_link,0.00093277893367,-0.37641648793,0.00141822541505,0.926448998151,0.0,0.0,0.0,0.0,0.0,0.0,0.0,0.0,0.0,-0.000594420797272,-0.00965717664707,0.000287231540794,0.0,0.0,0.0,0.0,0.0,0.0,0.0,0.0,0.0,6.6074842827,0.0027743353564,7.00912744174,0.0,0.0,0.0,0.0,0.0,0.0,0.0,0.0,0.0
31780000000,162,31780000000,imu_link,0.000931623809003,-0.37643415794,0.00141842240303,0.926441819485,0.0,0.0,0.0,0.0,0.0,0.0,0.0,0.0,0.0,-0.000507189256454,-0.00953535426472,0.000321985235931,0.0,0.0,0.0,0.0,0.0,0.0,0.0,0.0,0.0,6.60842702431,0.00279173429418,7.0059678254,0.0,0.0,0.0,0.0,0.0,0.0,0.0,0.0,0.0
31784000000,163,31784000000,imu_link,0.000930453821462,-0.376451196682,0.00141871150947,0.926434896811,0.0,0.0,0.0,0.0,0.0,0.0,0.0,0.0,0.0,-0.000496407327739,-0.00919470292809,0.000366978270319,0.0,0.0,0.0,0.0,0.0,0.0,0.0,0.0,0.0,6.60942345085,0.00284264423448,7.00231091398,0.0,0.0,0.0,0.0,0.0,0.0,0.0,0.0,0.0
31788000000,164,31788000000,imu_link,0.000929078964676,-0.376467394167,0.00141903993169,0.926428315773,0.0,0.0,0.0,0.0,0.0,0.0,0.0,0.0,0.0,-0.000583468285944,-0.00874054943296,0.000423117949197,0.0,0.0,0.0,0.0,0.0,0.0,0.0,0.0,0.0,6.60996355031,0.00288899410487,6.99977657439,0.0,0.0,0.0,0.0,0.0,0.0,0.0,0.0,0.0
31792000000,165,31792000000,imu_link,0.000927237117772,-0.37648299125,0.00141931942519,0.92642197894,0.0,0.0,0.0,0.0,0.0,0.0,0.0,0.0,0.0,-0.000808682200319,-0.00841615856943,0.000487904568938,0.0,0.0,0.0,0.0,0.0,0.0,0.0,0.0,0.0,6.6106882034,0.00292618543444,7.00164843217,0.0,0.0,0.0,0.0,0.0,0.0,0.0,0.0,0.0
31796000000,166,31796000000,imu_link,0.00092494996754,-0.376498541647,0.00141950516071,0.926415661359,0.0,0.0,0.0,0.0,0.0,0.0,0.0,0.0,0.0,-0.00103257653276,-0.00839063633017,0.000528264097725,0.0,0.0,0.0,0.0,0.0,0.0,0.0,0.0,0.0,6.612327598,0.00287183584331,7.00778304496,0.0,0.0,0.0,0.0,0.0,0.0,0.0,0.0,0.0
31800000000,167,31800000000,imu_link,0.000922407284976,-0.376514509008,0.00141962978605,0.926409174351,0.0,0.0,0.0,0.0,0.0,0.0,0.0,0.0,0.0,-0.00116266264251,-0.00861551894681,0.000548374248253,0.0,0.0,0.0,0.0,0.0,0.0,0.0,0.0,0.0,6.61298939833,0.00281201040763,7.01113478988,0.0,0.0,0.0,0.0,0.0,0.0,0.0,0.0,0.0
31804000000,168,31804000000,imu_link,0.000919765398074,-0.376531191898,0.00141971799581,0.926402396348,0.0,0.0,0.0,0.0,0.0,0.0,0.0,0.0,0.0,-0.00121584372981,-0.0090016834227,0.000550718876122,0.0,0.0,0.0,0.0,0.0,0.0,0.0,0.0,0.0,6.61396537017,0.0028160170235,7.01358376057,0.0,0.0,0.0,0.0,0.0,0.0,0.0,0.0,0.0
31808000000,169,31808000000,imu_link,0.000917136867256,-0.376548556412,0.0014197843876,0.926395340951,0.0,0.0,0.0,0.0,0.0,0.0,0.0,0.0,0.0,-0.00121412103399,-0.00936965544623,0.000538608657485,0.0,0.0,0.0,0.0,0.0,0.0,0.0,0.0,0.0,6.61415880207,0.00283520237671,7.01180852596,0.0,0.0,0.0,0.0,0.0,0.0,0.0,0.0,0.0
31812000000,170,31812000000,imu_link,0.000914742263331,-0.37656647143,0.00141982663759,0.9263880612,0.0,0.0,0.0,0.0,0.0,0.0,0.0,0.0,0.0,-0.00111059984127,-0.00966706568704,0.000483795523666,0.0,0.0,0.0,0.0,0.0,0.0,0.0,0.0,0.0,6.61489283319,0.00280767034946,7.0103772548,0.0,0.0,0.0,0.0,0.0,0.0,0.0,0.0,0.0
31816000000,171,31816000000,imu_link,0.00091263048926,-0.37658493485,0.00141985533349,0.926380557849,0.0,0.0,0.0,0.0,0.0,0.0,0.0,0.0,0.0,-0.000982433798678,-0.00996338862964,0.000424674788448,0.0,0.0,0.0,0.0,0.0,0.0,0.0,0.0,0.0,6.61512978731,0.00284899386078,7.00900495859,0.0,0.0,0.0,0.0,0.0,0.0,0.0,0.0,0.0
31820000000,172,31820000000,imu_link,0.000910661722835,-0.37660397255,0.00141987805089,0.926372820468,0.0,0.0,0.0,0.0,0.0,0.0,0.0,0.0,0.0,-0.000917620659224,-0.0102735600172,0.000395406539498,0.0,0.0,0.0,0.0,0.0,0.0,0.0,0.0,0.0,6.61524535316,0.00292995186265,7.00781485233,0.0,0.0,0.0,0.0,0.0,0.0,0.0,0.0,0.0
31824000000,173,31824000000,imu_link,0.000908661633643,-0.37662356911,0.00141989651306,0.926364855453,0.0,0.0,0.0,0.0,0.0,0.0,0.0,0.0,0.0,-0.000933223316143,-0.0105752600476,0.000399749786395,0.0,0.0,0.0,0.0,0.0,0.0,0.0,0.0,0.0,6.61554462494,0.00301823952426,7.00621544492,0.0,0.0,0.0,0.0,0.0,0.0,0.0,0.0,0.0
31828000000,174,31828000000,imu_link,0.000906390369471,-0.376643685237,0.00141991471096,0.926356678969,0.0,0.0,0.0,0.0,0.0,0.0,0.0,0.0,0.0,-0.00105914935607,-0.0108555443117,0.000451079012194,0.0,0.0,0.0,0.0,0.0,0.0,0.0,0.0,0.0,6.61688026837,0.00307483316551,7.00643824101,0.0,0.0,0.0,0.0,0.0,0.0,0.0,0.0,0.0
31832000000,175,31832000000,imu_link,0.00090384260459,-0.37666430031,0.00141993555498,0.926348299358,0.0,0.0,0.0,0.0,0.0,0.0,0.0,0.0,0.0,-0.00118698234506,-0.0111247003915,0.000504746096141,0.0,0.0,0.0,0.0,0.0,0.0,0.0,0.0,0.0,6.61758315167,0.00306664191867,7.00549714185,0.0,0.0,0.0,0.0,0.0,0.0,0.0,0.0,0.0
31836000000,176,31836000000,imu_link,0.000901177334182,-0.376685036106,0.00141996112636,0.926339870222,0.0,0.0,0.0,0.0,0.0,0.0,0.0,0.0,0.0,-0.00124058088434,-0.0111898583824,0.000529155469961,0.0,0.0,0.0,0.0,0.0,0.0,0.0,0.0,0.0,6.61833508987,0.00302806083179,7.00160951729,0.0,0.0,0.0,0.0,0.0,0.0,0.0,0.0,0.0
31840000000,177,31840000000,imu_link,0.000898515030699,-0.376705193387,0.00141999194947,0.926331675788,0.0,0.0,0.0,0.0,0.0,0.0,0.0,0.0,0.0,-0.0012379125877,-0.0108777027374,0.000530601812414,0.0,0.0,0.0,0.0,0.0,0.0,0.0,0.0,0.0,6.62155872026,0.00300193253837,6.99932279596,0.0,0.0,0.0,0.0,0.0,0.0,0.0,0.0,0.0
31844000000,178,31844000000,imu_link,0.000895885009397,-0.376724018695,0.00142001292509,0.926324022517,0.0,0.0,0.0,0.0,0.0,0.0,0.0,0.0,0.0,-0.001224112811,-0.0101588763899,0.000518977735022,0.0,0.0,0.0,0.0,0.0,0.0,0.0,0.0,0.0,6.62311192431,0.00299468685595,6.99366691306,0.0,0.0,0.0,0.0,0.0,0.0,0.0,0.0,0.0
31848000000,179,31848000000,imu_link,0.000893189433132,-0.376740947323,0.00142003041519,0.926317140258,0.0,0.0,0.0,0.0,0.0,0.0,0.0,0.0,0.0,-0.0012541306327,-0.0091351318769,0.000528314413751,0.0,0.0,0.0,0.0,0.0,0.0,0.0,0.0,0.0,6.62442826308,0.00309445057762,6.98966776274,0.0,0.0,0.0,0.0,0.0,0.0,0.0,0.0,0.0
31852000000,180,31852000000,imu_link,0.00089040868223,-0.376755870435,0.00142006250238,0.926311073392,0.0,0.0,0.0,0.0,0.0,0.0,0.0,0.0,0.0,-0.00128977053924,-0.00805259688529,0.000549644969532,0.0,0.0,0.0,0.0,0.0,0.0,0.0,0.0,0.0,6.62397927393,0.00316575522553,6.98701241173,0.0,0.0,0.0,0.0,0.0,0.0,0.0,0.0,0.0
31856000000,181,31856000000,imu_link,0.000887647498072,-0.376768986044,0.00142013547556,0.926305741347,0.0,0.0,0.0,0.0,0.0,0.0,0.0,0.0,0.0,-0.0012720498373,-0.00707701377601,0.00056356914681,0.0,0.0,0.0,0.0,0.0,0.0,0.0,0.0,0.0,6.62276172096,0.00315327322516,6.98553455494,0.0,0.0,0.0,0.0,0.0,0.0,0.0,0.0,0.0
31860000000,182,31860000000,imu_link,0.000885076377887,-0.37678065377,0.00142027494047,0.926300997734,0.0,0.0,0.0,0.0,0.0,0.0,0.0,0.0,0.0,-0.00117072821478,-0.00629567630026,0.000557499449071,0.0,0.0,0.0,0.0,0.0,0.0,0.0,0.0,0.0,6.62375693819,0.00314799186771,6.9895817674,0.0,0.0,0.0,0.0,0.0,0.0,0.0,0.0,0.0
31864000000,183,31864000000,imu_link,0.000882747069526,-0.376791163323,0.00142044307607,0.926296724782,0.0,0.0,0.0,0.0,0.0,0.0,0.0,0.0,0.0,-0.00105271749106,-0.00567075882515,0.000524376512528,0.0,0.0,0.0,0.0,0.0,0.0,0.0,0.0,0.0,6.6239615686,0.00318716723004,6.99125252095,0.0,0.0,0.0,0.0,0.0,0.0,0.0,0.0,0.0
31868000000,184,31868000000,imu_link,0.000880874394653,-0.376800885793,0.00142063552035,0.926292771385,0.0,0.0,0.0,0.0,0.0,0.0,0.0,0.0,0.0,-0.000836230833009,-0.005246333502,0.000449032951439,0.0,0.0,0.0,0.0,0.0,0.0,0.0,0.0,0.0,6.625005733,0.00321625253882,6.99518301144,0.0,0.0,0.0,0.0,0.0,0.0,0.0,0.0,0.0
31872000000,185,31872000000,imu_link,0.000879641471144,-0.376810384262,0.001420856248,0.926288908338,0.0,0.0,0.0,0.0,0.0,0.0,0.0,0.0,0.0,-0.000534484380845,-0.00512600869354,0.000341440021606,0.0,0.0,0.0,0.0,0.0,0.0,0.0,0.0,0.0,6.62649435335,0.00327837169146,7.00144037039,0.0,0.0,0.0,0.0,0.0,0.0,0.0,0.0,0.0
31876000000,186,31876000000,imu_link,0.000879080039787,-0.376820349469,0.00142110746065,0.92628485462,0.0,0.0,0.0,0.0,0.0,0.0,0.0,0.0,0.0,-0.000217990705846,-0.00537856226225,0.000229387106529,0.0,0.0,0.0,0.0,0.0,0.0,0.0,0.0,0.0,6.62799510788,0.00336320258541,7.00837560237,0.0,0.0,0.0,0.0,0.0,0.0,0.0,0.0,0.0
31880000000,187,31880000000,imu_link,0.000879062326143,-0.376831190877,0.00142135669986,0.926280443806,0.0,0.0,0.0,0.0,0.0,0.0,0.0,0.0,0.0,3.29905903888e-05,-0.00585203605439,0.000126670038314,0.0,0.0,0.0,0.0,0.0,0.0,0.0,0.0,0.0,6.62869314586,0.00348504990735,7.01137273318,0.0,0.0,0.0,0.0,0.0,0.0,0.0,0.0,0.0
31884000000,188,31884000000,imu_link,0.000879167823674,-0.376843198484,0.0014215267719,0.926275558396,0.0,0.0,0.0,0.0,0.0,0.0,0.0,0.0,0.0,7.45181172104e-05,-0.00648169360534,6.76394942103e-05,0.0,0.0,0.0,0.0,0.0,0.0,0.0,0.0,0.0,6.63038484232,0.0036336524892,7.01507262243,0.0,0.0,0.0,0.0,0.0,0.0,0.0,0.0,0.0
31888000000,189,31888000000,imu_link,0.000878730649859,-0.376856466765,0.00142154036902,0.926270160651,0.0,0.0,0.0,0.0,0.0,0.0,0.0,0.0,0.0,-0.000206967564912,-0.00716177726299,9.83393722178e-05,0.0,0.0,0.0,0.0,0.0,0.0,0.0,0.0,0.0,6.63212189498,0.00376181802249,7.01686981298,0.0,0.0,0.0,0.0,0.0,0.0,0.0,0.0,0.0
31892000000,190,31892000000,imu_link,0.000877066709566,-0.37687086804,0.00142132410774,0.926264303217,0.0,0.0,0.0,0.0,0.0,0.0,0.0,0.0,0.0,-0.000819041297207,-0.0077723537052,0.000223865850766,0.0,0.0,0.0,0.0,0.0,0.0,0.0,0.0,0.0,6.63515966045,0.00384782405397,7.0192790593,0.0,0.0,0.0,0.0,0.0,0.0,0.0,0.0,0.0
31900000000,191,31900000000,imu_link,0.000869153573375,-0.376901687486,0.00142011321403,0.926251772371,0.0,0.0,0.0,0.0,0.0,0.0,0.0,0.0,0.0,-0.00231799956127,-0.00842085223704,0.000555819480825,0.0,0.0,0.0,0.0,0.0,0.0,0.0,0.0,0.0,6.6359797731,0.00364768124409,7.01260738968,0.0,0.0,0.0,0.0,0.0,0.0,0.0,0.0,0.0
31904000000,192,31904000000,imu_link,0.000863456953267,-0.376917362082,0.00141917089508,0.926245400829,0.0,0.0,0.0,0.0,0.0,0.0,0.0,0.0,0.0,-0.00282419396185,-0.00845639812403,0.000648456541698,0.0,0.0,0.0,0.0,0.0,0.0,0.0,0.0,0.0,6.63796606763,0.00331995619726,7.009049981,0.0,0.0,0.0,0.0,0.0,0.0,0.0,0.0,0.0
31908000000,193,31908000000,imu_link,0.000857356671071,-0.376932830752,0.00141807462782,0.926239113353,0.0,0.0,0.0,0.0,0.0,0.0,0.0,0.0,0.0,-0.00304004210696,-0.0083449663094,0.000653084649523,0.0,0.0,0.0,0.0,0.0,0.0,0.0,0.0,0.0,6.63810444255,0.00309973011938,7.00539474575,0.0,0.0,0.0,0.0,0.0,0.0,0.0,0.0,0.0
31912000000,194,31912000000,imu_link,0.000851455159893,-0.376947991843,0.00141687637359,0.926232950683,0.0,0.0,0.0,0.0,0.0,0.0,0.0,0.0,0.0,-0.00296704389706,-0.00817918358343,0.000568170483721,0.0,0.0,0.0,0.0,0.0,0.0,0.0,0.0,0.0,6.64023755118,0.00298113826608,7.00708836845,0.0,0.0,0.0,0.0,0.0,0.0,0.0,0.0,0.0
31916000000,195,31916000000,imu_link,0.000845977490615,-0.376962929279,0.00141559922179,0.926226878443,0.0,0.0,0.0,0.0,0.0,0.0,0.0,0.0,0.0,-0.00278550592294,-0.00805889537,0.000451589262619,0.0,0.0,0.0,0.0,0.0,0.0,0.0,0.0,0.0,6.64037218398,0.00303077647718,7.00669545058,0.0,0.0,0.0,0.0,0.0,0.0,0.0,0.0,0.0
31920000000,196,31920000000,imu_link,0.000840972630631,-0.376977963371,0.00141426765882,0.926220766203,0.0,0.0,0.0,0.0,0.0,0.0,0.0,0.0,0.0,-0.00257684857405,-0.0081115545033,0.000337344126758,0.0,0.0,0.0,0.0,0.0,0.0,0.0,0.0,0.0,6.64093087367,0.00313195711606,7.00899787708,0.0,0.0,0.0,0.0,0.0,0.0,0.0,0.0,0.0
31924000000,197,31924000000,imu_link,0.000836373594844,-0.376993502959,0.00141293300768,0.926214447537,0.0,0.0,0.0,0.0,0.0,0.0,0.0,0.0,0.0,-0.00238975991628,-0.0083848527213,0.000259779097656,0.0,0.0,0.0,0.0,0.0,0.0,0.0,0.0,0.0,6.64167162358,0.00325601275708,7.01248700989,0.0,0.0,0.0,0.0,0.0,0.0,0.0,0.0,0.0
31928000000,198,31928000000,imu_link,0.000832128245836,-0.377009770955,0.00141165631354,0.926207831641,0.0,0.0,0.0,0.0,0.0,0.0,0.0,0.0,0.0,-0.00221543060469,-0.00877843585829,0.000220465188441,0.0,0.0,0.0,0.0,0.0,0.0,0.0,0.0,0.0,6.64152483637,0.00335271221166,7.01235517403,0.0,0.0,0.0,0.0,0.0,0.0,0.0,0.0,0.0
31932000000,199,31932000000,imu_link,0.000828301214836,-0.37702667408,0.00141047070173,0.926200956338,0.0,0.0,0.0,0.0,0.0,0.0,0.0,0.0,0.0,-0.0020048767965,-0.00912172367433,0.000184238133032,0.0,0.0,0.0,0.0,0.0,0.0,0.0,0.0,0.0,6.64141192977,0.00341207342887,7.00918246016,0.0,0.0,0.0,0.0,0.0,0.0,0.0,0.0,0.0
31936000000,200,31936000000,imu_link,0.000825020014331,-0.37704387257,0.00140937942662,0.926193959789,0.0,0.0,0.0,0.0,0.0,0.0,0.0,0.0,0.0,-0.00173447679408,-0.00928170974903,0.0001252370101,0.0,0.0,0.0,0.0,0.0,0.0,0.0,0.0,0.0,6.64227799703,0.00351698469645,7.00570329732,0.0,0.0,0.0,0.0,0.0,0.0,0.0,0.0,0.0
31940000000,201,31940000000,imu_link,0.0008223546895,-0.377061167777,0.00140838471775,0.926186922786,0.0,0.0,0.0,0.0,0.0,0.0,0.0,0.0,0.0,-0.0014311132414,-0.00933451980304,5.39188766639e-05,0.0,0.0,0.0,0.0,0.0,0.0,0.0,0.0,0.0,6.64189184055,0.00368653373628,7.00148796571,0.0,0.0,0.0,0.0,0.0,0.0,0.0,0.0,0.0
31944000000,202,31944000000,imu_link,0.000820175875803,-0.377078437369,0.00140746152271,0.926179895288,0.0,0.0,0.0,0.0,0.0,0.0,0.0,0.0,0.0,-0.00119231644362,-0.00932117864041,-4.70299309068e-06,0.0,0.0,0.0,0.0,0.0,0.0,0.0,0.0,0.0,6.64207712016,0.00386906586634,6.99903581789,0.0,0.0,0.0,0.0,0.0,0.0,0.0,0.0,0.0
31948000000,203,31948000000,imu_link,0.000818169230812,-0.377095816257,0.00140657462687,0.9261728227,0.0,0.0,0.0,0.0,0.0,0.0,0.0,0.0,0.0,-0.00110580144754,-0.00938040005578,-2.0277198911e-05,0.0,0.0,0.0,0.0,0.0,0.0,0.0,0.0,0.0,6.64293682046,0.00401293830359,7.00033704845,0.0,0.0,0.0,0.0,0.0,0.0,0.0,0.0,0.0
31952000000,204,31952000000,imu_link,0.000816033428157,-0.377113510685,0.00140572630965,0.926165621302,0.0,0.0,0.0,0.0,0.0,0.0,0.0,0.0,0.0,-0.00115850791091,-0.00955070266095,2.21601140104e-05,0.0,0.0,0.0,0.0,0.0,0.0,0.0,0.0,0.0,6.64483706634,0.0041073838082,7.00440955709,0.0,0.0,0.0,0.0,0.0,0.0,0.0,0.0,0.0
31956000000,205,31956000000,imu_link,0.000813665509248,-0.377131505166,0.00140491728724,0.926158297467,0.0,0.0,0.0,0.0,0.0,0.0,0.0,0.0,0.0,-0.00125874859588,-0.00971255921184,8.43324357267e-05,0.0,0.0,0.0,0.0,0.0,0.0,0.0,0.0,0.0,6.64433027263,0.00412463106843,7.00179374808,0.0,0.0,0.0,0.0,0.0,0.0,0.0,0.0,0.0
31960000000,206,31960000000,imu_link,0.000810889580842,-0.377149431063,0.0014041242195,0.92615100148,0.0,0.0,0.0,0.0,0.0,0.0,0.0,0.0,0.0,-0.00144464393312,-0.00967525501692,0.000168609866967,0.0,0.0,0.0,0.0,0.0,0.0,0.0,0.0,0.0,6.64501780327,0.0041511184327,6.99802543257,0.0,0.0,0.0,0.0,0.0,0.0,0.0,0.0,0.0
31964000000,207,31964000000,imu_link,0.000807782655395,-0.377166859184,0.00140334748274,0.92614390806,0.0,0.0,0.0,0.0,0.0,0.0,0.0,0.0,0.0,-0.00159457360344,-0.00940630904007,0.000238245982298,0.0,0.0,0.0,0.0,0.0,0.0,0.0,0.0,0.0,6.64586260265,0.00409638560623,6.99413901239,0.0,0.0,0.0,0.0,0.0,0.0,0.0,0.0,0.0
31968000000,208,31968000000,imu_link,0.000804380464722,-0.377183371813,0.00140258577175,0.926137187329,0.0,0.0,0.0,0.0,0.0,0.0,0.0,0.0,0.0,-0.00172797718796,-0.00891187425694,0.000300254854727,0.0,0.0,0.0,0.0,0.0,0.0,0.0,0.0,0.0,6.64734564108,0.00404736630621,6.99152721766,0.0,0.0,0.0,0.0,0.0,0.0,0.0,0.0,0.0
31972000000,209,31972000000,imu_link,0.000800709093289,-0.377198649628,0.00140183560491,0.926130969378,0.0,0.0,0.0,0.0,0.0,0.0,0.0,0.0,0.0,-0.00184978545863,-0.00824505715007,0.000355516619153,0.0,0.0,0.0,0.0,0.0,0.0,0.0,0.0,0.0,6.6483058108,0.00399736109151,6.98897070963,0.0,0.0,0.0,0.0,0.0,0.0,0.0,0.0,0.0
31976000000,210,31976000000,imu_link,0.000796941335355,-0.377212627831,0.00140107801745,0.926125280548,0.0,0.0,0.0,0.0,0.0,0.0,0.0,0.0,0.0,-0.00189511915961,-0.00754339559322,0.000369367638745,0.0,0.0,0.0,0.0,0.0,0.0,0.0,0.0,0.0,6.64819460671,0.00392605761645,6.98694227663,0.0,0.0,0.0,0.0,0.0,0.0,0.0,0.0,0.0
31980000000,211,31980000000,imu_link,0.000793192426593,-0.377225462337,0.00140029121961,0.926120057333,0.0,0.0,0.0,0.0,0.0,0.0,0.0,0.0,0.0,-0.00189128440604,-0.00692599857143,0.000351504413686,0.0,0.0,0.0,0.0,0.0,0.0,0.0,0.0,0.0,6.64837702969,0.00390205952533,6.98740410788,0.0,0.0,0.0,0.0,0.0,0.0,0.0,0.0,0.0
31984000000,212,31984000000,imu_link,0.000789637933898,-0.377237391947,0.00139949099992,0.926115202344,0.0,0.0,0.0,0.0,0.0,0.0,0.0,0.0,0.0,-0.00180330210367,-0.00643766725298,0.000308003262892,0.0,0.0,0.0,0.0,0.0,0.0,0.0,0.0,0.0,6.64890429828,0.00397564071876,6.98929743641,0.0,0.0,0.0,0.0,0.0,0.0,0.0,0.0,0.0
31988000000,213,31988000000,imu_link,0.000786437109156,-0.377248877126,0.00139874801179,0.926110527814,0.0,0.0,0.0,0.0,0.0,0.0,0.0,0.0,0.0,-0.00162849878793,-0.0061980568501,0.000267494637016,0.0,0.0,0.0,0.0,0.0,0.0,0.0,0.0,0.0,6.64989551645,0.00406914022222,6.99393287498,0.0,0.0,0.0,0.0,0.0,0.0,0.0,0.0,0.0
31992000000,214,31992000000,imu_link,0.000783447095679,-0.37726039837,0.00139808724109,0.926105838112,0.0,0.0,0.0,0.0,0.0,0.0,0.0,0.0,0.0,-0.00151539256285,-0.00621773336694,0.000265826482244,0.0,0.0,0.0,0.0,0.0,0.0,0.0,0.0,0.0,6.6513981969,0.00416366417289,6.99967305122,0.0,0.0,0.0,0.0,0.0,0.0,0.0,0.0,0.0
31996000000,215,31996000000,imu_link,0.000780313513499,-0.377272215701,0.00139744465717,0.926101027707,0.0,0.0,0.0,0.0,0.0,0.0,0.0,0.0,0.0,-0.00157860158917,-0.00637749890358,0.000301529683345,0.0,0.0,0.0,0.0,0.0,0.0,0.0,0.0,0.0,6.65219581656,0.00427345924221,7.00206970242,0.0,0.0,0.0,0.0,0.0,0.0,0.0,0.0,0.0
32000000000,216,32000000000,imu_link,0.000776767056691,-0.377284524011,0.0013967744589,0.926096017482,0.0,0.0,0.0,0.0,0.0,0.0,0.0,0.0,0.0,-0.00177525755966,-0.0066422619688,0.00036695707872,0.0,0.0,0.0,0.0,0.0,0.0,0.0,0.0,0.0,6.65273581963,0.00430830590939,7.00333206702,0.0,0.0,0.0,0.0,0.0,0.0,0.0,0.0,0.0
32004000000,217,32004000000,imu_link,0.000772742291276,-0.377297467354,0.00139604183343,0.926090748828,0.0,0.0,0.0,0.0,0.0,0.0,0.0,0.0,0.0,-0.00200885694278,-0.0069847535923,0.000428706632078,0.0,0.0,0.0,0.0,0.0,0.0,0.0,0.0,0.0,6.65307734495,0.00428019748502,7.00354119451,0.0,0.0,0.0,0.0,0.0,0.0,0.0,0.0,0.0
32008000000,218,32008000000,imu_link,0.00076849801319,-0.377310902862,0.00139525629112,0.926085279687,0.0,0.0,0.0,0.0,0.0,0.0,0.0,0.0,0.0,-0.00212075004583,-0.00725033724825,0.000445944618727,0.0,0.0,0.0,0.0,0.0,0.0,0.0,0.0,0.0,6.65373251055,0.00418558822788,7.00185346291,0.0,0.0,0.0,0.0,0.0,0.0,0.0,0.0,0.0
32012000000,219,32012000000,imu_link,0.000764311850846,-0.37732458332,0.00139444457339,0.926079710486,0.0,0.0,0.0,0.0,0.0,0.0,0.0,0.0,0.0,-0.00209891055015,-0.00738268726283,0.000423024361749,0.0,0.0,0.0,0.0,0.0,0.0,0.0,0.0,0.0,6.65479067936,0.00411680412939,6.99973792467,0.0,0.0,0.0,0.0,0.0,0.0,0.0,0.0,0.0
32016000000,220,32016000000,imu_link,0.000760309801862,-0.377338373364,0.00139360973907,0.926074096262,0.0,0.0,0.0,0.0,0.0,0.0,0.0,0.0,0.0,-0.00201807915469,-0.00744206066156,0.000377658479272,0.0,0.0,0.0,0.0,0.0,0.0,0.0,0.0,0.0,6.65595916561,0.00411618893326,6.99889234143,0.0,0.0,0.0,0.0,0.0,0.0,0.0,0.0,0.0
32020000000,221,32020000000,imu_link,0.000756338177374,-0.377352236198,0.00139271781065,0.926068452182,0.0,0.0,0.0,0.0,0.0,0.0,0.0,0.0,0.0,-0.00201480275487,-0.00748144161159,0.000345530105795,0.0,0.0,0.0,0.0,0.0,0.0,0.0,0.0,0.0,6.6563905482,0.00417362891093,6.99756353566,0.0,0.0,0.0,0.0,0.0,0.0,0.0,0.0,0.0
32024000000,222,32024000000,imu_link,0.000752245227009,-0.377366078231,0.0013917409726,0.926062816544,0.0,0.0,0.0,0.0,0.0,0.0,0.0,0.0,0.0,-0.00208698991593,-0.00747016433117,0.000329091588179,0.0,0.0,0.0,0.0,0.0,0.0,0.0,0.0,0.0,6.65773424991,0.0042046846541,6.9972536288,0.0,0.0,0.0,0.0,0.0,0.0,0.0,0.0,0.0
32028000000,223,32028000000,imu_link,0.000747950607211,-0.377379987902,0.00139063262246,0.926057153443,0.0,0.0,0.0,0.0,0.0,0.0,0.0,0.0,0.0,-0.00220522003456,-0.00750657423506,0.000306293518345,0.0,0.0,0.0,0.0,0.0,0.0,0.0,0.0,0.0,6.65904098518,0.00427098521724,6.9990825983,0.0,0.0,0.0,0.0,0.0,0.0,0.0,0.0,0.0
32032000000,224,32032000000,imu_link,0.000743599718897,-0.377394294063,0.00138940706601,0.926051328716,0.0,0.0,0.0,0.0,0.0,0.0,0.0,0.0,0.0,-0.00225360486673,-0.00772066227861,0.000262901608758,0.0,0.0,0.0,0.0,0.0,0.0,0.0,0.0,0.0,6.66000005689,0.00434341637906,7.00218993367,0.0,0.0,0.0,0.0,0.0,0.0,0.0,0.0,0.0
32036000000,225,32036000000,imu_link,0.000739307320838,-0.377409233659,0.0013880735664,0.926045245669,0.0,0.0,0.0,0.0,0.0,0.0,0.0,0.0,0.0,-0.00224723494828,-0.00806278352876,0.000202299180592,0.0,0.0,0.0,0.0,0.0,0.0,0.0,0.0,0.0,6.6606943086,0.00437119146078,7.00407115104,0.0,0.0,0.0,0.0,0.0,0.0,0.0,0.0,0.0
32040000000,226,32040000000,imu_link,0.000735095186432,-0.377424648422,0.00138661906732,0.926038968773,0.0,0.0,0.0,0.0,0.0,0.0,0.0,0.0,0.0,-0.00223316234714,-0.00831947748397,0.000131437750298,0.0,0.0,0.0,0.0,0.0,0.0,0.0,0.0,0.0,6.66101220015,0.00439742533012,7.00169009998,0.0,0.0,0.0,0.0,0.0,0.0,0.0,0.0,0.0
32044000000,227,32044000000,imu_link,0.000730510954456,-0.377440131906,0.00138499941617,0.926032664088,0.0,0.0,0.0,0.0,0.0,0.0,0.0,0.0,0.0,-0.00243665443537,-0.00835634382854,0.00012523304445,0.0,0.0,0.0,0.0,0.0,0.0,0.0,0.0,0.0,6.66271781998,0.00450524737228,6.99988903507,0.0,0.0,0.0,0.0,0.0,0.0,0.0,0.0,0.0
32052000000,228,32052000000,imu_link,0.000718598705577,-0.37746998151,0.00138103507815,0.926020512417,0.0,0.0,0.0,0.0,0.0,0.0,0.0,0.0,0.0,-0.003421970152,-0.00795677077668,0.000257946437404,0.0,0.0,0.0,0.0,0.0,0.0,0.0,0.0,0.0,6.66454811266,0.00451491052708,6.99712550849,0.0,0.0,0.0,0.0,0.0,0.0,0.0,0.0,0.0
32056000000,229,32056000000,imu_link,0.000711112245335,-0.377484669201,0.00137866489218,0.926014534508,0.0,0.0,0.0,0.0,0.0,0.0,0.0,0.0,0.0,-0.00392163915232,-0.00792447444428,0.000324941719782,0.0,0.0,0.0,0.0,0.0,0.0,0.0,0.0,0.0,6.66401962007,0.00442194035043,6.9971439372,0.0,0.0,0.0,0.0,0.0,0.0,0.0,0.0,0.0
32060000000,230,32060000000,imu_link,0.000703020487429,-0.37749965985,0.00137608481575,0.926008433529,0.0,0.0,0.0,0.0,0.0,0.0,0.0,0.0,0.0,-0.0042416766642,-0.00808763178221,0.000342198762745,0.0,0.0,0.0,0.0,0.0,0.0,0.0,0.0,0.0,6.66429724347,0.00427150421778,6.99940972727,0.0,0.0,0.0,0.0,0.0,0.0,0.0,0.0,0.0
32064000000,231,32064000000,imu_link,0.000694820548359,-0.377515047893,0.00137335007353,0.926002170488,0.0,0.0,0.0,0.0,0.0,0.0,0.0,0.0,0.0,-0.00432117459947,-0.00830219633384,0.000291258218876,0.0,0.0,0.0,0.0,0.0,0.0,0.0,0.0,0.0,6.66600882759,0.00414531899647,7.00190700426,0.0,0.0,0.0,0.0,0.0,0.0,0.0,0.0,0.0
32072000000,232,32072000000,imu_link,0.000679686950659,-0.377546401915,0.00136764823673,0.925989407048,0.0,0.0,0.0,0.0,0.0,0.0,0.0,0.0,0.0,-0.00390953534633,-0.00849946584574,5.3083656375e-05,0.0,0.0,0.0,0.0,0.0,0.0,0.0,0.0,0.0,6.66645170537,0.00407097971656,6.99787931917,0.0,0.0,0.0,0.0,0.0,0.0,0.0,0.0,0.0
32076000000,233,32076000000,imu_link,0.000673396314198,-0.377562321726,0.00136484275565,0.925982924764,0.0,0.0,0.0,0.0,0.0,0.0,0.0,0.0,0.0,-0.00345081439625,-0.00859112150217,-0.000101576312291,0.0,0.0,0.0,0.0,0.0,0.0,0.0,0.0,0.0,6.66771244625,0.00434487928705,6.99762492069,0.0,0.0,0.0,0.0,0.0,0.0,0.0,0.0,0.0
32080000000,234,32080000000,imu_link,0.000668401969607,-0.377578399986,0.00136218206308,0.925976376353,0.0,0.0,0.0,0.0,0.0,0.0,0.0,0.0,0.0,-0.00282339484938,-0.00867780147914,-0.000279157480376,0.0,0.0,0.0,0.0,0.0,0.0,0.0,0.0,0.0,6.66753452288,0.0045266448785,6.99557703437,0.0,0.0,0.0,0.0,0.0,0.0,0.0,0.0,0.0
32084000000,235,32084000000,imu_link,0.000664761690456,-0.377594383572,0.00135970547071,0.925969864946,0.0,0.0,0.0,0.0,0.0,0.0,0.0,0.0,0.0,-0.00216167029912,-0.00862784328733,-0.000449611031728,0.0,0.0,0.0,0.0,0.0,0.0,0.0,0.0,0.0,6.66833350717,0.00476146738239,6.99313381667,0.0,0.0,0.0,0.0,0.0,0.0,0.0,0.0,0.0
32088000000,236,32088000000,imu_link,0.00066214430718,-0.377609852501,0.00135739592235,0.925963562099,0.0,0.0,0.0,0.0,0.0,0.0,0.0,0.0,0.0,-0.00165626691173,-0.00835082863345,-0.000565704896707,0.0,0.0,0.0,0.0,0.0,0.0,0.0,0.0,0.0,6.66847000321,0.00505131514709,6.9883590177,0.0,0.0,0.0,0.0,0.0,0.0,0.0,0.0,0.0
32092000000,237,32092000000,imu_link,0.000660025256263,-0.377624324421,0.00135521701964,0.925957664993,0.0,0.0,0.0,0.0,0.0,0.0,0.0,0.0,0.0,-0.0014003392292,-0.00781292145107,-0.000599911403315,0.0,0.0,0.0,0.0,0.0,0.0,0.0,0.0,0.0,6.66920379777,0.0053098937582,6.98430798081,0.0,0.0,0.0,0.0,0.0,0.0,0.0,0.0,0.0
32096000000,238,32096000000,imu_link,0.000658174417285,-0.377637651474,0.0013531356717,0.9259522342,0.0,0.0,0.0,0.0,0.0,0.0,0.0,0.0,0.0,-0.00125712136786,-0.00719497587906,-0.000606081081124,0.0,0.0,0.0,0.0,0.0,0.0,0.0,0.0,0.0,6.6684078194,0.00543960186957,6.98044394024,0.0,0.0,0.0,0.0,0.0,0.0,0.0,0.0,0.0
32100000000,239,32100000000,imu_link,0.000656530011784,-0.377649945316,0.00135111389562,0.92594722434,0.0,0.0,0.0,0.0,0.0,0.0,0.0,0.0,0.0,-0.0011497387962,-0.00663726404953,-0.000618104066543,0.0,0.0,0.0,0.0,0.0,0.0,0.0,0.0,0.0,6.66767792398,0.00549627230042,6.97909571279,0.0,0.0,0.0,0.0,0.0,0.0,0.0,0.0,0.0
32104000000,240,32104000000,imu_link,0.0006550564161,-0.377661285433,0.00134912410216,0.925942603108,0.0,0.0,0.0,0.0,0.0,0.0,0.0,0.0,0.0,-0.00106410252004,-0.0061224367038,-0.000636125734957,0.0,0.0,0.0,0.0,0.0,0.0,0.0,0.0,0.0,6.66721537556,0.00552711137169,6.97770782162,0.0,0.0,0.0,0.0,0.0,0.0,0.0,0.0,0.0
32108000000,241,32108000000,imu_link,0.000653907868583,-0.3776718161,0.00134716596577,0.925938311591,0.0,0.0,0.0,0.0,0.0,0.0,0.0,0.0,0.0,-0.000907198687247,-0.00568563287212,-0.000683336002814,0.0,0.0,0.0,0.0,0.0,0.0,0.0,0.0,0.0,6.66795773183,0.00552585405959,6.97938525896,0.0,0.0,0.0,0.0,0.0,0.0,0.0,0.0,0.0
32112000000,242,32112000000,imu_link,0.000653258991597,-0.377681686705,0.00134523759057,0.925934288768,0.0,0.0,0.0,0.0,0.0,0.0,0.0,0.0,0.0,-0.000669889906797,-0.00532963282277,-0.000764310024815,0.0,0.0,0.0,0.0,0.0,0.0,0.0,0.0,0.0,6.66799870138,0.00554941810236,6.97942774302,0.0,0.0,0.0,0.0,0.0,0.0,0.0,0.0,0.0
32116000000,243,32116000000,imu_link,0.000653166037091,-0.377691140333,0.0013433122931,0.925930435508,0.0,0.0,0.0,0.0,0.0,0.0,0.0,0.0,0.0,-0.00041170977831,-0.00510493833805,-0.000868116252606,0.0,0.0,0.0,0.0,0.0,0.0,0.0,0.0,0.0,6.66848276305,0.0056488872458,6.98110047152,0.0,0.0,0.0,0.0,0.0,0.0,0.0,0.0,0.0
32120000000,244,32120000000,imu_link,0.000653590031353,-0.377700488974,0.00134134374984,0.925926624655,0.0,0.0,0.0,0.0,0.0,0.0,0.0,0.0,0.0,-0.000180490592601,-0.00504868570034,-0.00098582381173,0.0,0.0,0.0,0.0,0.0,0.0,0.0,0.0,0.0,6.66927884745,0.00580374768188,6.98392665274,0.0,0.0,0.0,0.0,0.0,0.0,0.0,0.0,0.0
32124000000,245,32124000000,imu_link,0.00065427017675,-0.377710117808,0.00133926589901,0.925922699367,0.0,0.0,0.0,0.0,0.0,0.0,0.0,0.0,0.0,-8.26952937326e-05,-0.00520022358471,-0.0010846350899,0.0,0.0,0.0,0.0,0.0,0.0,0.0,0.0,0.0,6.67014497441,0.00598635711303,6.98744331156,0.0,0.0,0.0,0.0,0.0,0.0,0.0,0.0,0.0
32128000000,246,32128000000,imu_link,0.000655100797376,-0.377720173012,0.00133706320381,0.925918600096,0.0,0.0,0.0,0.0,0.0,0.0,0.0,0.0,0.0,-3.68371662665e-05,-0.00543061575255,-0.00117059523246,0.0,0.0,0.0,0.0,0.0,0.0,0.0,0.0,0.0,6.6703505072,0.0060485463858,6.98764749199,0.0,0.0,0.0,0.0,0.0,0.0,0.0,0.0,0.0
32132000000,247,32132000000,imu_link,0.000656117073025,-0.377730605196,0.00133476879966,0.925914346903,0.0,0.0,0.0,0.0,0.0,0.0,0.0,0.0,0.0,3.15917883994e-05,-0.00563436575514,-0.00124788918489,0.0,0.0,0.0,0.0,0.0,0.0,0.0,0.0,0.0,6.66984227883,0.00605222546286,6.98478618161,0.0,0.0,0.0,0.0,0.0,0.0,0.0,0.0,0.0
32136000000,248,32136000000,imu_link,0.000657428807603,-0.37774121055,0.00133240860576,0.925910022803,0.0,0.0,0.0,0.0,0.0,0.0,0.0,0.0,0.0,0.00015585890622,-0.00572814698172,-0.00133404483418,0.0,0.0,0.0,0.0,0.0,0.0,0.0,0.0,0.0,6.66879487088,0.00605152399555,6.9793912492,0.0,0.0,0.0,0.0,0.0,0.0,0.0,0.0,0.0
32140000000,249,32140000000,imu_link,0.000659211809365,-0.377751662191,0.00132999861963,0.925905761001,0.0,0.0,0.0,0.0,0.0,0.0,0.0,0.0,0.0,0.000364712048608,-0.00564554906049,-0.0014461969435,0.0,0.0,0.0,0.0,0.0,0.0,0.0,0.0,0.0,6.67052798133,0.00607450591147,6.97794906372,0.0,0.0,0.0,0.0,0.0,0.0,0.0,0.0,0.0
32144000000,250,32144000000,imu_link,0.000661759134935,-0.37776164278,0.00132757046879,0.925901690719,0.0,0.0,0.0,0.0,0.0,0.0,0.0,0.0,0.0,0.000715377208346,-0.00539181458321,-0.00159925126092,0.0,0.0,0.0,0.0,0.0,0.0,0.0,0.0,0.0,6.67095161439,0.00610210763164,6.97431746056,0.0,0.0,0.0,0.0,0.0,0.0,0.0,0.0,0.0
32148000000,251,32148000000,imu_link,0.000665308090591,-0.377770957055,0.00132517745156,0.925897891388,0.0,0.0,0.0,0.0,0.0,0.0,0.0,0.0,0.0,0.00118607140456,-0.00503281953048,-0.00177257516506,0.0,0.0,0.0,0.0,0.0,0.0,0.0,0.0,0.0,6.67238230455,0.00617148651101,6.97361935376,0.0,0.0,0.0,0.0,0.0,0.0,0.0,0.0,0.0
32152000000,252,32152000000,imu_link,0.000669801417592,-0.377779572578,0.00132284590901,0.925894376259,0.0,0.0,0.0,0.0,0.0,0.0,0.0,0.0,0.0,0.0016352472396,-0.00465625697347,-0.00192291431568,0.0,0.0,0.0,0.0,0.0,0.0,0.0,0.0,0.0,6.67311284862,0.00631811204403,6.97332710897,0.0,0.0,0.0,0.0,0.0,0.0,0.0,0.0,0.0
32156000000,253,32156000000,imu_link,0.000674791355765,-0.377787569767,0.00132052579793,0.925891112927,0.0,0.0,0.0,0.0,0.0,0.0,0.0,0.0,0.0,0.00186763592735,-0.00432276385361,-0.00201180055009,0.0,0.0,0.0,0.0,0.0,0.0,0.0,0.0,0.0,6.67483386656,0.0065153221718,6.97592006216,0.0,0.0,0.0,0.0,0.0,0.0,0.0,0.0,0.0
32160000000,254,32160000000,imu_link,0.000679599499783,-0.377795013242,0.00131813303949,0.925888075654,0.0,0.0,0.0,0.0,0.0,0.0,0.0,0.0,0.0,0.00177004182292,-0.00402362763452,-0.00201142861196,0.0,0.0,0.0,0.0,0.0,0.0,0.0,0.0,0.0,6.67734303393,0.00668656622423,6.97979301314,0.0,0.0,0.0,0.0,0.0,0.0,0.0,0.0,0.0
32164000000,255,32164000000,imu_link,0.000683790935522,-0.377801799709,0.00131563499441,0.925885306975,0.0,0.0,0.0,0.0,0.0,0.0,0.0,0.0,0.0,0.00146499376296,-0.00366836214585,-0.00194407605123,0.0,0.0,0.0,0.0,0.0,0.0,0.0,0.0,0.0,6.67857994403,0.00677178495757,6.97989311589,0.0,0.0,0.0,0.0,0.0,0.0,0.0,0.0,0.0
32168000000,256,32168000000,imu_link,0.000687330598359,-0.377807895437,0.00131303986252,0.92588282069,0.0,0.0,0.0,0.0,0.0,0.0,0.0,0.0,0.0,0.00114527832955,-0.00329484989931,-0.00186632311518,0.0,0.0,0.0,0.0,0.0,0.0,0.0,0.0,0.0,6.67847267769,0.00675593038811,6.97792797118,0.0,0.0,0.0,0.0,0.0,0.0,0.0,0.0,0.0
32172000000,257,32172000000,imu_link,0.000690832236972,-0.37781323205,0.00131044688942,0.925880644126,0.0,0.0,0.0,0.0,0.0,0.0,0.0,0.0,0.0,0.00112847507855,-0.00288489046182,-0.00185860501845,0.0,0.0,0.0,0.0,0.0,0.0,0.0,0.0,0.0,6.68070781195,0.00656376676135,6.98019504599,0.0,0.0,0.0,0.0,0.0,0.0,0.0,0.0,0.0
32176000000,258,32176000000,imu_link,0.000695061163805,-0.377817872716,0.00130791390691,0.925878750867,0.0,0.0,0.0,0.0,0.0,0.0,0.0,0.0,0.0,0.0014768568864,-0.00250964618866,-0.00196864852508,0.0,0.0,0.0,0.0,0.0,0.0,0.0,0.0,0.0,6.68244900924,0.00640119860733,6.98305407184,0.0,0.0,0.0,0.0,0.0,0.0,0.0,0.0,0.0
32180000000,259,32180000000,imu_link,0.000700454572259,-0.377821827756,0.00130543779742,0.925877136377,0.0,0.0,0.0,0.0,0.0,0.0,0.0,0.0,0.0,0.00202703658943,-0.00214032317937,-0.00216272133047,0.0,0.0,0.0,0.0,0.0,0.0,0.0,0.0,0.0,6.68298513721,0.00642477079824,6.98317324255,0.0,0.0,0.0,0.0,0.0,0.0,0.0,0.0,0.0
32184000000,260,32184000000,imu_link,0.000706993920345,-0.377825068474,0.00130300107516,0.925875812396,0.0,0.0,0.0,0.0,0.0,0.0,0.0,0.0,0.0,0.00256534142699,-0.00175548934156,-0.00236140776355,0.0,0.0,0.0,0.0,0.0,0.0,0.0,0.0,0.0,6.68191703537,0.00659428674071,6.97944667597,0.0,0.0,0.0,0.0,0.0,0.0,0.0,0.0,0.0
32188000000,261,32188000000,imu_link,0.000714451261141,-0.37782755494,0.00130059258527,0.925874795394,0.0,0.0,0.0,0.0,0.0,0.0,0.0,0.0,0.0,0.00299603137788,-0.00134891377925,-0.00252222488124,0.0,0.0,0.0,0.0,0.0,0.0,0.0,0.0,0.0,6.68180029745,0.00678876550982,6.9776407645,0.0,0.0,0.0,0.0,0.0,0.0,0.0,0.0,0.0
32192000000,262,32192000000,imu_link,0.000722582675662,-0.377829350862,0.0012981758963,0.9258740596,0.0,0.0,0.0,0.0,0.0,0.0,0.0,0.0,0.0,0.00330688499984,-0.000976552217233,-0.00265379189982,0.0,0.0,0.0,0.0,0.0,0.0,0.0,0.0,0.0,6.68267379812,0.00694353059925,6.97839193679,0.0,0.0,0.0,0.0,0.0,0.0,0.0,0.0,0.0
32196000000,263,32196000000,imu_link,0.000731158056227,-0.377830480528,0.0012957698031,0.925873595245,0.0,0.0,0.0,0.0,0.0,0.0,0.0,0.0,0.0,0.00351474940649,-0.000617123218626,-0.00273317533163,0.0,0.0,0.0,0.0,0.0,0.0,0.0,0.0,0.0,6.68358159842,0.0070548955206,6.97888592703,0.0,0.0,0.0,0.0,0.0,0.0,0.0,0.0,0.0
32200000000,264,32200000000,imu_link,0.000740002308872,-0.377831231689,0.0012934543839,0.925873284922,0.0,0.0,0.0,0.0,0.0,0.0,0.0,0.0,0.0,0.00365653880412,-0.000412941513155,-0.00274223120071,0.0,0.0,0.0,0.0,0.0,0.0,0.0,0.0,0.0,6.68545689153,0.00712959349423,6.98363057656,0.0,0.0,0.0,0.0,0.0,0.0,0.0,0.0,0.0
32204000000,265,32204000000,imu_link,0.000748841078568,-0.377832011881,0.00129125832977,0.925872962499,0.0,0.0,0.0,0.0,0.0,0.0,0.0,0.0,0.0,0.00367653617432,-0.00042861884723,-0.00268591835405,0.0,0.0,0.0,0.0,0.0,0.0,0.0,0.0,0.0,6.68604524352,0.00719797023718,6.98676337543,0.0,0.0,0.0,0.0,0.0,0.0,0.0,0.0,0.0
32208000000,266,32208000000,imu_link,0.000757168691538,-0.37783310653,0.00128914434214,0.925872511965,0.0,0.0,0.0,0.0,0.0,0.0,0.0,0.0,0.0,0.00345525169822,-0.000598033944458,-0.00255116063807,0.0,0.0,0.0,0.0,0.0,0.0,0.0,0.0,0.0,6.68728012983,0.00730081687422,6.99011554072,0.0,0.0,0.0,0.0,0.0,0.0,0.0,0.0,0.0
32212000000,267,32212000000,imu_link,0.000764580198027,-0.377834503106,0.00128709117037,0.92587193881,0.0,0.0,0.0,0.0,0.0,0.0,0.0,0.0,0.0,0.00304249372329,-0.000760359056787,-0.00234974575432,0.0,0.0,0.0,0.0,0.0,0.0,0.0,0.0,0.0,6.68781486218,0.00731789425403,6.98924127659,0.0,0.0,0.0,0.0,0.0,0.0,0.0,0.0,0.0
32220000000,268,32220000000,imu_link,0.000775150208384,-0.377837483593,0.00128300241133,0.925870719398,0.0,0.0,0.0,0.0,0.0,0.0,0.0,0.0,0.0,0.00167705444781,-0.000792010227688,-0.0017946366042,0.0,0.0,0.0,0.0,0.0,0.0,0.0,0.0,0.0,6.68869477042,0.00714211027927,6.9861847852,0.0,0.0,0.0,0.0,0.0,0.0,0.0,0.0,0.0
32224000000,269,32224000000,imu_link,0.000777791301185,-0.377838840645,0.00128085175856,0.925870166362,0.0,0.0,0.0,0.0,0.0,0.0,0.0,0.0,0.0,0.000815700423437,-0.000735233918422,-0.00149368440929,0.0,0.0,0.0,0.0,0.0,0.0,0.0,0.0,0.0,6.68922305892,0.00673210588169,6.98384408804,0.0,0.0,0.0,0.0,0.0,0.0,0.0,0.0,0.0
32228000000,270,32228000000,imu_link,0.000779049656592,-0.377840165486,0.00127861230064,0.925869627743,0.0,0.0,0.0,0.0,0.0,0.0,0.0,0.0,0.0,0.000158820777091,-0.000716747884242,-0.00127359124074,0.0,0.0,0.0,0.0,0.0,0.0,0.0,0.0,0.0,6.68882611914,0.00638607054841,6.9823796146,0.0,0.0,0.0,0.0,0.0,0.0,0.0,0.0,0.0
32232000000,271,32232000000,imu_link,0.000779724341888,-0.377841613072,0.00127636881787,0.925869039521,0.0,0.0,0.0,0.0,0.0,0.0,0.0,0.0,0.0,-0.000112199961747,-0.000782569802408,-0.00116510795656,0.0,0.0,0.0,0.0,0.0,0.0,0.0,0.0,0.0,6.69075910867,0.0060562687026,6.98570421289,0.0,0.0,0.0,0.0,0.0,0.0,0.0,0.0,0.0
32236000000,272,32236000000,imu_link,0.000780739934555,-0.377843378611,0.00127422912255,0.925868321105,0.0,0.0,0.0,0.0,0.0,0.0,0.0,0.0,0.0,6.50732812132e-05,-0.000954535368773,-0.001181258613,0.0,0.0,0.0,0.0,0.0,0.0,0.0,0.0,0.0,6.69221671023,0.00582677572489,6.98864993078,0.0,0.0,0.0,0.0,0.0,0.0,0.0,0.0,0.0
32240000000,273,32240000000,imu_link,0.000782568394902,-0.377845737105,0.00127225843705,0.925867359775,0.0,0.0,0.0,0.0,0.0,0.0,0.0,0.0,0.0,0.000473024165038,-0.00127537779053,-0.00125620029343,0.0,0.0,0.0,0.0,0.0,0.0,0.0,0.0,0.0,6.69216649851,0.00581082970458,6.98939020735,0.0,0.0,0.0,0.0,0.0,0.0,0.0,0.0,0.0
32244000000,274,32244000000,imu_link,0.00078534995842,-0.37784901577,0.00127048411724,0.925866021829,0.0,0.0,0.0,0.0,0.0,0.0,0.0,0.0,0.0,0.000950907710582,-0.00177303679449,-0.00134475935976,0.0,0.0,0.0,0.0,0.0,0.0,0.0,0.0,0.0,6.69184456959,0.00591676782442,6.99000373311,0.0,0.0,0.0,0.0,0.0,0.0,0.0,0.0,0.0
32248000000,275,32248000000,imu_link,0.000789060761895,-0.377853555924,0.00126889749354,0.925864167984,0.0,0.0,0.0,0.0,0.0,0.0,0.0,0.0,0.0,0.00141594518398,-0.00245500419396,-0.00143260176438,0.0,0.0,0.0,0.0,0.0,0.0,0.0,0.0,0.0,6.69300584259,0.00606507590943,6.99340789554,0.0,0.0,0.0,0.0,0.0,0.0,0.0,0.0,0.0
32252000000,276,32252000000,imu_link,0.000793737025762,-0.377859397986,0.00126749608725,0.925861781687,0.0,0.0,0.0,0.0,0.0,0.0,0.0,0.0,0.0,0.00189726438074,-0.00315883308687,-0.00152840854473,0.0,0.0,0.0,0.0,0.0,0.0,0.0,0.0,0.0,6.69225728329,0.0062124135421,6.99056008583,0.0,0.0,0.0,0.0,0.0,0.0,0.0,0.0,0.0
32256000000,277,32256000000,imu_link,0.000799577308369,-0.377866371898,0.00126627859203,0.925858932129,0.0,0.0,0.0,0.0,0.0,0.0,0.0,0.0,0.0,0.00247033742282,-0.00377098970387,-0.00166244535132,0.0,0.0,0.0,0.0,0.0,0.0,0.0,0.0,0.0,6.69229548518,0.00635006939863,6.9872810749,0.0,0.0,0.0,0.0,0.0,0.0,0.0,0.0,0.0
32260000000,278,32260000000,imu_link,0.000806736377994,-0.377874340014,0.00126524442676,0.925855675304,0.0,0.0,0.0,0.0,0.0,0.0,0.0,0.0,0.0,0.00311501325465,-0.00430894402683,-0.00182608382271,0.0,0.0,0.0,0.0,0.0,0.0,0.0,0.0,0.0,6.69231255487,0.00651020114867,6.9842722842,0.0,0.0,0.0,0.0,0.0,0.0,0.0,0.0,0.0
32264000000,279,32264000000,imu_link,0.000815194332536,-0.377883414245,0.00126434710178,0.925851965555,0.0,0.0,0.0,0.0,0.0,0.0,0.0,0.0,0.0,0.00374164039728,-0.0049073364326,-0.00200741158663,0.0,0.0,0.0,0.0,0.0,0.0,0.0,0.0,0.0,6.69277363603,0.00668216327426,6.98458824444,0.0,0.0,0.0,0.0,0.0,0.0,0.0,0.0,0.0
32268000000,280,32268000000,imu_link,0.000824827122478,-0.377893870498,0.0012635365792,0.925847690376,0.0,0.0,0.0,0.0,0.0,0.0,0.0,0.0,0.0,0.00430125961584,-0.00565465083058,-0.00218828314357,0.0,0.0,0.0,0.0,0.0,0.0,0.0,0.0,0.0,6.69461426167,0.00684012327705,6.9888905556,0.0,0.0,0.0,0.0,0.0,0.0,0.0,0.0,0.0
32272000000,281,32272000000,imu_link,0.000835314219363,-0.37790595634,0.00126277992426,0.925842748959,0.0,0.0,0.0,0.0,0.0,0.0,0.0,0.0,0.0,0.00470616204058,-0.00653542745624,-0.00232367223273,0.0,0.0,0.0,0.0,0.0,0.0,0.0,0.0,0.0,6.6953072514,0.0070197206962,6.9907605855,0.0,0.0,0.0,0.0,0.0,0.0,0.0,0.0,0.0
32276000000,282,32276000000,imu_link,0.000846317402596,-0.377919710856,0.00126208596853,0.925837125542,0.0,0.0,0.0,0.0,0.0,0.0,0.0,0.0,0.0,0.00495614790162,-0.00743705773998,-0.00239103594128,0.0,0.0,0.0,0.0,0.0,0.0,0.0,0.0,0.0,6.69578163308,0.00715930460797,6.99047110729,0.0,0.0,0.0,0.0,0.0,0.0,0.0,0.0,0.0
32280000000,283,32280000000,imu_link,0.000857138444494,-0.377935042118,0.00126143938244,0.925830858215,0.0,0.0,0.0,0.0,0.0,0.0,0.0,0.0,0.0,0.0048800597375,-0.00828850140237,-0.00233361670863,0.0,0.0,0.0,0.0,0.0,0.0,0.0,0.0,0.0,6.69706637236,0.00731623944722,6.99065139604,0.0,0.0,0.0,0.0,0.0,0.0,0.0,0.0,0.0
32284000000,284,32284000000,imu_link,0.000867057885474,-0.377951627204,0.00126083018277,0.925824079408,0.0,0.0,0.0,0.0,0.0,0.0,0.0,0.0,0.0,0.00446918797629,-0.00896498400651,-0.00214507671279,0.0,0.0,0.0,0.0,0.0,0.0,0.0,0.0,0.0,6.69908005188,0.00737591524315,6.98979216017,0.0,0.0,0.0,0.0,0.0,0.0,0.0,0.0,0.0
32288000000,285,32288000000,imu_link,0.000875765918967,-0.377969093066,0.00126026529284,0.925816941653,0.0,0.0,0.0,0.0,0.0,0.0,0.0,0.0,0.0,0.00391638669325,-0.00943975552715,-0.0018950303581,0.0,0.0,0.0,0.0,0.0,0.0,0.0,0.0,0.0,6.70027220487,0.0072748182488,6.98696868455,0.0,0.0,0.0,0.0,0.0,0.0,0.0,0.0,0.0
32292000000,286,32292000000,imu_link,0.000883194915243,-0.377986897396,0.00125974639342,0.925809666401,0.0,0.0,0.0,0.0,0.0,0.0,0.0,0.0,0.0,0.00333284795405,-0.00962159383095,-0.0016317878438,0.0,0.0,0.0,0.0,0.0,0.0,0.0,0.0,0.0,6.70135497172,0.00708424636321,6.98248140965,0.0,0.0,0.0,0.0,0.0,0.0,0.0,0.0,0.0
32296000000,287,32296000000,imu_link,0.00088944251653,-0.378004724248,0.00125927360222,0.925802382568,0.0,0.0,0.0,0.0,0.0,0.0,0.0,0.0,0.0,0.00279467825957,-0.00963287648499,-0.00138715286098,0.0,0.0,0.0,0.0,0.0,0.0,0.0,0.0,0.0,6.70084395709,0.00681163461552,6.97725494761,0.0,0.0,0.0,0.0,0.0,0.0,0.0,0.0,0.0
32300000000,288,32300000000,imu_link,0.000894467876382,-0.378022446922,0.00125886507301,0.925795141923,0.0,0.0,0.0,0.0,0.0,0.0,0.0,0.0,0.0,0.00224109329677,-0.00957569180473,-0.00112647291518,0.0,0.0,0.0,0.0,0.0,0.0,0.0,0.0,0.0,6.69989446762,0.00662308865909,6.9731237033,0.0,0.0,0.0,0.0,0.0,0.0,0.0,0.0,0.0
32304000000,289,32304000000,imu_link,0.000898021460226,-0.378040005292,0.00125852017477,0.925787969291,0.0,0.0,0.0,0.0,0.0,0.0,0.0,0.0,0.0,0.00157191172617,-0.00948582596506,-0.000818952403184,0.0,0.0,0.0,0.0,0.0,0.0,0.0,0.0,0.0,6.70007659407,0.00648344428807,6.97172227076,0.0,0.0,0.0,0.0,0.0,0.0,0.0,0.0,0.0
32308000000,290,32308000000,imu_link,0.000900006103702,-0.378057194867,0.00125821492109,0.925780948332,0.0,0.0,0.0,0.0,0.0,0.0,0.0,0.0,0.0,0.000853316247789,-0.00928543814616,-0.000504301094913,0.0,0.0,0.0,0.0,0.0,0.0,0.0,0.0,0.0,6.70030823769,0.00624698582719,6.969263717,0.0,0.0,0.0,0.0,0.0,0.0,0.0,0.0,0.0
32312000000,291,32312000000,imu_link,0.000900573620786,-0.378073732472,0.00125795065654,0.925774194576,0.0,0.0,0.0,0.0,0.0,0.0,0.0,0.0,0.0,0.00020537997646,-0.00893222896136,-0.000217911686195,0.0,0.0,0.0,0.0,0.0,0.0,0.0,0.0,0.0,6.70096210658,0.00592645268199,6.96700695764,0.0,0.0,0.0,0.0,0.0,0.0,0.0,0.0,0.0
32316000000,292,32316000000,imu_link,0.00090009827559,-0.378089138921,0.00125773256267,0.925767903398,0.0,0.0,0.0,0.0,0.0,0.0,0.0,0.0,0.0,-0.000268116382104,-0.00832051039883,-2.00756457554e-07,0.0,0.0,0.0,0.0,0.0,0.0,0.0,0.0,0.0,6.7021200194,0.00562331288956,6.96395415736,0.0,0.0,0.0,0.0,0.0,0.0,0.0,0.0,0.0
32320000000,293,32320000000,imu_link,0.000898939354209,-0.378102955144,0.00125754592677,0.925762262029,0.0,0.0,0.0,0.0,0.0,0.0,0.0,0.0,0.0,-0.000577878275836,-0.00746113318882,0.000142462675186,0.0,0.0,0.0,0.0,0.0,0.0,0.0,0.0,0.0,6.7031084283,0.00541635764429,6.96108482876,0.0,0.0,0.0,0.0,0.0,0.0,0.0,0.0,0.0
32324000000,294,32324000000,imu_link,0.000897350760054,-0.378115025949,0.00125740768816,0.925757333668,0.0,0.0,0.0,0.0,0.0,0.0,0.0,0.0,0.0,-0.000766839119271,-0.00651812483032,0.000244862309683,0.0,0.0,0.0,0.0,0.0,0.0,0.0,0.0,0.0,6.70251918435,0.00527890504796,6.95801618001,0.0,0.0,0.0,0.0,0.0,0.0,0.0,0.0,0.0
32328000000,295,32328000000,imu_link,0.0008958368475,-0.378125459485,0.00125739349693,0.925753073626,0.0,0.0,0.0,0.0,0.0,0.0,0.0,0.0,0.0,-0.000708089012032,-0.00563390888145,0.000287007299477,0.0,0.0,0.0,0.0,0.0,0.0,0.0,0.0,0.0,6.70365273085,0.00514071297501,6.9604780168,0.0,0.0,0.0,0.0,0.0,0.0,0.0,0.0,0.0
32332000000,296,32332000000,imu_link,0.000895119168969,-0.37813451525,0.00125758096407,0.92574937517,0.0,0.0,0.0,0.0,0.0,0.0,0.0,0.0,0.0,-0.000300790228119,-0.00489040603419,0.00022884185216,0.0,0.0,0.0,0.0,0.0,0.0,0.0,0.0,0.0,6.70422841171,0.00503373510287,6.96291630033,0.0,0.0,0.0,0.0,0.0,0.0,0.0,0.0,0.0
32336000000,297,32336000000,imu_link,0.00089577266202,-0.378142690041,0.00125804207638,0.925746034769,0.0,0.0,0.0,0.0,0.0,0.0,0.0,0.0,0.0,0.000386021429807,-0.00441566903679,9.56421969234e-05,0.0,0.0,0.0,0.0,0.0,0.0,0.0,0.0,0.0,6.7039951242,0.00505089428099,6.96591701882,0.0,0.0,0.0,0.0,0.0,0.0,0.0,0.0,0.0
32340000000,298,32340000000,imu_link,0.000898096715233,-0.378150508902,0.00125880350173,0.925742837646,0.0,0.0,0.0,0.0,0.0,0.0,0.0,0.0,0.0,0.00121621895858,-0.00422474473226,-8.14555989259e-05,0.0,0.0,0.0,0.0,0.0,0.0,0.0,0.0,0.0,6.70441570121,0.0051921521231,6.97025538743,0.0,0.0,0.0,0.0,0.0,0.0,0.0,0.0,0.0
32344000000,299,32344000000,imu_link,0.000902321015139,-0.378158276523,0.00125988863241,0.925739659081,0.0,0.0,0.0,0.0,0.0,0.0,0.0,0.0,0.0,0.00215701742688,-0.00419856927666,-0.000290945967602,0.0,0.0,0.0,0.0,0.0,0.0,0.0,0.0,0.0,6.70556672609,0.00543623957591,6.97386221554,0.0,0.0,0.0,0.0,0.0,0.0,0.0,0.0,0.0
32348000000,300,32348000000,imu_link,0.000908530794216,-0.378166114828,0.00126128484843,0.925736449174,0.0,0.0,0.0,0.0,0.0,0.0,0.0,0.0,0.0,0.00313482519185,-0.00423832321619,-0.000522315011088,0.0,0.0,0.0,0.0,0.0,0.0,0.0,0.0,0.0,6.70590896495,0.00575987790665,6.97414798479,0.0,0.0,0.0,0.0,0.0,0.0,0.0,0.0,0.0
32352000000,301,32352000000,imu_link,0.000916693516372,-0.378174021369,0.00126300145375,0.925733208901,0.0,0.0,0.0,0.0,0.0,0.0,0.0,0.0,0.0,0.00409933143846,-0.00427673572009,-0.000743235281765,0.0,0.0,0.0,0.0,0.0,0.0,0.0,0.0,0.0,6.70543134591,0.00602248065794,6.97197772999,0.0,0.0,0.0,0.0,0.0,0.0,0.0,0.0,0.0
32356000000,302,32356000000,imu_link,0.000926499766264,-0.378182038967,0.00126501026746,0.925729921062,0.0,0.0,0.0,0.0,0.0,0.0,0.0,0.0,0.0,0.00491527001997,-0.0043380374646,-0.000918670587669,0.0,0.0,0.0,0.0,0.0,0.0,0.0,0.0,0.0,6.70522585312,0.00625646223388,6.97095200017,0.0,0.0,0.0,0.0,0.0,0.0,0.0,0.0,0.0
32360000000,303,32360000000,imu_link,0.000937209888733,-0.378190260751,0.00126721174386,0.925726548439,0.0,0.0,0.0,0.0,0.0,0.0,0.0,0.0,0.0,0.00536998187787,-0.00444906303011,-0.00100025974765,0.0,0.0,0.0,0.0,0.0,0.0,0.0,0.0,0.0,6.70741503287,0.00651628363636,6.97447323694,0.0,0.0,0.0,0.0,0.0,0.0,0.0,0.0,0.0
32364000000,304,32364000000,imu_link,0.000947897702275,-0.37819861251,0.00126946239576,0.925723122457,0.0,0.0,0.0,0.0,0.0,0.0,0.0,0.0,0.0,0.00536889739555,-0.00451927615963,-0.000973184986973,0.0,0.0,0.0,0.0,0.0,0.0,0.0,0.0,0.0,6.71103523541,0.00671622257424,6.97919076769,0.0,0.0,0.0,0.0,0.0,0.0,0.0,0.0,0.0
32368000000,305,32368000000,imu_link,0.00095814248286,-0.378206799203,0.00127166049825,0.925719764226,0.0,0.0,0.0,0.0,0.0,0.0,0.0,0.0,0.0,0.00515397007139,-0.00442980537488,-0.000913852106798,0.0,0.0,0.0,0.0,0.0,0.0,0.0,0.0,0.0,6.71203428293,0.00670714124789,6.97692644615,0.0,0.0,0.0,0.0,0.0,0.0,0.0,0.0,0.0
32372000000,306,32372000000,imu_link,0.000967960273955,-0.378214383737,0.00127376502952,0.925716652389,0.0,0.0,0.0,0.0,0.0,0.0,0.0,0.0,0.0,0.00493890396229,-0.00410427021728,-0.000876862443735,0.0,0.0,0.0,0.0,0.0,0.0,0.0,0.0,0.0,6.71255799619,0.00657334826763,6.97291779667,0.0,0.0,0.0,0.0,0.0,0.0,0.0,0.0,0.0
32376000000,307,32376000000,imu_link,0.000977596696185,-0.378221104376,0.00127578153943,0.925713893647,0.0,0.0,0.0,0.0,0.0,0.0,0.0,0.0,0.0,0.00483868970945,-0.00363756287615,-0.000883948695849,0.0,0.0,0.0,0.0,0.0,0.0,0.0,0.0,0.0,6.71127699827,0.00640225251505,6.96703141255,0.0,0.0,0.0,0.0,0.0,0.0,0.0,0.0,0.0
32380000000,308,32380000000,imu_link,0.000987143174692,-0.378227023955,0.00127773795051,0.925711462219,0.0,0.0,0.0,0.0,0.0,0.0,0.0,0.0,0.0,0.00478604430893,-0.00320486000661,-0.000895356894688,0.0,0.0,0.0,0.0,0.0,0.0,0.0,0.0,0.0,6.71027030805,0.00630312745556,6.96463395107,0.0,0.0,0.0,0.0,0.0,0.0,0.0,0.0,0.0
32384000000,309,32384000000,imu_link,0.000996388340006,-0.378232680698,0.00127960395263,0.925709138486,0.0,0.0,0.0,0.0,0.0,0.0,0.0,0.0,0.0,0.00462959697536,-0.00306269055507,-0.000880419340102,0.0,0.0,0.0,0.0,0.0,0.0,0.0,0.0,0.0,6.71146249312,0.0062704120994,6.97039192686,0.0,0.0,0.0,0.0,0.0,0.0,0.0,0.0,0.0
32388000000,310,32388000000,imu_link,0.00100490135916,-0.378238688151,0.0012813296781,0.925706672307,0.0,0.0,0.0,0.0,0.0,0.0,0.0,0.0,0.0,0.00426403775572,-0.00325155899598,-0.000806620365775,0.0,0.0,0.0,0.0,0.0,0.0,0.0,0.0,0.0,6.71200283368,0.00627262934543,6.97581742345,0.0,0.0,0.0,0.0,0.0,0.0,0.0,0.0,0.0
32392000000,311,32392000000,imu_link,0.00101240587731,-0.378245471067,0.0012829443373,0.925703890402,0.0,0.0,0.0,0.0,0.0,0.0,0.0,0.0,0.0,0.00377590674555,-0.00366960374748,-0.000666708802992,0.0,0.0,0.0,0.0,0.0,0.0,0.0,0.0,0.0,6.71354419274,0.00618961222045,6.98126407562,0.0,0.0,0.0,0.0,0.0,0.0,0.0,0.0,0.0
32396000000,312,32396000000,imu_link,0.00101885285202,-0.378253057127,0.00128447329752,0.925700781485,0.0,0.0,0.0,0.0,0.0,0.0,0.0,0.0,0.0,0.00326986342082,-0.00410255132493,-0.000505752908004,0.0,0.0,0.0,0.0,0.0,0.0,0.0,0.0,0.0,6.71245615863,0.00601439517185,6.97790148234,0.0,0.0,0.0,0.0,0.0,0.0,0.0,0.0,0.0
32400000000,313,32400000000,imu_link,0.00102440312566,-0.378261275224,0.00128595359789,0.925697415243,0.0,0.0,0.0,0.0,0.0,0.0,0.0,0.0,0.0,0.00284534728343,-0.00444320520589,-0.000358197944023,0.0,0.0,0.0,0.0,0.0,0.0,0.0,0.0,0.0,6.71243020044,0.00577256556691,6.97477864845,0.0,0.0,0.0,0.0,0.0,0.0,0.0,0.0,0.0
32404000000,314,32404000000,imu_link,0.00102920193577,-0.37826977328,0.00128741737318,0.925693935339,0.0,0.0,0.0,0.0,0.0,0.0,0.0,0.0,0.0,0.00249428616964,-0.0045938066182,-0.000223505297444,0.0,0.0,0.0,0.0,0.0,0.0,0.0,0.0,0.0,6.71290264312,0.00552916211763,6.9708516107,0.0,0.0,0.0,0.0,0.0,0.0,0.0,0.0,0.0
32408000000,315,32408000000,imu_link,0.00103332533306,-0.378278210552,0.00128887565636,0.925690480917,0.0,0.0,0.0,0.0,0.0,0.0,0.0,0.0,0.0,0.00218066065985,-0.00456042160742,-9.83508611503e-05,0.0,0.0,0.0,0.0,0.0,0.0,0.0,0.0,0.0,6.7126291763,0.0053550922787,6.96593020942,0.0,0.0,0.0,0.0,0.0,0.0,0.0,0.0,0.0
32412000000,316,32412000000,imu_link,0.00103664480154,-0.378286222894,0.00129033612508,0.925687200932,0.0,0.0,0.0,0.0,0.0,0.0,0.0,0.0,0.0,0.00180916312133,-0.00433023207713,5.43831190798e-05,0.0,0.0,0.0,0.0,0.0,0.0,0.0,0.0,0.0,6.71348948222,0.00524033073842,6.9630176514,0.0,0.0,0.0,0.0,0.0,0.0,0.0,0.0,0.0
32416000000,317,32416000000,imu_link,0.00103906254456,-0.378293644043,0.00129180377452,0.925684163454,0.0,0.0,0.0,0.0,0.0,0.0,0.0,0.0,0.0,0.00139341917307,-0.00401014853959,0.000227798944403,0.0,0.0,0.0,0.0,0.0,0.0,0.0,0.0,0.0,6.71223853394,0.00511031605622,6.9584327292,0.0,0.0,0.0,0.0,0.0,0.0,0.0,0.0,0.0
32420000000,318,32420000000,imu_link,0.00104091246232,-0.378300633599,0.00129336086096,0.925681302791,0.0,0.0,0.0,0.0,0.0,0.0,0.0,0.0,0.0,0.00114770937291,-0.00377653198498,0.000376258067544,0.0,0.0,0.0,0.0,0.0,0.0,0.0,0.0,0.0,6.71280898383,0.00488822180921,6.95970312811,0.0,0.0,0.0,0.0,0.0,0.0,0.0,0.0,0.0
32424000000,319,32424000000,imu_link,0.00104269464628,-0.378307463407,0.00129514555079,0.925678507105,0.0,0.0,0.0,0.0,0.0,0.0,0.0,0.0,0.0,0.00115948016484,-0.00369014106496,0.000494288873621,0.0,0.0,0.0,0.0,0.0,0.0,0.0,0.0,0.0,6.71434103592,0.00469024496677,6.96363212784,0.0,0.0,0.0,0.0,0.0,0.0,0.0,0.0,0.0
32428000000,320,32428000000,imu_link,0.00104490406918,-0.378314460358,0.00129724301388,0.925675642123,0.0,0.0,0.0,0.0,0.0,0.0,0.0,0.0,0.0,0.00141631323086,-0.0037807230315,0.000558370787451,0.0,0.0,0.0,0.0,0.0,0.0,0.0,0.0,0.0,6.71513703592,0.00456555192991,6.96692003719,0.0,0.0,0.0,0.0,0.0,0.0,0.0,0.0,0.0
32432000000,321,32432000000,imu_link,0.00104767697505,-0.378321747846,0.00129964073212,0.925672657268,0.0,0.0,0.0,0.0,0.0,0.0,0.0,0.0,0.0,0.00173378407607,-0.00393807786309,0.000590982899044,0.0,0.0,0.0,0.0,0.0,0.0,0.0,0.0,0.0,6.71435363202,0.00458466787359,6.96553165668,0.0,0.0,0.0,0.0,0.0,0.0,0.0,0.0,0.0
32436000000,322,32436000000,imu_link,0.0010508162383,-0.378329478801,0.00130228172023,0.925669490325,0.0,0.0,0.0,0.0,0.0,0.0,0.0,0.0,0.0,0.00194917193036,-0.00417788499862,0.000634627174893,0.0,0.0,0.0,0.0,0.0,0.0,0.0,0.0,0.0,6.71387816985,0.00470441378112,6.96484892263,0.0,0.0,0.0,0.0,0.0,0.0,0.0,0.0,0.0
32440000000,323,32440000000,imu_link,0.00105381654013,-0.378337826344,0.00130507753036,0.925666071216,0.0,0.0,0.0,0.0,0.0,0.0,0.0,0.0,0.0,0.00191387362629,-0.00451079263396,0.000733058946421,0.0,0.0,0.0,0.0,0.0,0.0,0.0,0.0,0.0,6.71379619729,0.00485102469238,6.96484825207,0.0,0.0,0.0,0.0,0.0,0.0,0.0,0.0,0.0
32444000000,324,32444000000,imu_link,0.00105614204222,-0.378346788147,0.00130796015334,0.925662401582,0.0,0.0,0.0,0.0,0.0,0.0,0.0,0.0,0.0,0.0016177074847,-0.00484199778653,0.000901377067597,0.0,0.0,0.0,0.0,0.0,0.0,0.0,0.0,0.0,6.71545660629,0.0048766822505,6.96671987866,0.0,0.0,0.0,0.0,0.0,0.0,0.0,0.0,0.0
32448000000,325,32448000000,imu_link,0.00105763592171,-0.378356286499,0.00131090617785,0.925658513383,0.0,0.0,0.0,0.0,0.0,0.0,0.0,0.0,0.0,0.00124456500768,-0.00513109848656,0.00108846841785,0.0,0.0,0.0,0.0,0.0,0.0,0.0,0.0,0.0,6.71508662477,0.00471762152228,6.96415812921,0.0,0.0,0.0,0.0,0.0,0.0,0.0,0.0,0.0
32452000000,326,32452000000,imu_link,0.00105843037916,-0.378366061903,0.001313897995,0.925654512546,0.0,0.0,0.0,0.0,0.0,0.0,0.0,0.0,0.0,0.00092939295999,-0.00528015266085,0.00124219829173,0.0,0.0,0.0,0.0,0.0,0.0,0.0,0.0,0.0,6.71463387963,0.00452096590424,6.95972300924,0.0,0.0,0.0,0.0,0.0,0.0,0.0,0.0,0.0
32456000000,327,32456000000,imu_link,0.0010588583788,-0.378375695316,0.00131695688884,0.925650569944,0.0,0.0,0.0,0.0,0.0,0.0,0.0,0.0,0.0,0.000772538532686,-0.00520314168868,0.0013424574105,0.0,0.0,0.0,0.0,0.0,0.0,0.0,0.0,0.0,6.71508001789,0.00433356339578,6.95574767465,0.0,0.0,0.0,0.0,0.0,0.0,0.0,0.0,0.0
32460000000,328,32460000000,imu_link,0.00105919637996,-0.378384903235,0.0013201053531,0.925646801123,0.0,0.0,0.0,0.0,0.0,0.0,0.0,0.0,0.0,0.000748018765664,-0.00497322862562,0.0014005997832,0.0,0.0,0.0,0.0,0.0,0.0,0.0,0.0,0.0,6.71562438225,0.00419984275705,6.95323841316,0.0,0.0,0.0,0.0,0.0,0.0,0.0,0.0,0.0
32464000000,329,32464000000,imu_link,0.00105961981605,-0.378393621397,0.00132334761674,0.92564323216,0.0,0.0,0.0,0.0,0.0,0.0,0.0,0.0,0.0,0.000805523608546,-0.00470875272533,0.00142745739733,0.0,0.0,0.0,0.0,0.0,0.0,0.0,0.0,0.0,6.71500071307,0.00413353214643,6.95061260635,0.0,0.0,0.0,0.0,0.0,0.0,0.0,0.0,0.0
32468000000,330,32468000000,imu_link,0.00106036841295,-0.37840198316,0.00132669448983,0.925639808263,0.0,0.0,0.0,0.0,0.0,0.0,0.0,0.0,0.0,0.000975965797516,-0.00451651707777,0.00141406871801,0.0,0.0,0.0,0.0,0.0,0.0,0.0,0.0,0.0,6.71479937545,0.00407685037318,6.95014379473,0.0,0.0,0.0,0.0,0.0,0.0,0.0,0.0,0.0
32472000000,331,32472000000,imu_link,0.00106155261992,-0.378410050858,0.00133015365986,0.925636503821,0.0,0.0,0.0,0.0,0.0,0.0,0.0,0.0,0.0,0.00119895323108,-0.0043580464976,0.00138338896599,0.0,0.0,0.0,0.0,0.0,0.0,0.0,0.0,0.0,6.71560991104,0.00407442348926,6.95093515822,0.0,0.0,0.0,0.0,0.0,0.0,0.0,0.0,0.0
32476000000,332,32476000000,imu_link,0.00106317539971,-0.378417773535,0.00133372961318,0.925633339663,0.0,0.0,0.0,0.0,0.0,0.0,0.0,0.0,0.0,0.00142418373028,-0.00417205185416,0.00135418179486,0.0,0.0,0.0,0.0,0.0,0.0,0.0,0.0,0.0,6.71455448755,0.00409434022137,6.94717445088,0.0,0.0,0.0,0.0,0.0,0.0,0.0,0.0,0.0
32480000000,333,32480000000,imu_link,0.00106506011919,-0.378425014569,0.00133742770691,0.925630371845,0.0,0.0,0.0,0.0,0.0,0.0,0.0,0.0,0.0,0.00156874065813,-0.00391209973295,0.00136076212785,0.0,0.0,0.0,0.0,0.0,0.0,0.0,0.0,0.0,6.71482159777,0.00418782321394,6.94522625192,0.0,0.0,0.0,0.0,0.0,0.0,0.0,0.0,0.0
32484000000,334,32484000000,imu_link,0.00106689216883,-0.378431837991,0.00134118630874,0.925627574651,0.0,0.0,0.0,0.0,0.0,0.0,0.0,0.0,0.0,0.00155600154245,-0.00368647099107,0.00139839549847,0.0,0.0,0.0,0.0,0.0,0.0,0.0,0.0,0.0,6.71548983873,0.00429976705735,6.94574148493,0.0,0.0,0.0,0.0,0.0,0.0,0.0,0.0,0.0
32488000000,335,32488000000,imu_link,0.00106846284001,-0.378438408487,0.00134496921482,0.925624881054,0.0,0.0,0.0,0.0,0.0,0.0,0.0,0.0,0.0,0.00143974508752,-0.00354962266087,0.0014588964143,0.0,0.0,0.0,0.0,0.0,0.0,0.0,0.0,0.0,6.71525045102,0.00429245636176,6.94575309872,0.0,0.0,0.0,0.0,0.0,0.0,0.0,0.0,0.0
32492000000,336,32492000000,imu_link,0.00106951818779,-0.378444962615,0.00134877952015,0.925622194632,0.0,0.0,0.0,0.0,0.0,0.0,0.0,0.0,0.0,0.00120643864486,-0.00354032889027,0.00156907263743,0.0,0.0,0.0,0.0,0.0,0.0,0.0,0.0,0.0,6.71575196824,0.00421740080588,6.94788821939,0.0,0.0,0.0,0.0,0.0,0.0,0.0,0.0,0.0
32496000000,337,32496000000,imu_link,0.00106983474805,-0.378451803556,0.00135265124554,0.925619391636,0.0,0.0,0.0,0.0,0.0,0.0,0.0,0.0,0.0,0.000876010555372,-0.00369459632593,0.00173752572567,0.0,0.0,0.0,0.0,0.0,0.0,0.0,0.0,0.0,6.71733417401,0.00409995938147,6.95270229751,0.0,0.0,0.0,0.0,0.0,0.0,0.0,0.0,0.0
32500000000,338,32500000000,imu_link,0.00106924563658,-0.378459286864,0.00135657490526,0.92561632689,0.0,0.0,0.0,0.0,0.0,0.0,0.0,0.0,0.0,0.000466389782653,-0.00404077936045,0.00193345863121,0.0,0.0,0.0,0.0,0.0,0.0,0.0,0.0,0.0,6.71839980529,0.00397037518696,6.95650389301,0.0,0.0,0.0,0.0,0.0,0.0,0.0,0.0,0.0
32504000000,339,32504000000,imu_link,0.00106779299132,-0.378467571287,0.00136051289286,0.925612935469,0.0,0.0,0.0,0.0,0.0,0.0,0.0,0.0,0.0,6.90818160739e-05,-0.00447276547324,0.00210414575397,0.0,0.0,0.0,0.0,0.0,0.0,0.0,0.0,0.0,6.71896936271,0.00378802456446,6.95793504644,0.0,0.0,0.0,0.0,0.0,0.0,0.0,0.0,0.0
32508000000,340,32508000000,imu_link,0.00106543871218,-0.378476569934,0.00136444814587,0.925609252943,0.0,0.0,0.0,0.0,0.0,0.0,0.0,0.0,0.0,-0.000349048093592,-0.00485778783053,0.00227407910567,0.0,0.0,0.0,0.0,0.0,0.0,0.0,0.0,0.0,6.7185026397,0.00363537862584,6.95493773099,0.0,0.0,0.0,0.0,0.0,0.0,0.0,0.0,0.0
32512000000,341,32512000000,imu_link,0.00106203946046,-0.378486022186,0.00136838414277,0.925605386008,0.0,0.0,0.0,0.0,0.0,0.0,0.0,0.0,0.0,-0.000832736681089,-0.00510190256154,0.00247253965845,0.0,0.0,0.0,0.0,0.0,0.0,0.0,0.0,0.0,6.71962633037,0.00349629941388,6.95308105571,0.0,0.0,0.0,0.0,0.0,0.0,0.0,0.0,0.0
32516000000,342,32516000000,imu_link,0.00105737429719,-0.378495733301,0.00137234356238,0.92560141449,0.0,0.0,0.0,0.0,0.0,0.0,0.0,0.0,0.0,-0.00141429294619,-0.00524061738376,0.00272315367518,0.0,0.0,0.0,0.0,0.0,0.0,0.0,0.0,0.0,6.71937707933,0.00334901100856,6.94973530631,0.0,0.0,0.0,0.0,0.0,0.0,0.0,0.0,0.0
32520000000,343,32520000000,imu_link,0.00105149191323,-0.378505498568,0.00137634857201,0.925597421984,0.0,0.0,0.0,0.0,0.0,0.0,0.0,0.0,0.0,-0.00196902179339,-0.0052687923659,0.0029746522208,0.0,0.0,0.0,0.0,0.0,0.0,0.0,0.0,0.0,6.71955854536,0.00311782335249,6.94675698354,0.0,0.0,0.0,0.0,0.0,0.0,0.0,0.0,0.0
32524000000,344,32524000000,imu_link,0.00104449851579,-0.378515246267,0.00138039855597,0.925593437674,0.0,0.0,0.0,0.0,0.0,0.0,0.0,0.0,0.0,-0.00247467810337,-0.00525832208664,0.00320571375893,0.0,0.0,0.0,0.0,0.0,0.0,0.0,0.0,0.0,6.7193931769,0.00292955012029,6.94469726066,0.0,0.0,0.0,0.0,0.0,0.0,0.0,0.0,0.0
32528000000,345,32528000000,imu_link,0.00103666419235,-0.378525151633,0.00138442894881,0.925589389667,0.0,0.0,0.0,0.0,0.0,0.0,0.0,0.0,0.0,-0.00286763922283,-0.00534277496831,0.00335592501793,0.0,0.0,0.0,0.0,0.0,0.0,0.0,0.0,0.0,6.72084889171,0.00277256455482,6.94796084234,0.0,0.0,0.0,0.0,0.0,0.0,0.0,0.0,0.0
32532000000,346,32532000000,imu_link,0.00102845376001,-0.378535470051,0.00138847636479,0.92558517292,0.0,0.0,0.0,0.0,0.0,0.0,0.0,0.0,0.0,-0.00303867703819,-0.00556560009304,0.00343531748016,0.0,0.0,0.0,0.0,0.0,0.0,0.0,0.0,0.0,6.72199626144,0.00261773902623,6.95116291562,0.0,0.0,0.0,0.0,0.0,0.0,0.0,0.0,0.0
32536000000,347,32536000000,imu_link,0.00102044700113,-0.378546285815,0.00139263309421,0.925580752153,0.0,0.0,0.0,0.0,0.0,0.0,0.0,0.0,0.0,-0.00292396932879,-0.00583446763465,0.00344775549819,0.0,0.0,0.0,0.0,0.0,0.0,0.0,0.0,0.0,6.72371571363,0.0024649414347,6.95377032436,0.0,0.0,0.0,0.0,0.0,0.0,0.0,0.0,0.0
32540000000,348,32540000000,imu_link,0.00101307287806,-0.378557744867,0.00139697206027,0.925576067081,0.0,0.0,0.0,0.0,0.0,0.0,0.0,0.0,0.0,-0.00259701214044,-0.00618254888966,0.00341286415549,0.0,0.0,0.0,0.0,0.0,0.0,0.0,0.0,0.0,6.7237273503,0.00239752231266,6.95397682985,0.0,0.0,0.0,0.0,0.0,0.0,0.0,0.0,0.0
32544000000,349,32544000000,imu_link,0.0010065477516,-0.378569818004,0.00140148262854,0.925571129414,0.0,0.0,0.0,0.0,0.0,0.0,0.0,0.0,0.0,-0.00217192697352,-0.00651505676041,0.00333206997688,0.0,0.0,0.0,0.0,0.0,0.0,0.0,0.0,0.0,6.72266216724,0.00243766232291,6.95042532696,0.0,0.0,0.0,0.0,0.0,0.0,0.0,0.0,0.0
32548000000,350,32548000000,imu_link,0.00100082571883,-0.378582167832,0.00140612192313,0.925566077257,0.0,0.0,0.0,0.0,0.0,0.0,0.0,0.0,0.0,-0.00177603713018,-0.00666527514699,0.00323984861936,0.0,0.0,0.0,0.0,0.0,0.0,0.0,0.0,0.0,6.72378045033,0.00255610960888,6.94809087673,0.0,0.0,0.0,0.0,0.0,0.0,0.0,0.0,0.0
32552000000,351,32552000000,imu_link,0.000995638566551,-0.378594409051,0.00141083038972,0.925561068594,0.0,0.0,0.0,0.0,0.0,0.0,0.0,0.0,0.0,-0.00151535527338,-0.00660712035902,0.00317052720939,0.0,0.0,0.0,0.0,0.0,0.0,0.0,0.0,0.0,6.72471439228,0.00268766121771,6.9451934933,0.0,0.0,0.0,0.0,0.0,0.0,0.0,0.0,0.0
32556000000,352,32556000000,imu_link,0.000990735193361,-0.378606433107,0.00141553701698,0.925556148221,0.0,0.0,0.0,0.0,0.0,0.0,0.0,0.0,0.0,-0.00138426677596,-0.00649010996295,0.00311578703047,0.0,0.0,0.0,0.0,0.0,0.0,0.0,0.0,0.0,6.72467292893,0.00276580045591,6.94313400871,0.0,0.0,0.0,0.0,0.0,0.0,0.0,0.0,0.0
32560000000,353,32560000000,imu_link,0.000985936552012,-0.378618361808,0.00142021609461,0.925551266553,0.0,0.0,0.0,0.0,0.0,0.0,0.0,0.0,0.0,-0.00134096609472,-0.00643874253052,0.00308313696024,0.0,0.0,0.0,0.0,0.0,0.0,0.0,0.0,0.0,6.7237125578,0.00278968701254,6.9414414846,0.0,0.0,0.0,0.0,0.0,0.0,0.0,0.0,0.0
32564000000,354,32564000000,imu_link,0.000980909185365,-0.378630380696,0.00142481909787,0.925546348122,0.0,0.0,0.0,0.0,0.0,0.0,0.0,0.0,0.0,-0.00146126208634,-0.00648731349768,0.00309130195786,0.0,0.0,0.0,0.0,0.0,0.0,0.0,0.0,0.0,6.72480881079,0.00281642013353,6.94407545431,0.0,0.0,0.0,0.0,0.0,0.0,0.0,0.0,0.0
32568000000,355,32568000000,imu_link,0.000975338864875,-0.378642626512,0.00142931345177,0.925541337362,0.0,0.0,0.0,0.0,0.0,0.0,0.0,0.0,0.0,-0.00173321191522,-0.00660947581762,0.00314398843596,0.0,0.0,0.0,0.0,0.0,0.0,0.0,0.0,0.0,6.72508963945,0.00282961824325,6.94470133595,0.0,0.0,0.0,0.0,0.0,0.0,0.0,0.0,0.0
32572000000,356,32572000000,imu_link,0.000968825404339,-0.378655118416,0.0014336614441,0.925536226892,0.0,0.0,0.0,0.0,0.0,0.0,0.0,0.0,0.0,-0.00219750607372,-0.00674163228545,0.00325500437148,0.0,0.0,0.0,0.0,0.0,0.0,0.0,0.0,0.0,6.72567808047,0.00283641151364,6.94515226188,0.0,0.0,0.0,0.0,0.0,0.0,0.0,0.0,0.0
32576000000,357,32576000000,imu_link,0.000961035332144,-0.378667817984,0.00143783365555,0.925531032796,0.0,0.0,0.0,0.0,0.0,0.0,0.0,0.0,0.0,-0.00282166975703,-0.00685273518763,0.00341551689764,0.0,0.0,0.0,0.0,0.0,0.0,0.0,0.0,0.0,6.72684200537,0.00278626860942,6.94588029595,0.0,0.0,0.0,0.0,0.0,0.0,0.0,0.0,0.0
32580000000,358,32580000000,imu_link,0.000951979263365,-0.378680633365,0.00144182893427,0.925525792606,0.0,0.0,0.0,0.0,0.0,0.0,0.0,0.0,0.0,-0.00344108979882,-0.00691423210945,0.00357342339741,0.0,0.0,0.0,0.0,0.0,0.0,0.0,0.0,0.0,6.72640689856,0.00259036926672,6.94332796007,0.0,0.0,0.0,0.0,0.0,0.0,0.0,0.0,0.0
32584000000,359,32584000000,imu_link,0.000942021878866,-0.378693475005,0.00144564771758,0.925520542552,0.0,0.0,0.0,0.0,0.0,0.0,0.0,0.0,0.0,-0.00389161720188,-0.00692768524855,0.0036624228891,0.0,0.0,0.0,0.0,0.0,0.0,0.0,0.0,0.0,6.72682113261,0.00231336685167,6.94256149446,0.0,0.0,0.0,0.0,0.0,0.0,0.0,0.0,0.0
32588000000,360,32588000000,imu_link,0.000931745178287,-0.37870613963,0.00144930275871,0.925515365177,0.0,0.0,0.0,0.0,0.0,0.0,0.0,0.0,0.0,-0.00407029432814,-0.00683185455529,0.00364697505781,0.0,0.0,0.0,0.0,0.0,0.0,0.0,0.0,0.0,6.7274591387,0.00206924584794,6.94097449338,0.0,0.0,0.0,0.0,0.0,0.0,0.0,0.0,0.0
32592000000,361,32592000000,imu_link,0.000921522481112,-0.378718454554,0.00145279811658,0.925510330766,0.0,0.0,0.0,0.0,0.0,0.0,0.0,0.0,0.0,-0.00407535354361,-0.00664307039251,0.00356258818068,0.0,0.0,0.0,0.0,0.0,0.0,0.0,0.0,0.0,6.72831435788,0.00196050018556,6.93990352143,0.0,0.0,0.0,0.0,0.0,0.0,0.0,0.0,0.0
32596000000,362,32596000000,imu_link,0.000911532895845,-0.378730173241,0.00145615474618,0.925505540015,0.0,0.0,0.0,0.0,0.0,0.0,0.0,0.0,0.0,-0.00399342844759,-0.00632125280074,0.00345379734413,0.0,0.0,0.0,0.0,0.0,0.0,0.0,0.0,0.0,6.72874992301,0.00193725834582,6.9373757828,0.0,0.0,0.0,0.0,0.0,0.0,0.0,0.0,0.0
32600000000,363,32600000000,imu_link,0.000901892450502,-0.378741162526,0.00145943460169,0.925501047244,0.0,0.0,0.0,0.0,0.0,0.0,0.0,0.0,0.0,-0.00384600605852,-0.00592758228923,0.00335160562577,0.0,0.0,0.0,0.0,0.0,0.0,0.0,0.0,0.0,6.7287016907,0.0019481357431,6.93518573951,0.0,0.0,0.0,0.0,0.0,0.0,0.0,0.0,0.0
32604000000,364,32604000000,imu_link,0.000892623162894,-0.378751638216,0.00146268750138,0.925496764078,0.0,0.0,0.0,0.0,0.0,0.0,0.0,0.0,0.0,-0.00367907700406,-0.0056505056911,0.00326846089054,0.0,0.0,0.0,0.0,0.0,0.0,0.0,0.0,0.0,6.72857721017,0.00197519550073,6.9357831144,0.0,0.0,0.0,0.0,0.0,0.0,0.0,0.0,0.0
32608000000,365,32608000000,imu_link,0.000883788331214,-0.378761993415,0.00146595271167,0.925492529546,0.0,0.0,0.0,0.0,0.0,0.0,0.0,0.0,0.0,-0.00347563548352,-0.00558585128514,0.00319179280635,0.0,0.0,0.0,0.0,0.0,0.0,0.0,0.0,0.0,6.73012980461,0.0019891406708,6.94090244203,0.0,0.0,0.0,0.0,0.0,0.0,0.0,0.0,0.0
32612000000,366,32612000000,imu_link,0.000875512179075,-0.378772369635,0.00146923283847,0.925488285628,0.0,0.0,0.0,0.0,0.0,0.0,0.0,0.0,0.0,-0.00321429496683,-0.00559775837329,0.00309290825011,0.0,0.0,0.0,0.0,0.0,0.0,0.0,0.0,0.0,6.73113314797,0.00203254218255,6.9428122379,0.0,0.0,0.0,0.0,0.0,0.0,0.0,0.0,0.0
32616000000,367,32616000000,imu_link,0.000867791604064,-0.378782614831,0.00147252990796,0.925484094566,0.0,0.0,0.0,0.0,0.0,0.0,0.0,0.0,0.0,-0.00295392308061,-0.00552751883956,0.00299543356137,0.0,0.0,0.0,0.0,0.0,0.0,0.0,0.0,0.0,6.73129467893,0.00214454943717,6.94057789717,0.0,0.0,0.0,0.0,0.0,0.0,0.0,0.0,0.0
32620000000,368,32620000000,imu_link,0.00086050934057,-0.378792565473,0.00147583222016,0.92548002344,0.0,0.0,0.0,0.0,0.0,0.0,0.0,0.0,0.0,-0.0027499401568,-0.00536882171775,0.00291463108299,0.0,0.0,0.0,0.0,0.0,0.0,0.0,0.0,0.0,6.73147448141,0.00231816257685,6.93848138402,0.0,0.0,0.0,0.0,0.0,0.0,0.0,0.0,0.0
32624000000,369,32624000000,imu_link,0.000853496274083,-0.37880220532,0.00147910382441,0.925476079129,0.0,0.0,0.0,0.0,0.0,0.0,0.0,0.0,0.0,-0.00263101312592,-0.00520119799739,0.0028492090707,0.0,0.0,0.0,0.0,0.0,0.0,0.0,0.0,0.0,6.73176044294,0.00246193485897,6.93799929629,0.0,0.0,0.0,0.0,0.0,0.0,0.0,0.0,0.0
32628000000,370,32628000000,imu_link,0.000846571665552,-0.378811694497,0.00148230081978,0.925472196348,0.0,0.0,0.0,0.0,0.0,0.0,0.0,0.0,0.0,-0.00260412609796,-0.00511992119419,0.0027978208692,0.0,0.0,0.0,0.0,0.0,0.0,0.0,0.0,0.0,6.73286762814,0.00254253708238,6.94067240577,0.0,0.0,0.0,0.0,0.0,0.0,0.0,0.0,0.0
32632000000,371,32632000000,imu_link,0.000839663858679,-0.378821060977,0.00148541880547,0.925468363725,0.0,0.0,0.0,0.0,0.0,0.0,0.0,0.0,0.0,-0.00261124655314,-0.00505368954313,0.00275798879407,0.0,0.0,0.0,0.0,0.0,0.0,0.0,0.0,0.0,6.73275870634,0.00255569420412,6.93993573992,0.0,0.0,0.0,0.0,0.0,0.0,0.0,0.0,0.0
32636000000,372,32636000000,imu_link,0.000832931175852,-0.378830225421,0.00148846822927,0.925464613584,0.0,0.0,0.0,0.0,0.0,0.0,0.0,0.0,0.0,-0.00254308159029,-0.00494473719545,0.0026929464435,0.0,0.0,0.0,0.0,0.0,0.0,0.0,0.0,0.0,6.73310503686,0.00252727914761,6.9389210754,0.0,0.0,0.0,0.0,0.0,0.0,0.0,0.0,0.0
32640000000,373,32640000000,imu_link,0.000826744783228,-0.378838994784,0.00149147493787,0.925461024585,0.0,0.0,0.0,0.0,0.0,0.0,0.0,0.0,0.0,-0.00229815944616,-0.00473182208981,0.0025694206575,0.0,0.0,0.0,0.0,0.0,0.0,0.0,0.0,0.0,6.73409340932,0.00247390247257,6.93821915622,0.0,0.0,0.0,0.0,0.0,0.0,0.0,0.0,0.0
32644000000,374,32644000000,imu_link,0.000821500503756,-0.378847199928,0.0014944629625,0.925457665603,0.0,0.0,0.0,0.0,0.0,0.0,0.0,0.0,0.0,-0.00186542837631,-0.00442788095013,0.00238191564734,0.0,0.0,0.0,0.0,0.0,0.0,0.0,0.0,0.0,6.73458952358,0.00246768247759,6.93667685948,0.0,0.0,0.0,0.0,0.0,0.0,0.0,0.0,0.0
32648000000,375,32648000000,imu_link,0.000817493873659,-0.378854862914,0.00149748214142,0.925454527299,0.0,0.0,0.0,0.0,0.0,0.0,0.0,0.0,0.0,-0.00128651649431,-0.00413611936741,0.00216150404529,0.0,0.0,0.0,0.0,0.0,0.0,0.0,0.0,0.0,6.73531523244,0.00251306359547,6.93730606139,0.0,0.0,0.0,0.0,0.0,0.0,0.0,0.0,0.0
32652000000,376,32652000000,imu_link,0.000814723091364,-0.378862254361,0.00150052929646,0.925451498923,0.0,0.0,0.0,0.0,0.0,0.0,0.0,0.0,0.0,-0.000709198197285,-0.00399056135461,0.00194015258801,0.0,0.0,0.0,0.0,0.0,0.0,0.0,0.0,0.0,6.73530767081,0.00263729899346,6.93856645595,0.0,0.0,0.0,0.0,0.0,0.0,0.0,0.0,0.0
32656000000,377,32656000000,imu_link,0.000812974934277,-0.378869629378,0.00150355047997,0.92544847633,0.0,0.0,0.0,0.0,0.0,0.0,0.0,0.0,0.0,-0.000240913026824,-0.00398264146926,0.00173440681641,0.0,0.0,0.0,0.0,0.0,0.0,0.0,0.0,0.0,6.73560990093,0.00280263689366,6.9402771176,0.0,0.0,0.0,0.0,0.0,0.0,0.0,0.0,0.0
32660000000,378,32660000000,imu_link,0.000811845829133,-0.378877148488,0.0015065108293,0.925445394221,0.0,0.0,0.0,0.0,0.0,0.0,0.0,0.0,0.0,3.3929066825e-05,-0.00406108069929,0.00158909068704,0.0,0.0,0.0,0.0,0.0,0.0,0.0,0.0,0.0,6.73575898784,0.00301819207565,6.94101391822,0.0,0.0,0.0,0.0,0.0,0.0,0.0,0.0,0.0
32664000000,379,32664000000,imu_link,0.000811100427088,-0.378884823012,0.00150941219055,0.925442248161,0.0,0.0,0.0,0.0,0.0,0.0,0.0,0.0,0.0,0.00020021147594,-0.00414542262008,0.00148921865875,0.0,0.0,0.0,0.0,0.0,0.0,0.0,0.0,0.0,6.73528773118,0.00318798030042,6.93923196345,0.0,0.0,0.0,0.0,0.0,0.0,0.0,0.0,0.0
32668000000,380,32668000000,imu_link,0.000810850638606,-0.378892433452,0.00151227028228,0.925439127891,0.0,0.0,0.0,0.0,0.0,0.0,0.0,0.0,0.0,0.000421383162552,-0.00411127524965,0.00137526125146,0.0,0.0,0.0,0.0,0.0,0.0,0.0,0.0,0.0,6.73716640108,0.00324735782085,6.93933752455,0.0,0.0,0.0,0.0,0.0,0.0,0.0,0.0,0.0
32672000000,381,32672000000,imu_link,0.000811400566939,-0.378899726507,0.00151511105164,0.925436136814,0.0,0.0,0.0,0.0,0.0,0.0,0.0,0.0,0.0,0.000788333729589,-0.0039405513968,0.00121551616425,0.0,0.0,0.0,0.0,0.0,0.0,0.0,0.0,0.0,6.73852965178,0.00322850029081,6.93859040348,0.0,0.0,0.0,0.0,0.0,0.0,0.0,0.0,0.0
32676000000,382,32676000000,imu_link,0.000812944360349,-0.378906671894,0.00151794107632,0.925433287153,0.0,0.0,0.0,0.0,0.0,0.0,0.0,0.0,0.0,0.00124638348478,-0.00375364563844,0.00102200862549,0.0,0.0,0.0,0.0,0.0,0.0,0.0,0.0,0.0,6.73842199887,0.00323085535267,6.93741120389,0.0,0.0,0.0,0.0,0.0,0.0,0.0,0.0,0.0
32680000000,383,32680000000,imu_link,0.000815605375288,-0.378913388985,0.00152079254406,0.925430529876,0.0,0.0,0.0,0.0,0.0,0.0,0.0,0.0,0.0,0.00176753865929,-0.00363134526511,0.000820106425908,0.0,0.0,0.0,0.0,0.0,0.0,0.0,0.0,0.0,6.73791022609,0.00328717635339,6.93646400169,0.0,0.0,0.0,0.0,0.0,0.0,0.0,0.0,0.0
