%time,field.header.seq,field.header.stamp,field.header.frame_id,field.orientation.x,field.orientation.y,field.orientation.z,field.orientation.w,field.orientation_covariance0,field.orientation_covariance1,field.orientation_covariance2,field.orientation_covariance3,field.orientation_covariance4,field.orientation_covariance5,field.orientation_covariance6,field.orientation_covariance7,field.orientation_covariance8,field.angular_velocity.x,field.angular_velocity.y,field.angular_velocity.z,field.angular_velocity_covariance0,field.angular_velocity_covariance1,field.angular_velocity_covariance2,field.angular_velocity_covariance3,field.angular_velocity_covariance4,field.angular_velocity_covariance5,field.angular_velocity_covariance6,field.angular_velocity_covariance7,field.angular_velocity_covariance8,field.linear_acceleration.x,field.linear_acceleration.y,field.linear_acceleration.z,field.linear_acceleration_covariance0,field.linear_acceleration_covariance1,field.linear_acceleration_covariance2,field.linear_acceleration_covariance3,field.linear_acceleration_covariance4,field.linear_acceleration_covariance5,field.linear_acceleration_covariance6,field.linear_acceleration_covariance7,field.linear_acceleration_covariance8
23036000000,0,23036000000,imu_link,0.0004227532948,-0.366764513891,0.000337300176348,0.930313656171,0.0,0.0,0.0,0.0,0.0,0.0,0.0,0.0,0.0,0.00224368119345,-0.00916609935925,-0.0011032802937,0.0,0.0,0.0,0.0,0.0,0.0,0.0,0.0,0.0,5.95068826152,0.000435318828543,7.55671131139,0.0,0.0,0.0,0.0,0.0,0.0,0.0,0.0,0.0
23040000000,1,23040000000,imu_link,0.000428381091822,-0.366780596252,0.000336931599918,0.9303073133,0.0,0.0,0.0,0.0,0.0,0.0,0.0,0.0,0.0,0.00254884627792,-0.00864501683548,-0.00119901480162,0.0,0.0,0.0,0.0,0.0,0.0,0.0,0.0,0.0,5.95330761453,0.00055530788252,7.55267430202,0.0,0.0,0.0,0.0,0.0,0.0,0.0,0.0,0.0
23044000000,2,23044000000,imu_link,0.000434523138141,-0.366795769039,0.000336558805855,0.930301328459,0.0,0.0,0.0,0.0,0.0,0.0,0.0,0.0,0.0,0.00278735429118,-0.00815635384811,-0.00129554011898,0.0,0.0,0.0,0.0,0.0,0.0,0.0,0.0,0.0,5.95642482134,0.000686334170534,7.55100509511,0.0,0.0,0.0,0.0,0.0,0.0,0.0,0.0,0.0
23048000000,3,23048000000,imu_link,0.000440801220045,-0.366810457059,0.000336153427385,0.93029553438,0.0,0.0,0.0,0.0,0.0,0.0,0.0,0.0,0.0,0.00284469555414,-0.00789590848279,-0.0013357828386,0.0,0.0,0.0,0.0,0.0,0.0,0.0,0.0,0.0,5.96087096713,0.000843431811327,7.55509675054,0.0,0.0,0.0,0.0,0.0,0.0,0.0,0.0,0.0
23052000000,4,23052000000,imu_link,0.00044681993795,-0.366825422896,0.000335718877853,0.930289630579,0.0,0.0,0.0,0.0,0.0,0.0,0.0,0.0,0.0,0.00271868033155,-0.00804522124464,-0.00130170330627,0.0,0.0,0.0,0.0,0.0,0.0,0.0,0.0,0.0,5.96625907118,0.000949577301236,7.56355353812,0.0,0.0,0.0,0.0,0.0,0.0,0.0,0.0,0.0
23056000000,5,23056000000,imu_link,0.000452304305857,-0.366841143639,0.00033522633275,0.930283429057,0.0,0.0,0.0,0.0,0.0,0.0,0.0,0.0,0.0,0.00245943287154,-0.00845089050451,-0.00123045443499,0.0,0.0,0.0,0.0,0.0,0.0,0.0,0.0,0.0,5.96888788752,0.000949475723865,7.56347096597,0.0,0.0,0.0,0.0,0.0,0.0,0.0,0.0,0.0
23064000000,6,23064000000,imu_link,0.000460835958145,-0.366876225132,0.0003339839491,0.930269590774,0.0,0.0,0.0,0.0,0.0,0.0,0.0,0.0,0.0,0.00164385709925,-0.00980397521335,-0.00100329854282,0.0,0.0,0.0,0.0,0.0,0.0,0.0,0.0,0.0,5.97281809909,0.000858061763338,7.56131974852,0.0,0.0,0.0,0.0,0.0,0.0,0.0,0.0,0.0
23068000000,7,23068000000,imu_link,0.000463709487535,-0.366896058295,0.000333210956788,0.93026176765,0.0,0.0,0.0,0.0,0.0,0.0,0.0,0.0,0.0,0.00119327286359,-0.0106608112316,-0.00088078411261,0.0,0.0,0.0,0.0,0.0,0.0,0.0,0.0,0.0,5.97644949181,0.00065752641628,7.55822492663,0.0,0.0,0.0,0.0,0.0,0.0,0.0,0.0,0.0
23072000000,8,23072000000,imu_link,0.000465827481795,-0.366917481143,0.000332360805997,0.930253317421,0.0,0.0,0.0,0.0,0.0,0.0,0.0,0.0,0.0,0.000827576116929,-0.0115151563265,-0.000777598417975,0.0,0.0,0.0,0.0,0.0,0.0,0.0,0.0,0.0,5.97955332678,0.000516274975221,7.55605139582,0.0,0.0,0.0,0.0,0.0,0.0,0.0,0.0,0.0
23076000000,9,23076000000,imu_link,0.000467422403266,-0.366940512734,0.00033146542896,0.930244232318,0.0,0.0,0.0,0.0,0.0,0.0,0.0,0.0,0.0,0.00057586439784,-0.0123798216579,-0.000702191874387,0.0,0.0,0.0,0.0,0.0,0.0,0.0,0.0,0.0,5.98183896746,0.000392732093915,7.55220492263,0.0,0.0,0.0,0.0,0.0,0.0,0.0,0.0,0.0
23080000000,10,23080000000,imu_link,0.000468603317601,-0.366965275405,0.000330520934082,0.930234463893,0.0,0.0,0.0,0.0,0.0,0.0,0.0,0.0,0.0,0.000374161663074,-0.0133102982984,-0.000648561851113,0.0,0.0,0.0,0.0,0.0,0.0,0.0,0.0,0.0,5.9846927409,0.000331750913233,7.55004132482,0.0,0.0,0.0,0.0,0.0,0.0,0.0,0.0,0.0
23084000000,11,23084000000,imu_link,0.000469297704461,-0.366991816524,0.000329514967546,0.930223993339,0.0,0.0,0.0,0.0,0.0,0.0,0.0,0.0,0.0,0.000136460971108,-0.0142662467229,-0.000587351307116,0.0,0.0,0.0,0.0,0.0,0.0,0.0,0.0,0.0,5.9879036595,0.000315007345735,7.54829740505,0.0,0.0,0.0,0.0,0.0,0.0,0.0,0.0,0.0
23088000000,12,23088000000,imu_link,0.000469408068605,-0.36702012995,0.000328510302361,0.930212822933,0.0,0.0,0.0,0.0,0.0,0.0,0.0,0.0,0.0,-0.000135063989318,-0.0152188920393,-0.000479049077664,0.0,0.0,0.0,0.0,0.0,0.0,0.0,0.0,0.0,5.99089088217,0.00029876281824,7.5456746352,0.0,0.0,0.0,0.0,0.0,0.0,0.0,0.0,0.0
23092000000,13,23092000000,imu_link,0.000468958198956,-0.36705000639,0.000327578216846,0.930201035035,0.0,0.0,0.0,0.0,0.0,0.0,0.0,0.0,0.0,-0.000382425023502,-0.0160590664102,-0.000342014997095,0.0,0.0,0.0,0.0,0.0,0.0,0.0,0.0,0.0,5.99458370761,0.000253929003582,7.54302756154,0.0,0.0,0.0,0.0,0.0,0.0,0.0,0.0,0.0
23096000000,14,23096000000,imu_link,0.00046807109574,-0.367081100169,0.000326762425871,0.930188765808,0.0,0.0,0.0,0.0,0.0,0.0,0.0,0.0,0.0,-0.000564526151475,-0.016713488704,-0.000207318777182,0.0,0.0,0.0,0.0,0.0,0.0,0.0,0.0,0.0,5.99714670629,0.000205715158025,7.53690733395,0.0,0.0,0.0,0.0,0.0,0.0,0.0,0.0,0.0
23100000000,15,23100000000,imu_link,0.000466866312904,-0.367112887574,0.000326064355457,0.930176221742,0.0,0.0,0.0,0.0,0.0,0.0,0.0,0.0,0.0,-0.000690719665642,-0.0170864550677,-9.40532766645e-05,0.0,0.0,0.0,0.0,0.0,0.0,0.0,0.0,0.0,6.00029793016,0.000159154964879,7.53077769683,0.0,0.0,0.0,0.0,0.0,0.0,0.0,0.0,0.0
23104000000,16,23104000000,imu_link,0.000465565624708,-0.367144739507,0.00032547352436,0.93016365096,0.0,0.0,0.0,0.0,0.0,0.0,0.0,0.0,0.0,-0.000715643923867,-0.0171213291059,-2.65540797049e-05,0.0,0.0,0.0,0.0,0.0,0.0,0.0,0.0,0.0,6.00403889654,0.000131300314839,7.52586323965,0.0,0.0,0.0,0.0,0.0,0.0,0.0,0.0,0.0
23108000000,17,23108000000,imu_link,0.000464091230571,-0.367176022105,0.000324951515698,0.930151303723,0.0,0.0,0.0,0.0,0.0,0.0,0.0,0.0,0.0,-0.000783756888331,-0.0168154609264,3.7172684933e-05,0.0,0.0,0.0,0.0,0.0,0.0,0.0,0.0,0.0,6.00728574809,0.000186658554951,7.52018249995,0.0,0.0,0.0,0.0,0.0,0.0,0.0,0.0,0.0
23112000000,18,23112000000,imu_link,0.000462106826641,-0.367206444065,0.00032441379984,0.930139295294,0.0,0.0,0.0,0.0,0.0,0.0,0.0,0.0,0.0,-0.00102377246447,-0.0163529186234,0.000123244578189,0.0,0.0,0.0,0.0,0.0,0.0,0.0,0.0,0.0,6.01015654004,0.000273640892829,7.51673937904,0.0,0.0,0.0,0.0,0.0,0.0,0.0,0.0,0.0
23116000000,19,23116000000,imu_link,0.000459074636936,-0.367236113294,0.000323714587773,0.930127583481,0.0,0.0,0.0,0.0,0.0,0.0,0.0,0.0,0.0,-0.00154066348619,-0.0159482546116,0.000240292403828,0.0,0.0,0.0,0.0,0.0,0.0,0.0,0.0,0.0,6.01254747488,0.000344343524834,7.51541475215,0.0,0.0,0.0,0.0,0.0,0.0,0.0,0.0,0.0
23120000000,20,23120000000,imu_link,0.000454782112375,-0.367265361847,0.00032274101237,0.930116037384,0.0,0.0,0.0,0.0,0.0,0.0,0.0,0.0,0.0,-0.00217714760436,-0.0157220431644,0.000343992804154,0.0,0.0,0.0,0.0,0.0,0.0,0.0,0.0,0.0,6.01518376267,0.000277739968851,7.516514638,0.0,0.0,0.0,0.0,0.0,0.0,0.0,0.0,0.0
23124000000,21,23124000000,imu_link,0.000449586292253,-0.367294313615,0.000321474253988,0.930104607941,0.0,0.0,0.0,0.0,0.0,0.0,0.0,0.0,0.0,-0.00265104905882,-0.0155625212868,0.000373433983936,0.0,0.0,0.0,0.0,0.0,0.0,0.0,0.0,0.0,6.01849760725,8.99838274618e-05,7.51685085626,0.0,0.0,0.0,0.0,0.0,0.0,0.0,0.0,0.0
23128000000,22,23128000000,imu_link,0.00044426324656,-0.367322915523,0.000320000461951,0.930093315728,0.0,0.0,0.0,0.0,0.0,0.0,0.0,0.0,0.0,-0.00274821135906,-0.0153746416451,0.000300416415591,0.0,0.0,0.0,0.0,0.0,0.0,0.0,0.0,0.0,6.02221742487,-7.9655394624e-05,7.5165609247,0.0,0.0,0.0,0.0,0.0,0.0,0.0,0.0,0.0
23132000000,23,23132000000,imu_link,0.00043959921712,-0.367350738265,0.000318462771628,0.930082329921,0.0,0.0,0.0,0.0,0.0,0.0,0.0,0.0,0.0,-0.00245341710058,-0.0149561375009,0.000149442742666,0.0,0.0,0.0,0.0,0.0,0.0,0.0,0.0,0.0,6.02663532434,-0.000154259174764,7.51516837916,0.0,0.0,0.0,0.0,0.0,0.0,0.0,0.0,0.0
23136000000,24,23136000000,imu_link,0.000435976220022,-0.367377404686,0.000316984493798,0.930071799364,0.0,0.0,0.0,0.0,0.0,0.0,0.0,0.0,0.0,-0.00195829753697,-0.0143349355071,-1.44666505902e-05,0.0,0.0,0.0,0.0,0.0,0.0,0.0,0.0,0.0,6.02883567364,-4.2844578472e-05,7.50921830976,0.0,0.0,0.0,0.0,0.0,0.0,0.0,0.0,0.0
23140000000,25,23140000000,imu_link,0.000433306896653,-0.367402815801,0.000315589002858,0.93006176332,0.0,0.0,0.0,0.0,0.0,0.0,0.0,0.0,0.0,-0.00149950684154,-0.013660469929,-0.000151498882793,0.0,0.0,0.0,0.0,0.0,0.0,0.0,0.0,0.0,6.02913446144,0.000183656376956,7.50124224423,0.0,0.0,0.0,0.0,0.0,0.0,0.0,0.0,0.0
23144000000,26,23144000000,imu_link,0.000431029739075,-0.367427374868,0.000314223293888,0.930052062884,0.0,0.0,0.0,0.0,0.0,0.0,0.0,0.0,0.0,-0.00131160490974,-0.0132026448061,-0.000209928311399,0.0,0.0,0.0,0.0,0.0,0.0,0.0,0.0,0.0,6.03163023691,0.000473243421694,7.50200647146,0.0,0.0,0.0,0.0,0.0,0.0,0.0,0.0,0.0
23148000000,27,23148000000,imu_link,0.000428585349017,-0.367451730439,0.000312820916735,0.930042442179,0.0,0.0,0.0,0.0,0.0,0.0,0.0,0.0,0.0,-0.00139609402556,-0.0130933479483,-0.000196313458511,0.0,0.0,0.0,0.0,0.0,0.0,0.0,0.0,0.0,6.03506432741,0.000690844281883,7.50673312062,0.0,0.0,0.0,0.0,0.0,0.0,0.0,0.0,0.0
23152000000,28,23152000000,imu_link,0.000425698322227,-0.367476373442,0.000311326196457,0.930032707392,0.0,0.0,0.0,0.0,0.0,0.0,0.0,0.0,0.0,-0.00161891582975,-0.0132479202565,-0.000157851716799,0.0,0.0,0.0,0.0,0.0,0.0,0.0,0.0,0.0,6.03763837721,0.000780784870734,7.50810824777,0.0,0.0,0.0,0.0,0.0,0.0,0.0,0.0,0.0
23156000000,29,23156000000,imu_link,0.000422352092895,-0.367501351974,0.000309728132774,0.930022839496,0.0,0.0,0.0,0.0,0.0,0.0,0.0,0.0,0.0,-0.00185146454881,-0.0134283543313,-0.000121442910094,0.0,0.0,0.0,0.0,0.0,0.0,0.0,0.0,0.0,6.0383818401,0.000798613919182,7.50210704958,0.0,0.0,0.0,0.0,0.0,0.0,0.0,0.0,0.0
23160000000,30,23160000000,imu_link,0.000418821514964,-0.367526612971,0.000308095524715,0.930012859279,0.0,0.0,0.0,0.0,0.0,0.0,0.0,0.0,0.0,-0.0019435563297,-0.0135803220092,-0.000103555215502,0.0,0.0,0.0,0.0,0.0,0.0,0.0,0.0,0.0,6.04038336636,0.00076216912817,7.49831208764,0.0,0.0,0.0,0.0,0.0,0.0,0.0,0.0,0.0
23164000000,31,23164000000,imu_link,0.000415333196044,-0.367551965577,0.000306510784455,0.930002842012,0.0,0.0,0.0,0.0,0.0,0.0,0.0,0.0,0.0,-0.00191511562585,-0.0136297249705,-8.90371453603e-05,0.0,0.0,0.0,0.0,0.0,0.0,0.0,0.0,0.0,6.04234300976,0.00076296981073,7.49336080914,0.0,0.0,0.0,0.0,0.0,0.0,0.0,0.0,0.0
23168000000,32,23168000000,imu_link,0.000411718999525,-0.367577119674,0.000304967013771,0.929992902432,0.0,0.0,0.0,0.0,0.0,0.0,0.0,0.0,0.0,-0.00196610537472,-0.01352311395,-4.69060848125e-05,0.0,0.0,0.0,0.0,0.0,0.0,0.0,0.0,0.0,6.04422765185,0.000863003428185,7.48764521714,0.0,0.0,0.0,0.0,0.0,0.0,0.0,0.0,0.0
23172000000,33,23172000000,imu_link,0.000407954404663,-0.36760187142,0.000303448725365,0.929983121148,0.0,0.0,0.0,0.0,0.0,0.0,0.0,0.0,0.0,-0.00203132795447,-0.0133069007512,-7.52238590617e-06,0.0,0.0,0.0,0.0,0.0,0.0,0.0,0.0,0.0,6.04684538474,0.000906893586762,7.48363873261,0.0,0.0,0.0,0.0,0.0,0.0,0.0,0.0,0.0
23176000000,34,23176000000,imu_link,0.000404103400048,-0.367626249061,0.000301955986929,0.929973487001,0.0,0.0,0.0,0.0,0.0,0.0,0.0,0.0,0.0,-0.00206678490306,-0.0131058826227,2.014169425e-05,0.0,0.0,0.0,0.0,0.0,0.0,0.0,0.0,0.0,6.04806015993,0.000932067156785,7.4785032452,0.0,0.0,0.0,0.0,0.0,0.0,0.0,0.0,0.0
23180000000,35,23180000000,imu_link,0.000400241158177,-0.367650796413,0.000300493525802,0.929963784998,0.0,0.0,0.0,0.0,0.0,0.0,0.0,0.0,0.0,-0.00206645662402,-0.01319726127,3.63303324753e-05,0.0,0.0,0.0,0.0,0.0,0.0,0.0,0.0,0.0,6.0513138097,0.000956589773919,7.48169763315,0.0,0.0,0.0,0.0,0.0,0.0,0.0,0.0,0.0
23184000000,36,23184000000,imu_link,0.000396527410344,-0.367676228788,0.000299127686988,0.929953732222,0.0,0.0,0.0,0.0,0.0,0.0,0.0,0.0,0.0,-0.00197971072477,-0.0136732645518,5.41907963352e-05,0.0,0.0,0.0,0.0,0.0,0.0,0.0,0.0,0.0,6.05500041243,0.000981022886887,7.48723349696,0.0,0.0,0.0,0.0,0.0,0.0,0.0,0.0,0.0
23188000000,37,23188000000,imu_link,0.000393144740463,-0.367703106396,0.00029790941383,0.929943106988,0.0,0.0,0.0,0.0,0.0,0.0,0.0,0.0,0.0,-0.00179874160132,-0.0144505247084,6.23128226622e-05,0.0,0.0,0.0,0.0,0.0,0.0,0.0,0.0,0.0,6.05784115042,0.00102414973091,7.48939317395,0.0,0.0,0.0,0.0,0.0,0.0,0.0,0.0,0.0
23192000000,38,23192000000,imu_link,0.000390256545723,-0.367731424203,0.000296847704589,0.929931911075,0.0,0.0,0.0,0.0,0.0,0.0,0.0,0.0,0.0,-0.00154014255255,-0.0152251393212,4.45686762903e-05,0.0,0.0,0.0,0.0,0.0,0.0,0.0,0.0,0.0,6.06046201147,0.00112147408518,7.48681028056,0.0,0.0,0.0,0.0,0.0,0.0,0.0,0.0,0.0
23196000000,39,23196000000,imu_link,0.000387935528158,-0.367760739565,0.000295910923515,0.92992031937,0.0,0.0,0.0,0.0,0.0,0.0,0.0,0.0,0.0,-0.00125352529937,-0.0157618002154,-1.37501904503e-06,0.0,0.0,0.0,0.0,0.0,0.0,0.0,0.0,0.0,6.06272132519,0.00126069343603,7.48042186924,0.0,0.0,0.0,0.0,0.0,0.0,0.0,0.0,0.0
23200000000,40,23200000000,imu_link,0.00038607801217,-0.367790437395,0.000295067257377,0.929908575097,0.0,0.0,0.0,0.0,0.0,0.0,0.0,0.0,0.0,-0.00102092051844,-0.0159677382093,-4.3212363983e-05,0.0,0.0,0.0,0.0,0.0,0.0,0.0,0.0,0.0,6.06533040462,0.001448927821,7.47386750015,0.0,0.0,0.0,0.0,0.0,0.0,0.0,0.0,0.0
23204000000,41,23204000000,imu_link,0.000384564017551,-0.367819954938,0.000294275313391,0.929896900878,0.0,0.0,0.0,0.0,0.0,0.0,0.0,0.0,0.0,-0.000851674252715,-0.0158710708922,-8.23810030934e-05,0.0,0.0,0.0,0.0,0.0,0.0,0.0,0.0,0.0,6.06716184762,0.00159539905872,7.46655513435,0.0,0.0,0.0,0.0,0.0,0.0,0.0,0.0,0.0
23208000000,42,23208000000,imu_link,0.000383074106023,-0.367848934511,0.000293476692648,0.929885438377,0.0,0.0,0.0,0.0,0.0,0.0,0.0,0.0,0.0,-0.000841666332892,-0.0155820100375,-9.00490656777e-05,0.0,0.0,0.0,0.0,0.0,0.0,0.0,0.0,0.0,6.06886187225,0.00173968017045,7.46105607689,0.0,0.0,0.0,0.0,0.0,0.0,0.0,0.0,0.0
23212000000,43,23212000000,imu_link,0.00038124682154,-0.367877253961,0.000292607752303,0.929874236147,0.0,0.0,0.0,0.0,0.0,0.0,0.0,0.0,0.0,-0.0010114119142,-0.0152271845969,-6.08571407842e-05,0.0,0.0,0.0,0.0,0.0,0.0,0.0,0.0,0.0,6.07069242696,0.00183392386819,7.45777978481,0.0,0.0,0.0,0.0,0.0,0.0,0.0,0.0,0.0
23216000000,44,23216000000,imu_link,0.000378655299571,-0.367904844058,0.000291601126296,0.929863321842,0.0,0.0,0.0,0.0,0.0,0.0,0.0,0.0,0.0,-0.00139200817822,-0.0148350351776,1.55193214138e-05,0.0,0.0,0.0,0.0,0.0,0.0,0.0,0.0,0.0,6.07280616136,0.0018907741493,7.4546791242,0.0,0.0,0.0,0.0,0.0,0.0,0.0,0.0,0.0
23220000000,45,23220000000,imu_link,0.000375273910938,-0.36793176927,0.000290473831497,0.929852670027,0.0,0.0,0.0,0.0,0.0,0.0,0.0,0.0,0.0,-0.00178139227026,-0.0144775309328,0.000104550313274,0.0,0.0,0.0,0.0,0.0,0.0,0.0,0.0,0.0,6.0741530095,0.00182143339079,7.45064929796,0.0,0.0,0.0,0.0,0.0,0.0,0.0,0.0,0.0
23224000000,46,23224000000,imu_link,0.000371155364664,-0.367957958542,0.000289269034525,0.929842308842,0.0,0.0,0.0,0.0,0.0,0.0,0.0,0.0,0.0,-0.00213832167428,-0.0140818147119,0.000203949069899,0.0,0.0,0.0,0.0,0.0,0.0,0.0,0.0,0.0,6.07589951506,0.00173350329754,7.44635661567,0.0,0.0,0.0,0.0,0.0,0.0,0.0,0.0,0.0
23228000000,47,23228000000,imu_link,0.000366476143677,-0.367983341526,0.000288028120643,0.929832266108,0.0,0.0,0.0,0.0,0.0,0.0,0.0,0.0,0.0,-0.00240557844197,-0.0136482917481,0.000290114227942,0.0,0.0,0.0,0.0,0.0,0.0,0.0,0.0,0.0,6.07778297944,0.00163428404909,7.44250142141,0.0,0.0,0.0,0.0,0.0,0.0,0.0,0.0,0.0
23232000000,48,23232000000,imu_link,0.000361819324794,-0.368007705926,0.000286820002119,0.929822625666,0.0,0.0,0.0,0.0,0.0,0.0,0.0,0.0,0.0,-0.00238905629403,-0.0131007144441,0.000300994939442,0.0,0.0,0.0,0.0,0.0,0.0,0.0,0.0,0.0,6.08089632034,0.00149106624907,7.44048072991,0.0,0.0,0.0,0.0,0.0,0.0,0.0,0.0,0.0
23236000000,49,23236000000,imu_link,0.000357852651267,-0.368030948618,0.000285713210192,0.92981342815,0.0,0.0,0.0,0.0,0.0,0.0,0.0,0.0,0.0,-0.00204947469168,-0.0124978000278,0.000220846967508,0.0,0.0,0.0,0.0,0.0,0.0,0.0,0.0,0.0,6.08360816451,0.00141843348335,7.43825160146,0.0,0.0,0.0,0.0,0.0,0.0,0.0,0.0,0.0
23240000000,50,23240000000,imu_link,0.000354985559144,-0.368053021433,0.000284790046073,0.929804692553,0.0,0.0,0.0,0.0,0.0,0.0,0.0,0.0,0.0,-0.00150439708057,-0.0118690409608,0.000103601465516,0.0,0.0,0.0,0.0,0.0,0.0,0.0,0.0,0.0,6.08656286762,0.00150443350285,7.43720754252,0.0,0.0,0.0,0.0,0.0,0.0,0.0,0.0,0.0
23244000000,51,23244000000,imu_link,0.000353164534019,-0.368073963377,0.000284053913082,0.92979640356,0.0,0.0,0.0,0.0,0.0,0.0,0.0,0.0,0.0,-0.000983577631585,-0.0112612243875,-2.21569983635e-06,0.0,0.0,0.0,0.0,0.0,0.0,0.0,0.0,0.0,6.08718728473,0.00173671890312,7.43182148292,0.0,0.0,0.0,0.0,0.0,0.0,0.0,0.0,0.0
23248000000,52,23248000000,imu_link,0.000351830599945,-0.368093966834,0.000283431125,0.929788485335,0.0,0.0,0.0,0.0,0.0,0.0,0.0,0.0,0.0,-0.000736202403331,-0.0107567379505,-3.93830016954e-05,0.0,0.0,0.0,0.0,0.0,0.0,0.0,0.0,0.0,6.09018567071,0.00203538354276,7.43311195833,0.0,0.0,0.0,0.0,0.0,0.0,0.0,0.0,0.0
23252000000,53,23252000000,imu_link,0.000350149997246,-0.368113292084,0.000282821973303,0.92978083525,0.0,0.0,0.0,0.0,0.0,0.0,0.0,0.0,0.0,-0.000894807973145,-0.0103920418029,3.06024836744e-05,0.0,0.0,0.0,0.0,0.0,0.0,0.0,0.0,0.0,6.09440333455,0.00230216028809,7.43786692277,0.0,0.0,0.0,0.0,0.0,0.0,0.0,0.0,0.0
23256000000,54,23256000000,imu_link,0.000347759346088,-0.368132010979,0.000282174031418,0.929773425052,0.0,0.0,0.0,0.0,0.0,0.0,0.0,0.0,0.0,-0.00123199854251,-0.0100659062364,0.000143118354565,0.0,0.0,0.0,0.0,0.0,0.0,0.0,0.0,0.0,6.09503357721,0.0023499375397,7.43289510321,0.0,0.0,0.0,0.0,0.0,0.0,0.0,0.0,0.0
23260000000,55,23260000000,imu_link,0.000344696516312,-0.368150026788,0.000281478876515,0.92976629307,0.0,0.0,0.0,0.0,0.0,0.0,0.0,0.0,0.0,-0.00155312494233,-0.00968775461921,0.000244733377703,0.0,0.0,0.0,0.0,0.0,0.0,0.0,0.0,0.0,6.09588929266,0.00227307834843,7.42695308707,0.0,0.0,0.0,0.0,0.0,0.0,0.0,0.0,0.0
23264000000,56,23264000000,imu_link,0.000341290102228,-0.36816725982,0.000280743962598,0.929759470777,0.0,0.0,0.0,0.0,0.0,0.0,0.0,0.0,0.0,-0.00172011334402,-0.00926680695115,0.000289316873082,0.0,0.0,0.0,0.0,0.0,0.0,0.0,0.0,0.0,6.09777173463,0.00214813049837,7.42329980375,0.0,0.0,0.0,0.0,0.0,0.0,0.0,0.0,0.0
23268000000,57,23268000000,imu_link,0.000337789917793,-0.368183881117,0.000279970880422,0.929752890396,0.0,0.0,0.0,0.0,0.0,0.0,0.0,0.0,0.0,-0.00177068684225,-0.0089378848829,0.000288696461866,0.0,0.0,0.0,0.0,0.0,0.0,0.0,0.0,0.0,6.09988454543,0.00208142666378,7.42232842225,0.0,0.0,0.0,0.0,0.0,0.0,0.0,0.0,0.0
23272000000,58,23272000000,imu_link,0.00033429267087,-0.368200409897,0.000279126618165,0.929746346316,0.0,0.0,0.0,0.0,0.0,0.0,0.0,0.0,0.0,-0.0017824181217,-0.00888820594506,0.00025504503944,0.0,0.0,0.0,0.0,0.0,0.0,0.0,0.0,0.0,6.10348351098,0.00208230425437,7.4271800744,0.0,0.0,0.0,0.0,0.0,0.0,0.0,0.0,0.0
23276000000,59,23276000000,imu_link,0.000330680044877,-0.368217195215,0.000278141806828,0.929739700365,0.0,0.0,0.0,0.0,0.0,0.0,0.0,0.0,0.0,-0.00186194864603,-0.00902622568498,0.000211005949907,0.0,0.0,0.0,0.0,0.0,0.0,0.0,0.0,0.0,6.10485959122,0.00213492307,7.42544807991,0.0,0.0,0.0,0.0,0.0,0.0,0.0,0.0,0.0
23280000000,60,23280000000,imu_link,0.000326820953183,-0.368234375511,0.000276991382568,0.929732897748,0.0,0.0,0.0,0.0,0.0,0.0,0.0,0.0,0.0,-0.00200704290987,-0.0092386753921,0.000179481042821,0.0,0.0,0.0,0.0,0.0,0.0,0.0,0.0,0.0,6.10605937929,0.00217777484655,7.42145319626,0.0,0.0,0.0,0.0,0.0,0.0,0.0,0.0,0.0
23284000000,61,23284000000,imu_link,0.000322450711568,-0.368252019855,0.000275656067407,0.929725911176,0.0,0.0,0.0,0.0,0.0,0.0,0.0,0.0,0.0,-0.00227873515951,-0.00948822461952,0.000187744259947,0.0,0.0,0.0,0.0,0.0,0.0,0.0,0.0,0.0,6.10793983144,0.00225458492889,7.41844841886,0.0,0.0,0.0,0.0,0.0,0.0,0.0,0.0,0.0
23288000000,62,23288000000,imu_link,0.000317271009145,-0.368270271462,0.000274088923047,0.929718683996,0.0,0.0,0.0,0.0,0.0,0.0,0.0,0.0,0.0,-0.00269775419442,-0.00981474604814,0.000229149310295,0.0,0.0,0.0,0.0,0.0,0.0,0.0,0.0,0.0,6.11033980937,0.00229369379866,7.41747645607,0.0,0.0,0.0,0.0,0.0,0.0,0.0,0.0,0.0
23292000000,63,23292000000,imu_link,0.000311287933553,-0.368289402729,0.000272293011154,0.929711108245,0.0,0.0,0.0,0.0,0.0,0.0,0.0,0.0,0.0,-0.00311339911445,-0.0102877756283,0.000270921128732,0.0,0.0,0.0,0.0,0.0,0.0,0.0,0.0,0.0,6.11278307261,0.00225564544843,7.41760490452,0.0,0.0,0.0,0.0,0.0,0.0,0.0,0.0,0.0
23296000000,64,23296000000,imu_link,0.000304591754011,-0.368309663134,0.000270276952525,0.929703084977,0.0,0.0,0.0,0.0,0.0,0.0,0.0,0.0,0.0,-0.00348551237665,-0.0108950057276,0.000300135680522,0.0,0.0,0.0,0.0,0.0,0.0,0.0,0.0,0.0,6.11427326907,0.00219560615885,7.41545185404,0.0,0.0,0.0,0.0,0.0,0.0,0.0,0.0,0.0
23300000000,65,23300000000,imu_link,0.000297660298095,-0.368331143147,0.000268082051117,0.929694578084,0.0,0.0,0.0,0.0,0.0,0.0,0.0,0.0,0.0,-0.00362790688603,-0.0115510003653,0.000260578717486,0.0,0.0,0.0,0.0,0.0,0.0,0.0,0.0,0.0,6.11588728121,0.00207999055272,7.41261309355,0.0,0.0,0.0,0.0,0.0,0.0,0.0,0.0,0.0
23304000000,66,23304000000,imu_link,0.000291151735618,-0.368353864209,0.000265800020006,0.929685578732,0.0,0.0,0.0,0.0,0.0,0.0,0.0,0.0,0.0,-0.00344746536755,-0.012218662328,0.000142445014856,0.0,0.0,0.0,0.0,0.0,0.0,0.0,0.0,0.0,6.11937955844,0.0019977443594,7.41350328266,0.0,0.0,0.0,0.0,0.0,0.0,0.0,0.0,0.0
23308000000,67,23308000000,imu_link,0.000285603142481,-0.368377787576,0.000263554445361,0.929676101979,0.0,0.0,0.0,0.0,0.0,0.0,0.0,0.0,0.0,-0.00299460639014,-0.0128655932208,-1.71741945849e-05,0.0,0.0,0.0,0.0,0.0,0.0,0.0,0.0,0.0,6.12306458409,0.00203247467554,7.41356909175,0.0,0.0,0.0,0.0,0.0,0.0,0.0,0.0,0.0
23312000000,68,23312000000,imu_link,0.000281113508881,-0.36840282588,0.000261397089603,0.92966618231,0.0,0.0,0.0,0.0,0.0,0.0,0.0,0.0,0.0,-0.00248619643744,-0.0134655660855,-0.000170997704136,0.0,0.0,0.0,0.0,0.0,0.0,0.0,0.0,0.0,6.12482816306,0.00220869234884,7.40960528709,0.0,0.0,0.0,0.0,0.0,0.0,0.0,0.0,0.0
23316000000,69,23316000000,imu_link,0.00027750715071,-0.368428908243,0.000259322381035,0.929655847781,0.0,0.0,0.0,0.0,0.0,0.0,0.0,0.0,0.0,-0.00206047520631,-0.0140274003087,-0.000295080166172,0.0,0.0,0.0,0.0,0.0,0.0,0.0,0.0,0.0,6.12575743313,0.00245865302431,7.40366300891,0.0,0.0,0.0,0.0,0.0,0.0,0.0,0.0,0.0
23320000000,70,23320000000,imu_link,0.000274639520663,-0.368455842121,0.000257307715758,0.929645174662,0.0,0.0,0.0,0.0,0.0,0.0,0.0,0.0,0.0,-0.00170609633149,-0.0144856691488,-0.000403092713079,0.0,0.0,0.0,0.0,0.0,0.0,0.0,0.0,0.0,6.12760641044,0.0026637187398,7.3990265653,0.0,0.0,0.0,0.0,0.0,0.0,0.0,0.0,0.0
23324000000,71,23324000000,imu_link,0.000272769912301,-0.368483339209,0.000255365968156,0.929634277074,0.0,0.0,0.0,0.0,0.0,0.0,0.0,0.0,0.0,-0.00122880147258,-0.0147889335264,-0.000552956173009,0.0,0.0,0.0,0.0,0.0,0.0,0.0,0.0,0.0,6.13007814728,0.00277484613641,7.39527863655,0.0,0.0,0.0,0.0,0.0,0.0,0.0,0.0,0.0
23328000000,72,23328000000,imu_link,0.000272130739878,-0.36851123561,0.000253516549085,0.92962321986,0.0,0.0,0.0,0.0,0.0,0.0,0.0,0.0,0.0,-0.000639892212711,-0.0150040956647,-0.000736663018533,0.0,0.0,0.0,0.0,0.0,0.0,0.0,0.0,0.0,6.13186170237,0.0029286361184,7.39099093585,0.0,0.0,0.0,0.0,0.0,0.0,0.0,0.0,0.0
23332000000,73,23332000000,imu_link,0.000272881015891,-0.368539279288,0.0002517723132,0.929612102852,0.0,0.0,0.0,0.0,0.0,0.0,0.0,0.0,0.0,2.53096128796e-05,-0.0150837305011,-0.000943758714523,0.0,0.0,0.0,0.0,0.0,0.0,0.0,0.0,0.0,6.13434769612,0.00313356597539,7.38787699555,0.0,0.0,0.0,0.0,0.0,0.0,0.0,0.0,0.0
23336000000,74,23336000000,imu_link,0.000274887656253,-0.368567222576,0.000250119803415,0.929601024268,0.0,0.0,0.0,0.0,0.0,0.0,0.0,0.0,0.0,0.000626185095181,-0.0150301342058,-0.00113265220851,0.0,0.0,0.0,0.0,0.0,0.0,0.0,0.0,0.0,6.13562078702,0.00341176977185,7.38232172589,0.0,0.0,0.0,0.0,0.0,0.0,0.0,0.0,0.0
23340000000,75,23340000000,imu_link,0.000277561561515,-0.36859473825,0.000248496763014,0.929590114052,0.0,0.0,0.0,0.0,0.0,0.0,0.0,0.0,0.0,0.000941791223486,-0.0148004306632,-0.00124200063775,0.0,0.0,0.0,0.0,0.0,0.0,0.0,0.0,0.0,6.13769777253,0.00372139946825,7.37814419327,0.0,0.0,0.0,0.0,0.0,0.0,0.0,0.0,0.0
23344000000,76,23344000000,imu_link,0.000280277427129,-0.368621455138,0.000246839042119,0.929579519636,0.0,0.0,0.0,0.0,0.0,0.0,0.0,0.0,0.0,0.00095495808485,-0.0143709683635,-0.00126600323634,0.0,0.0,0.0,0.0,0.0,0.0,0.0,0.0,0.0,6.14117501575,0.00394200697791,7.37700207744,0.0,0.0,0.0,0.0,0.0,0.0,0.0,0.0,0.0
23348000000,77,23348000000,imu_link,0.000282653334573,-0.368647035949,0.000245093481221,0.929569374992,0.0,0.0,0.0,0.0,0.0,0.0,0.0,0.0,0.0,0.000780836337858,-0.0137600032376,-0.0012443871516,0.0,0.0,0.0,0.0,0.0,0.0,0.0,0.0,0.0,6.14279281706,0.00402151458036,7.37201554512,0.0,0.0,0.0,0.0,0.0,0.0,0.0,0.0,0.0
23352000000,78,23352000000,imu_link,0.00028452804124,-0.368671182386,0.000243218635466,0.929559798597,0.0,0.0,0.0,0.0,0.0,0.0,0.0,0.0,0.0,0.000524151119959,-0.0129885437502,-0.00121236603525,0.0,0.0,0.0,0.0,0.0,0.0,0.0,0.0,0.0,6.14433263242,0.00401475492042,7.36693624547,0.0,0.0,0.0,0.0,0.0,0.0,0.0,0.0,0.0
23356000000,79,23356000000,imu_link,0.000285897103451,-0.368693999386,0.000241199298148,0.929550748965,0.0,0.0,0.0,0.0,0.0,0.0,0.0,0.0,0.0,0.000262589535301,-0.0122735062184,-0.00118656772987,0.0,0.0,0.0,0.0,0.0,0.0,0.0,0.0,0.0,6.14555396437,0.00395005831794,7.36381795066,0.0,0.0,0.0,0.0,0.0,0.0,0.0,0.0,0.0
23360000000,80,23360000000,imu_link,0.000287007492519,-0.368716039772,0.000239063810893,0.929542006845,0.0,0.0,0.0,0.0,0.0,0.0,0.0,0.0,0.0,0.000121002437149,-0.0118558512236,-0.00119301384433,0.0,0.0,0.0,0.0,0.0,0.0,0.0,0.0,0.0,6.14755388262,0.00384352013763,7.36600407079,0.0,0.0,0.0,0.0,0.0,0.0,0.0,0.0,0.0
23364000000,81,23364000000,imu_link,0.000288322442998,-0.368737694568,0.000236898502189,0.929533417018,0.0,0.0,0.0,0.0,0.0,0.0,0.0,0.0,0.0,0.000210603061948,-0.011648592714,-0.00124466006331,0.0,0.0,0.0,0.0,0.0,0.0,0.0,0.0,0.0,6.15022820478,0.00373905693261,7.36852049326,0.0,0.0,0.0,0.0,0.0,0.0,0.0,0.0,0.0
23368000000,82,23368000000,imu_link,0.000290229215655,-0.368759040189,0.000234756260229,0.929524949066,0.0,0.0,0.0,0.0,0.0,0.0,0.0,0.0,0.0,0.000489934148481,-0.0114824952505,-0.00134311198829,0.0,0.0,0.0,0.0,0.0,0.0,0.0,0.0,0.0,6.15180623206,0.00371662772157,7.36597427165,0.0,0.0,0.0,0.0,0.0,0.0,0.0,0.0,0.0
23372000000,83,23372000000,imu_link,0.00029323249566,-0.368779954093,0.000232683060069,0.929516651455,0.0,0.0,0.0,0.0,0.0,0.0,0.0,0.0,0.0,0.00101230546633,-0.0112505607397,-0.00151328009223,0.0,0.0,0.0,0.0,0.0,0.0,0.0,0.0,0.0,6.15336898218,0.00374099860221,7.36173158021,0.0,0.0,0.0,0.0,0.0,0.0,0.0,0.0,0.0
23376000000,84,23376000000,imu_link,0.000297728429071,-0.368800301514,0.000230717833945,0.929508577545,0.0,0.0,0.0,0.0,0.0,0.0,0.0,0.0,0.0,0.00172597100122,-0.0109461926512,-0.00173843766841,0.0,0.0,0.0,0.0,0.0,0.0,0.0,0.0,0.0,6.15498713089,0.00390489367453,7.35762293076,0.0,0.0,0.0,0.0,0.0,0.0,0.0,0.0,0.0
23380000000,85,23380000000,imu_link,0.000303660465336,-0.368820035523,0.000228862857309,0.929500745997,0.0,0.0,0.0,0.0,0.0,0.0,0.0,0.0,0.0,0.00241377066795,-0.0106165641856,-0.00195213560247,0.0,0.0,0.0,0.0,0.0,0.0,0.0,0.0,0.0,6.15618460518,0.00417865804572,7.35363342885,0.0,0.0,0.0,0.0,0.0,0.0,0.0,0.0,0.0
23384000000,86,23384000000,imu_link,0.000310488745663,-0.368839140593,0.000227061144744,0.929493163185,0.0,0.0,0.0,0.0,0.0,0.0,0.0,0.0,0.0,0.00284015706311,-0.0102784899588,-0.00209278144435,0.0,0.0,0.0,0.0,0.0,0.0,0.0,0.0,0.0,6.15843548635,0.00446842150583,7.3524988605,0.0,0.0,0.0,0.0,0.0,0.0,0.0,0.0,0.0
23388000000,87,23388000000,imu_link,0.00031738788038,-0.368857814288,0.00022524482936,0.92948575103,0.0,0.0,0.0,0.0,0.0,0.0,0.0,0.0,0.0,0.00287041583359,-0.01004654741,-0.00211272133408,0.0,0.0,0.0,0.0,0.0,0.0,0.0,0.0,0.0,6.16156749397,0.00471089181075,7.35516863241,0.0,0.0,0.0,0.0,0.0,0.0,0.0,0.0,0.0
23392000000,88,23392000000,imu_link,0.000323910339783,-0.368876501314,0.000223369352406,0.929478333242,0.0,0.0,0.0,0.0,0.0,0.0,0.0,0.0,0.0,0.00268444695415,-0.0100537493867,-0.00207074368555,0.0,0.0,0.0,0.0,0.0,0.0,0.0,0.0,0.0,6.16441827717,0.00477346111224,7.35901498684,0.0,0.0,0.0,0.0,0.0,0.0,0.0,0.0,0.0
23396000000,89,23396000000,imu_link,0.000330068868604,-0.368895734636,0.000221447300813,0.929470698292,0.0,0.0,0.0,0.0,0.0,0.0,0.0,0.0,0.0,0.00250669817166,-0.0103476540408,-0.00202515329527,0.0,0.0,0.0,0.0,0.0,0.0,0.0,0.0,0.0,6.1659353853,0.00469936361931,7.36038664543,0.0,0.0,0.0,0.0,0.0,0.0,0.0,0.0,0.0
23400000000,90,23400000000,imu_link,0.000336131329172,-0.368915684109,0.000219538897958,0.929462778618,0.0,0.0,0.0,0.0,0.0,0.0,0.0,0.0,0.0,0.00246453703311,-0.0107329779142,-0.00200094094509,0.0,0.0,0.0,0.0,0.0,0.0,0.0,0.0,0.0,6.16688711005,0.00458758571024,7.35700594638,0.0,0.0,0.0,0.0,0.0,0.0,0.0,0.0,0.0
23404000000,91,23404000000,imu_link,0.000342172502797,-0.368936160197,0.000217672650466,0.92945464937,0.0,0.0,0.0,0.0,0.0,0.0,0.0,0.0,0.0,0.00246239762597,-0.0110163614469,-0.0019773119702,0.0,0.0,0.0,0.0,0.0,0.0,0.0,0.0,0.0,6.16852388303,0.0045495510984,7.35237371904,0.0,0.0,0.0,0.0,0.0,0.0,0.0,0.0,0.0
23408000000,92,23408000000,imu_link,0.000348012480231,-0.36895682868,0.000215844525699,0.929446443249,0.0,0.0,0.0,0.0,0.0,0.0,0.0,0.0,0.0,0.00237592089634,-0.0111199243288,-0.00192243974024,0.0,0.0,0.0,0.0,0.0,0.0,0.0,0.0,0.0,6.17119975578,0.00458208322278,7.3488877448,0.0,0.0,0.0,0.0,0.0,0.0,0.0,0.0,0.0
23412000000,93,23412000000,imu_link,0.000353328434918,-0.36897751793,0.000214051663345,0.929438228503,0.0,0.0,0.0,0.0,0.0,0.0,0.0,0.0,0.0,0.0021388997711,-0.0111311042276,-0.00180937704854,0.0,0.0,0.0,0.0,0.0,0.0,0.0,0.0,0.0,6.17281135829,0.00461274996741,7.34463452193,0.0,0.0,0.0,0.0,0.0,0.0,0.0,0.0,0.0
23416000000,94,23416000000,imu_link,0.000358065550525,-0.368998588387,0.000212301599317,0.929429862058,0.0,0.0,0.0,0.0,0.0,0.0,0.0,0.0,0.0,0.00187778399709,-0.0113361750631,-0.00168261496358,0.0,0.0,0.0,0.0,0.0,0.0,0.0,0.0,0.0,6.17477374724,0.00455638891803,7.34516265894,0.0,0.0,0.0,0.0,0.0,0.0,0.0,0.0,0.0
23420000000,95,23420000000,imu_link,0.000362305275834,-0.369020613012,0.000210602958178,0.92942111637,0.0,0.0,0.0,0.0,0.0,0.0,0.0,0.0,0.0,0.00165609339712,-0.011849499699,-0.00156673873539,0.0,0.0,0.0,0.0,0.0,0.0,0.0,0.0,0.0,6.17744177543,0.00447474934723,7.34863626163,0.0,0.0,0.0,0.0,0.0,0.0,0.0,0.0,0.0
23424000000,96,23424000000,imu_link,0.000366564243039,-0.369044086452,0.000209002853577,0.929411794741,0.0,0.0,0.0,0.0,0.0,0.0,0.0,0.0,0.0,0.00168316808672,-0.0126290303041,-0.00152417499048,0.0,0.0,0.0,0.0,0.0,0.0,0.0,0.0,0.0,6.18100648808,0.00432224912897,7.35386415865,0.0,0.0,0.0,0.0,0.0,0.0,0.0,0.0,0.0
23428000000,97,23428000000,imu_link,0.000371236784028,-0.369069115062,0.000207535151185,0.929401854646,0.0,0.0,0.0,0.0,0.0,0.0,0.0,0.0,0.0,0.00189974022608,-0.0134658666189,-0.00153861071721,0.0,0.0,0.0,0.0,0.0,0.0,0.0,0.0,0.0,6.18320411652,0.00423133249653,7.35307740662,0.0,0.0,0.0,0.0,0.0,0.0,0.0,0.0,0.0
23432000000,98,23432000000,imu_link,0.000376237181219,-0.369095465133,0.000206191001604,0.929391388786,0.0,0.0,0.0,0.0,0.0,0.0,0.0,0.0,0.0,0.00207485553767,-0.0141769838376,-0.00154139656583,0.0,0.0,0.0,0.0,0.0,0.0,0.0,0.0,0.0,6.18481257517,0.00428526121116,7.34829005634,0.0,0.0,0.0,0.0,0.0,0.0,0.0,0.0,0.0
23436000000,99,23436000000,imu_link,0.000381243907071,-0.369122792651,0.000204937746178,0.929380533796,0.0,0.0,0.0,0.0,0.0,0.0,0.0,0.0,0.0,0.00209454318137,-0.0147029957609,-0.00150010238941,0.0,0.0,0.0,0.0,0.0,0.0,0.0,0.0,0.0,6.18726456893,0.00437700019807,7.3447447175,0.0,0.0,0.0,0.0,0.0,0.0,0.0,0.0,0.0
23444000000,100,23444000000,imu_link,0.000390461652282,-0.369178823324,0.000202649824586,0.929358274769,0.0,0.0,0.0,0.0,0.0,0.0,0.0,0.0,0.0,0.00186560148743,-0.0151292143173,-0.00132683497087,0.0,0.0,0.0,0.0,0.0,0.0,0.0,0.0,0.0,6.18955976281,0.00445611265146,7.33572920013,0.0,0.0,0.0,0.0,0.0,0.0,0.0,0.0,0.0
23448000000,101,23448000000,imu_link,0.00039451391045,-0.369206989821,0.000201655486752,0.929347083904,0.0,0.0,0.0,0.0,0.0,0.0,0.0,0.0,0.0,0.00169878642926,-0.0151547030703,-0.00120341911717,0.0,0.0,0.0,0.0,0.0,0.0,0.0,0.0,0.0,6.19178800702,0.00436400256909,7.3293800598,0.0,0.0,0.0,0.0,0.0,0.0,0.0,0.0,0.0
23452000000,102,23452000000,imu_link,0.00039799721143,-0.369235422804,0.000200755969977,0.929335786378,0.0,0.0,0.0,0.0,0.0,0.0,0.0,0.0,0.0,0.00145190554652,-0.0152981465522,-0.00105426347326,0.0,0.0,0.0,0.0,0.0,0.0,0.0,0.0,0.0,6.19428672085,0.00433124754364,7.33050422123,0.0,0.0,0.0,0.0,0.0,0.0,0.0,0.0,0.0
23456000000,103,23456000000,imu_link,0.000400826503089,-0.369264307311,0.000199943234507,0.929324308682,0.0,0.0,0.0,0.0,0.0,0.0,0.0,0.0,0.0,0.00116402030927,-0.0155411350458,-0.000893089345259,0.0,0.0,0.0,0.0,0.0,0.0,0.0,0.0,0.0,6.19658440253,0.00426431176648,7.33116494772,0.0,0.0,0.0,0.0,0.0,0.0,0.0,0.0,0.0
23460000000,104,23460000000,imu_link,0.00040296153898,-0.369293716096,0.000199193418664,0.929312621886,0.0,0.0,0.0,0.0,0.0,0.0,0.0,0.0,0.0,0.000853032408458,-0.0158232712209,-0.000735545061748,0.0,0.0,0.0,0.0,0.0,0.0,0.0,0.0,0.0,6.19765874968,0.00417418483881,7.32832291621,0.0,0.0,0.0,0.0,0.0,0.0,0.0,0.0,0.0
23464000000,105,23464000000,imu_link,0.000404817857965,-0.369323672354,0.000198529151373,0.929300716532,0.0,0.0,0.0,0.0,0.0,0.0,0.0,0.0,0.0,0.000739310618446,-0.0161179691885,-0.000644198113236,0.0,0.0,0.0,0.0,0.0,0.0,0.0,0.0,0.0,6.20013138863,0.00400914658902,7.32770321335,0.0,0.0,0.0,0.0,0.0,0.0,0.0,0.0,0.0
23468000000,106,23468000000,imu_link,0.000406975365007,-0.369354084151,0.000197990807303,0.92928862884,0.0,0.0,0.0,0.0,0.0,0.0,0.0,0.0,0.0,0.000902502658621,-0.0163633107966,-0.000641195478717,0.0,0.0,0.0,0.0,0.0,0.0,0.0,0.0,0.0,6.20260759365,0.0039063290004,7.32629526202,0.0,0.0,0.0,0.0,0.0,0.0,0.0,0.0,0.0
23472000000,107,23472000000,imu_link,0.000409903503015,-0.369384836945,0.000197617861572,0.92927640407,0.0,0.0,0.0,0.0,0.0,0.0,0.0,0.0,0.0,0.00129111136839,-0.016547111423,-0.000706578969123,0.0,0.0,0.0,0.0,0.0,0.0,0.0,0.0,0.0,6.20482309228,0.00390040020689,7.32436733686,0.0,0.0,0.0,0.0,0.0,0.0,0.0,0.0,0.0
23476000000,108,23476000000,imu_link,0.00041385624238,-0.369415842489,0.000197405160314,0.929264077145,0.0,0.0,0.0,0.0,0.0,0.0,0.0,0.0,0.0,0.0017967722034,-0.0166834835049,-0.000821297472752,0.0,0.0,0.0,0.0,0.0,0.0,0.0,0.0,0.0,6.20661608169,0.00395869614875,7.32188383496,0.0,0.0,0.0,0.0,0.0,0.0,0.0,0.0,0.0
23480000000,109,23480000000,imu_link,0.000418723195626,-0.369446911786,0.000197322804329,0.92925172322,0.0,0.0,0.0,0.0,0.0,0.0,0.0,0.0,0.0,0.00224562036152,-0.0167181561609,-0.00092958157107,0.0,0.0,0.0,0.0,0.0,0.0,0.0,0.0,0.0,6.20790454152,0.00412080468531,7.31752621768,0.0,0.0,0.0,0.0,0.0,0.0,0.0,0.0,0.0
23484000000,110,23484000000,imu_link,0.000424073327951,-0.369477771152,0.000197317442635,0.9292394513,0.0,0.0,0.0,0.0,0.0,0.0,0.0,0.0,0.0,0.00248434405243,-0.0166054999915,-0.000983114583896,0.0,0.0,0.0,0.0,0.0,0.0,0.0,0.0,0.0,6.21001204997,0.00431654123677,7.314773446,0.0,0.0,0.0,0.0,0.0,0.0,0.0,0.0,0.0
23488000000,111,23488000000,imu_link,0.000429438698078,-0.369508226119,0.000197293575882,0.929227338969,0.0,0.0,0.0,0.0,0.0,0.0,0.0,0.0,0.0,0.00248801129042,-0.0163881311913,-0.000994628905599,0.0,0.0,0.0,0.0,0.0,0.0,0.0,0.0,0.0,6.21220224272,0.00445888651548,7.31300733024,0.0,0.0,0.0,0.0,0.0,0.0,0.0,0.0,0.0
23492000000,112,23492000000,imu_link,0.0004345760629,-0.369538274716,0.000197217861933,0.929215387178,0.0,0.0,0.0,0.0,0.0,0.0,0.0,0.0,0.0,0.00237250354259,-0.0161696544797,-0.00097669599665,0.0,0.0,0.0,0.0,0.0,0.0,0.0,0.0,0.0,6.21454737665,0.00447986182902,7.31232348828,0.0,0.0,0.0,0.0,0.0,0.0,0.0,0.0,0.0
23496000000,113,23496000000,imu_link,0.000439542618887,-0.369567966337,0.000197120564686,0.929203576297,0.0,0.0,0.0,0.0,0.0,0.0,0.0,0.0,0.0,0.00228916109908,-0.0159777531101,-0.000955255022892,0.0,0.0,0.0,0.0,0.0,0.0,0.0,0.0,0.0,6.21563003136,0.00442115756244,7.30937635945,0.0,0.0,0.0,0.0,0.0,0.0,0.0,0.0,0.0
23500000000,114,23500000000,imu_link,0.000444526726515,-0.369597302138,0.000197078318824,0.929191905802,0.0,0.0,0.0,0.0,0.0,0.0,0.0,0.0,0.0,0.0023074924539,-0.0157864864821,-0.000933013349083,0.0,0.0,0.0,0.0,0.0,0.0,0.0,0.0,0.0,6.2181226492,0.00436405170414,7.30894791884,0.0,0.0,0.0,0.0,0.0,0.0,0.0,0.0,0.0
23504000000,115,23504000000,imu_link,0.000449638073449,-0.369626115202,0.000197137039898,0.929180442069,0.0,0.0,0.0,0.0,0.0,0.0,0.0,0.0,0.0,0.00238527142845,-0.0155054063622,-0.000909754730228,0.0,0.0,0.0,0.0,0.0,0.0,0.0,0.0,0.0,6.21908251012,0.00434772860818,7.30416917539,0.0,0.0,0.0,0.0,0.0,0.0,0.0,0.0,0.0
23508000000,116,23508000000,imu_link,0.000454944921222,-0.36965422261,0.000197300411551,0.929169257888,0.0,0.0,0.0,0.0,0.0,0.0,0.0,0.0,0.0,0.00249544670707,-0.0151258954209,-0.000897452402733,0.0,0.0,0.0,0.0,0.0,0.0,0.0,0.0,0.0,6.2211699976,0.00435240128201,7.30178220399,0.0,0.0,0.0,0.0,0.0,0.0,0.0,0.0,0.0
23512000000,117,23512000000,imu_link,0.000460372686672,-0.369681717799,0.000197559480594,0.929158316194,0.0,0.0,0.0,0.0,0.0,0.0,0.0,0.0,0.0,0.00256931590964,-0.0147966407503,-0.000875504915809,0.0,0.0,0.0,0.0,0.0,0.0,0.0,0.0,0.0,6.22266475901,0.00439956207123,7.30012644102,0.0,0.0,0.0,0.0,0.0,0.0,0.0,0.0,0.0
23516000000,118,23516000000,imu_link,0.000465797067537,-0.3697090686,0.000197878268648,0.929147430967,0.0,0.0,0.0,0.0,0.0,0.0,0.0,0.0,0.0,0.00257878327965,-0.0147191089423,-0.000847173911856,0.0,0.0,0.0,0.0,0.0,0.0,0.0,0.0,0.0,6.22496444458,0.00440506841075,7.3035855596,0.0,0.0,0.0,0.0,0.0,0.0,0.0,0.0,0.0
23520000000,119,23520000000,imu_link,0.000471203080471,-0.369736660864,0.000198237737496,0.929136448689,0.0,0.0,0.0,0.0,0.0,0.0,0.0,0.0,0.0,0.00257776876434,-0.014849215668,-0.000824813450354,0.0,0.0,0.0,0.0,0.0,0.0,0.0,0.0,0.0,6.22638485873,0.00433369603235,7.30451604724,0.0,0.0,0.0,0.0,0.0,0.0,0.0,0.0,0.0
23524000000,120,23524000000,imu_link,0.000476580540505,-0.369764664796,0.000198648490487,0.929125301602,0.0,0.0,0.0,0.0,0.0,0.0,0.0,0.0,0.0,0.00257398283298,-0.0150709167971,-0.000795596614742,0.0,0.0,0.0,0.0,0.0,0.0,0.0,0.0,0.0,6.22734967676,0.00428332869613,7.30299874279,0.0,0.0,0.0,0.0,0.0,0.0,0.0,0.0,0.0
23528000000,121,23528000000,imu_link,0.000481600683546,-0.369792920027,0.000199061413272,0.929114053673,0.0,0.0,0.0,0.0,0.0,0.0,0.0,0.0,0.0,0.00240838692966,-0.0152062684444,-0.000728457112941,0.0,0.0,0.0,0.0,0.0,0.0,0.0,0.0,0.0,6.22947494354,0.00431035226128,7.30123454797,0.0,0.0,0.0,0.0,0.0,0.0,0.0,0.0,0.0
23532000000,122,23532000000,imu_link,0.000486000290061,-0.369821284832,0.000199433166976,0.92910276144,0.0,0.0,0.0,0.0,0.0,0.0,0.0,0.0,0.0,0.0021125000718,-0.0152653116784,-0.000632816696099,0.0,0.0,0.0,0.0,0.0,0.0,0.0,0.0,0.0,6.23143997484,0.00429143012933,7.29934407775,0.0,0.0,0.0,0.0,0.0,0.0,0.0,0.0,0.0
23536000000,123,23536000000,imu_link,0.000489717471647,-0.369849772906,0.000199756331641,0.929091419482,0.0,0.0,0.0,0.0,0.0,0.0,0.0,0.0,0.0,0.00178649378877,-0.0153317149232,-0.000529166256538,0.0,0.0,0.0,0.0,0.0,0.0,0.0,0.0,0.0,6.23239591913,0.00421879660162,7.29587002875,0.0,0.0,0.0,0.0,0.0,0.0,0.0,0.0,0.0
23540000000,124,23540000000,imu_link,0.000492790703812,-0.369878699978,0.000200025468337,0.92907990208,0.0,0.0,0.0,0.0,0.0,0.0,0.0,0.0,0.0,0.0014773578442,-0.0155680429338,-0.000435057428589,0.0,0.0,0.0,0.0,0.0,0.0,0.0,0.0,0.0,6.23438212736,0.0041005869024,7.29690886485,0.0,0.0,0.0,0.0,0.0,0.0,0.0,0.0,0.0
23544000000,125,23544000000,imu_link,0.000495180569812,-0.36990840512,0.000200208079409,0.92906807422,0.0,0.0,0.0,0.0,0.0,0.0,0.0,0.0,0.0,0.00114390364569,-0.0159868558007,-0.000348647980677,0.0,0.0,0.0,0.0,0.0,0.0,0.0,0.0,0.0,6.23710352097,0.00402569054395,7.29961992113,0.0,0.0,0.0,0.0,0.0,0.0,0.0,0.0,0.0
23548000000,126,23548000000,imu_link,0.000496857834989,-0.369938822761,0.000200284617791,0.929055961949,0.0,0.0,0.0,0.0,0.0,0.0,0.0,0.0,0.0,0.000793256811715,-0.0163703942632,-0.000265918960409,0.0,0.0,0.0,0.0,0.0,0.0,0.0,0.0,0.0,6.23957541898,0.00394889149309,7.29861609318,0.0,0.0,0.0,0.0,0.0,0.0,0.0,0.0,0.0
23552000000,127,23552000000,imu_link,0.000498003251051,-0.369969548256,0.000200285325923,0.929043726227,0.0,0.0,0.0,0.0,0.0,0.0,0.0,0.0,0.0,0.000532171578709,-0.0165362007262,-0.000202679572887,0.0,0.0,0.0,0.0,0.0,0.0,0.0,0.0,0.0,6.24107776019,0.00382591076053,7.29285543722,0.0,0.0,0.0,0.0,0.0,0.0,0.0,0.0,0.0
23556000000,128,23556000000,imu_link,0.000498840762296,-0.370000164799,0.000200258555808,0.92903153289,0.0,0.0,0.0,0.0,0.0,0.0,0.0,0.0,0.0,0.000384060359278,-0.0164777256705,-0.000158517490265,0.0,0.0,0.0,0.0,0.0,0.0,0.0,0.0,0.0,6.24290099823,0.00370306919921,7.28749868626,0.0,0.0,0.0,0.0,0.0,0.0,0.0,0.0,0.0
23560000000,129,23560000000,imu_link,0.000499275252881,-0.370030527753,0.000200196920149,0.929019439611,0.0,0.0,0.0,0.0,0.0,0.0,0.0,0.0,0.0,0.000190401214632,-0.0163413875942,-0.000100227498276,0.0,0.0,0.0,0.0,0.0,0.0,0.0,0.0,0.0,6.2440584567,0.00369704716439,7.28341924122,0.0,0.0,0.0,0.0,0.0,0.0,0.0,0.0,0.0
23564000000,130,23564000000,imu_link,0.000499046601949,-0.370060686657,0.000200090286199,0.929007426831,0.0,0.0,0.0,0.0,0.0,0.0,0.0,0.0,0.0,-0.000125959506791,-0.0162316553919,1.50266409328e-06,0.0,0.0,0.0,0.0,0.0,0.0,0.0,0.0,0.0,6.24577944583,0.00372710204812,7.2825877731,0.0,0.0,0.0,0.0,0.0,0.0,0.0,0.0,0.0
23568000000,131,23568000000,imu_link,0.000497769511623,-0.370090687431,0.000199926803411,0.928995476486,0.0,0.0,0.0,0.0,0.0,0.0,0.0,0.0,0.0,-0.000623482017589,-0.0161465602241,0.000169043565651,0.0,0.0,0.0,0.0,0.0,0.0,0.0,0.0,0.0,6.24772734512,0.00370048088376,7.28236678625,0.0,0.0,0.0,0.0,0.0,0.0,0.0,0.0,0.0
23572000000,132,23572000000,imu_link,0.000495221400791,-0.370120218236,0.000199721709293,0.928983712947,0.0,0.0,0.0,0.0,0.0,0.0,0.0,0.0,0.0,-0.00122156766473,-0.0158935768299,0.000384775981615,0.0,0.0,0.0,0.0,0.0,0.0,0.0,0.0,0.0,6.24990084653,0.00360451366685,7.27988713923,0.0,0.0,0.0,0.0,0.0,0.0,0.0,0.0,0.0
23576000000,133,23576000000,imu_link,0.000491633092662,-0.370148635433,0.000199520899399,0.92897239258,0.0,0.0,0.0,0.0,0.0,0.0,0.0,0.0,0.0,-0.00170393652784,-0.0152941960443,0.000578944997161,0.0,0.0,0.0,0.0,0.0,0.0,0.0,0.0,0.0,6.25262566336,0.00340141853563,7.27599459182,0.0,0.0,0.0,0.0,0.0,0.0,0.0,0.0,0.0
23580000000,134,23580000000,imu_link,0.000487302961698,-0.370175334953,0.000199339630482,0.928961756044,0.0,0.0,0.0,0.0,0.0,0.0,0.0,0.0,0.0,-0.00204488320227,-0.0143697207646,0.000724823414004,0.0,0.0,0.0,0.0,0.0,0.0,0.0,0.0,0.0,6.2547857971,0.00324132218723,7.27157275124,0.0,0.0,0.0,0.0,0.0,0.0,0.0,0.0,0.0
23584000000,135,23584000000,imu_link,0.000482398903321,-0.37020011282,0.000199174799103,0.9289518847,0.0,0.0,0.0,0.0,0.0,0.0,0.0,0.0,0.0,-0.00230841403517,-0.0133354610985,0.000838140741552,0.0,0.0,0.0,0.0,0.0,0.0,0.0,0.0,0.0,6.25656007768,0.00314164418858,7.26917857643,0.0,0.0,0.0,0.0,0.0,0.0,0.0,0.0,0.0
23588000000,136,23588000000,imu_link,0.000476927806433,-0.370223264008,0.000198969280646,0.928942661168,0.0,0.0,0.0,0.0,0.0,0.0,0.0,0.0,0.0,-0.00257931521722,-0.0124599505604,0.000923744565506,0.0,0.0,0.0,0.0,0.0,0.0,0.0,0.0,0.0,6.25760374897,0.00309435960004,7.26928593383,0.0,0.0,0.0,0.0,0.0,0.0,0.0,0.0,0.0
23592000000,137,23592000000,imu_link,0.000470801244729,-0.370245653076,0.000198641567598,0.928933741053,0.0,0.0,0.0,0.0,0.0,0.0,0.0,0.0,0.0,-0.00290637600727,-0.0120497662051,0.000988110919528,0.0,0.0,0.0,0.0,0.0,0.0,0.0,0.0,0.0,6.26143081704,0.00307271144965,7.27939955279,0.0,0.0,0.0,0.0,0.0,0.0,0.0,0.0,0.0
23596000000,138,23596000000,imu_link,0.000463938211695,-0.370268087387,0.000198100806319,0.928924802651,0.0,0.0,0.0,0.0,0.0,0.0,0.0,0.0,0.0,-0.00328788282119,-0.0120741421307,0.00102550719507,0.0,0.0,0.0,0.0,0.0,0.0,0.0,0.0,0.0,6.26439488485,0.0030422599095,7.28686926299,0.0,0.0,0.0,0.0,0.0,0.0,0.0,0.0,0.0
23600000000,139,23600000000,imu_link,0.000456439695046,-0.37029093093,0.000197292959899,0.928915700809,0.0,0.0,0.0,0.0,0.0,0.0,0.0,0.0,0.0,-0.0036324902411,-0.0122944723706,0.00101921695869,0.0,0.0,0.0,0.0,0.0,0.0,0.0,0.0,0.0,6.26648967919,0.00296321957746,7.28879680989,0.0,0.0,0.0,0.0,0.0,0.0,0.0,0.0,0.0
23604000000,140,23604000000,imu_link,0.000448477734826,-0.37031401959,0.000196201557052,0.928906500821,0.0,0.0,0.0,0.0,0.0,0.0,0.0,0.0,0.0,-0.00390024121351,-0.0124265089314,0.000973387047567,0.0,0.0,0.0,0.0,0.0,0.0,0.0,0.0,0.0,6.26724326623,0.0029655357374,7.28360755925,0.0,0.0,0.0,0.0,0.0,0.0,0.0,0.0,0.0
23608000000,141,23608000000,imu_link,0.000440405315076,-0.370336825362,0.000194829799536,0.928897412993,0.0,0.0,0.0,0.0,0.0,0.0,0.0,0.0,0.0,-0.00400345153212,-0.0122744058692,0.000863553329682,0.0,0.0,0.0,0.0,0.0,0.0,0.0,0.0,0.0,6.26908189161,0.00295523878349,7.27817147633,0.0,0.0,0.0,0.0,0.0,0.0,0.0,0.0,0.0
23612000000,142,23612000000,imu_link,0.000432640838921,-0.370358936277,0.000193222152224,0.928888601398,0.0,0.0,0.0,0.0,0.0,0.0,0.0,0.0,0.0,-0.00390410000496,-0.0119006123937,0.000696793273335,0.0,0.0,0.0,0.0,0.0,0.0,0.0,0.0,0.0,6.2704396227,0.00295173696031,7.2728961902,0.0,0.0,0.0,0.0,0.0,0.0,0.0,0.0,0.0
23616000000,143,23616000000,imu_link,0.000425488935301,-0.370380265042,0.000191465520526,0.928880100749,0.0,0.0,0.0,0.0,0.0,0.0,0.0,0.0,0.0,-0.00364717473121,-0.0114798581245,0.000513963232328,0.0,0.0,0.0,0.0,0.0,0.0,0.0,0.0,0.0,6.27152815494,0.00301713701426,7.26970734713,0.0,0.0,0.0,0.0,0.0,0.0,0.0,0.0,0.0
23620000000,144,23620000000,imu_link,0.000419295095322,-0.370400863764,0.000189666958758,0.928871890166,0.0,0.0,0.0,0.0,0.0,0.0,0.0,0.0,0.0,-0.00320996846107,-0.0110871800426,0.000316882214393,0.0,0.0,0.0,0.0,0.0,0.0,0.0,0.0,0.0,6.27293212052,0.00312365008295,7.26843511373,0.0,0.0,0.0,0.0,0.0,0.0,0.0,0.0,0.0
23624000000,145,23624000000,imu_link,0.000414170838826,-0.370420748644,0.000187851346064,0.928863963209,0.0,0.0,0.0,0.0,0.0,0.0,0.0,0.0,0.0,-0.00271636504981,-0.0107032234969,0.000110699275962,0.0,0.0,0.0,0.0,0.0,0.0,0.0,0.0,0.0,6.27319007003,0.00331950906256,7.26473649404,0.0,0.0,0.0,0.0,0.0,0.0,0.0,0.0,0.0
23628000000,146,23628000000,imu_link,0.000410114287411,-0.370440027641,0.000186016700656,0.928856276894,0.0,0.0,0.0,0.0,0.0,0.0,0.0,0.0,0.0,-0.00222400664449,-0.0103773671227,-9.60382549015e-05,0.0,0.0,0.0,0.0,0.0,0.0,0.0,0.0,0.0,6.27395067066,0.0035843447683,7.26242113565,0.0,0.0,0.0,0.0,0.0,0.0,0.0,0.0,0.0
23632000000,147,23632000000,imu_link,0.000406824428378,-0.370459024037,0.000184095248119,0.928848702487,0.0,0.0,0.0,0.0,0.0,0.0,0.0,0.0,0.0,-0.00188400820949,-0.0102254807729,-0.00027842905932,0.0,0.0,0.0,0.0,0.0,0.0,0.0,0.0,0.0,6.2763007784,0.00385482921633,7.26499192088,0.0,0.0,0.0,0.0,0.0,0.0,0.0,0.0,0.0
23636000000,148,23636000000,imu_link,0.000404075409431,-0.370478175336,0.000182067283825,0.928841065616,0.0,0.0,0.0,0.0,0.0,0.0,0.0,0.0,0.0,-0.00165255957644,-0.0103090625679,-0.000428037999687,0.0,0.0,0.0,0.0,0.0,0.0,0.0,0.0,0.0,6.27784057856,0.00406275250203,7.26664617025,0.0,0.0,0.0,0.0,0.0,0.0,0.0,0.0,0.0
23640000000,149,23640000000,imu_link,0.000401518460604,-0.370497845181,0.000179917657905,0.928833221374,0.0,0.0,0.0,0.0,0.0,0.0,0.0,0.0,0.0,-0.00158590006637,-0.0105883418851,-0.000519995406998,0.0,0.0,0.0,0.0,0.0,0.0,0.0,0.0,0.0,6.27918652025,0.00424258418748,7.26733857037,0.0,0.0,0.0,0.0,0.0,0.0,0.0,0.0,0.0
23644000000,150,23644000000,imu_link,0.000399230320518,-0.370518342041,0.000177703321336,0.92882504663,0.0,0.0,0.0,0.0,0.0,0.0,0.0,0.0,0.0,-0.00147305644548,-0.0110336835895,-0.000599648874703,0.0,0.0,0.0,0.0,0.0,0.0,0.0,0.0,0.0,6.28013148501,0.00428863091516,7.2664850592,0.0,0.0,0.0,0.0,0.0,0.0,0.0,0.0,0.0
23648000000,151,23648000000,imu_link,0.000397276137862,-0.370539904001,0.000175474112896,0.928816446303,0.0,0.0,0.0,0.0,0.0,0.0,0.0,0.0,0.0,-0.0013207272665,-0.0116072050968,-0.000668173810378,0.0,0.0,0.0,0.0,0.0,0.0,0.0,0.0,0.0,6.28120106739,0.00436468962564,7.26521022615,0.0,0.0,0.0,0.0,0.0,0.0,0.0,0.0,0.0
23652000000,152,23652000000,imu_link,0.000395585951169,-0.370562798724,0.000173222302066,0.928807313552,0.0,0.0,0.0,0.0,0.0,0.0,0.0,0.0,0.0,-0.00120232408741,-0.0123248208959,-0.000727269614779,0.0,0.0,0.0,0.0,0.0,0.0,0.0,0.0,0.0,6.28283573994,0.00450126481903,7.26543505589,0.0,0.0,0.0,0.0,0.0,0.0,0.0,0.0,0.0
23656000000,153,23656000000,imu_link,0.000394000560345,-0.370587147218,0.000170907748277,0.928797600057,0.0,0.0,0.0,0.0,0.0,0.0,0.0,0.0,0.0,-0.00116529265162,-0.0131075798342,-0.000775486555725,0.0,0.0,0.0,0.0,0.0,0.0,0.0,0.0,0.0,6.28368352463,0.00465793079578,7.2630337016,0.0,0.0,0.0,0.0,0.0,0.0,0.0,0.0,0.0
23660000000,154,23660000000,imu_link,0.000392523830226,-0.370612937132,0.000168489979807,0.928787310619,0.0,0.0,0.0,0.0,0.0,0.0,0.0,0.0,0.0,-0.00113396548109,-0.0138837221039,-0.000843220282706,0.0,0.0,0.0,0.0,0.0,0.0,0.0,0.0,0.0,6.28483606267,0.00473144967811,7.26029275462,0.0,0.0,0.0,0.0,0.0,0.0,0.0,0.0,0.0
23664000000,155,23664000000,imu_link,0.000391424314604,-0.3706399215,0.000165952032761,0.928776543544,0.0,0.0,0.0,0.0,0.0,0.0,0.0,0.0,0.0,-0.00098106621483,-0.0145269836445,-0.000968656073114,0.0,0.0,0.0,0.0,0.0,0.0,0.0,0.0,0.0,6.28604582756,0.00475629172538,7.25585115909,0.0,0.0,0.0,0.0,0.0,0.0,0.0,0.0,0.0
23668000000,156,23668000000,imu_link,0.000391074192959,-0.370667668618,0.000163302078922,0.928765470846,0.0,0.0,0.0,0.0,0.0,0.0,0.0,0.0,0.0,-0.000653817011343,-0.0149379174264,-0.00115937373794,0.0,0.0,0.0,0.0,0.0,0.0,0.0,0.0,0.0,6.28924553393,0.00480332672111,7.25431425755,0.0,0.0,0.0,0.0,0.0,0.0,0.0,0.0,0.0
23672000000,157,23672000000,imu_link,0.000391392011176,-0.370695722249,0.000160532588585,0.928754274578,0.0,0.0,0.0,0.0,0.0,0.0,0.0,0.0,0.0,-0.000365792292809,-0.015103236768,-0.00133860625552,0.0,0.0,0.0,0.0,0.0,0.0,0.0,0.0,0.0,6.29048652862,0.00499392144212,7.24833504257,0.0,0.0,0.0,0.0,0.0,0.0,0.0,0.0,0.0
23676000000,158,23676000000,imu_link,0.000391911048998,-0.370723687026,0.00015763550977,0.928743112725,0.0,0.0,0.0,0.0,0.0,0.0,0.0,0.0,0.0,-0.000295998362925,-0.0150556373869,-0.00143517120153,0.0,0.0,0.0,0.0,0.0,0.0,0.0,0.0,0.0,6.29208927413,0.00520521888496,7.24355535944,0.0,0.0,0.0,0.0,0.0,0.0,0.0,0.0,0.0
23680000000,159,23680000000,imu_link,0.000392019063625,-0.3707513431,0.000154581170306,0.928732073321,0.0,0.0,0.0,0.0,0.0,0.0,0.0,0.0,0.0,-0.000516015630998,-0.0148895851206,-0.00143208069989,0.0,0.0,0.0,0.0,0.0,0.0,0.0,0.0,0.0,6.29364290629,0.00537432699356,7.24032643365,0.0,0.0,0.0,0.0,0.0,0.0,0.0,0.0,0.0
23684000000,160,23684000000,imu_link,0.000391228176732,-0.370778731759,0.00015133954325,0.928721140123,0.0,0.0,0.0,0.0,0.0,0.0,0.0,0.0,0.0,-0.000968153679355,-0.0147456862599,-0.00135247684868,0.0,0.0,0.0,0.0,0.0,0.0,0.0,0.0,0.0,6.29492732977,0.00543671767426,7.23873564853,0.0,0.0,0.0,0.0,0.0,0.0,0.0,0.0,0.0
23688000000,161,23688000000,imu_link,0.000389552452691,-0.370805784269,0.000147941062253,0.928710340588,0.0,0.0,0.0,0.0,0.0,0.0,0.0,0.0,0.0,-0.00140811692426,-0.0145647758548,-0.00126135010586,0.0,0.0,0.0,0.0,0.0,0.0,0.0,0.0,0.0,6.29745494935,0.00535221740169,7.23872294001,0.0,0.0,0.0,0.0,0.0,0.0,0.0,0.0,0.0
23692000000,162,23692000000,imu_link,0.000387141607121,-0.370832225389,0.000144429547429,0.928699784578,0.0,0.0,0.0,0.0,0.0,0.0,0.0,0.0,0.0,-0.00177043341408,-0.014235691271,-0.00117768138825,0.0,0.0,0.0,0.0,0.0,0.0,0.0,0.0,0.0,6.29856396277,0.00525119467944,7.23389194306,0.0,0.0,0.0,0.0,0.0,0.0,0.0,0.0,0.0
23696000000,163,23696000000,imu_link,0.000384189984534,-0.37085767566,0.000140866779253,0.928689623587,0.0,0.0,0.0,0.0,0.0,0.0,0.0,0.0,0.0,-0.00203105127127,-0.0137023187087,-0.00110143242995,0.0,0.0,0.0,0.0,0.0,0.0,0.0,0.0,0.0,6.30009424633,0.00523977502337,7.2293130233,0.0,0.0,0.0,0.0,0.0,0.0,0.0,0.0,0.0
23700000000,164,23700000000,imu_link,0.000380625285377,-0.370881923683,0.000137276816775,0.928679942157,0.0,0.0,0.0,0.0,0.0,0.0,0.0,0.0,0.0,-0.00232078024632,-0.0130550983005,-0.00100064260997,0.0,0.0,0.0,0.0,0.0,0.0,0.0,0.0,0.0,6.30115426082,0.00529223497166,7.22572002125,0.0,0.0,0.0,0.0,0.0,0.0,0.0,0.0,0.0
23704000000,165,23704000000,imu_link,0.000376411612268,-0.370905034835,0.000133688422494,0.928670714288,0.0,0.0,0.0,0.0,0.0,0.0,0.0,0.0,0.0,-0.00262184227009,-0.0124430504772,-0.00087981557208,0.0,0.0,0.0,0.0,0.0,0.0,0.0,0.0,0.0,6.3021645281,0.00525886766329,7.22452222611,0.0,0.0,0.0,0.0,0.0,0.0,0.0,0.0,0.0
23708000000,166,23708000000,imu_link,0.000371853185515,-0.370927311778,0.000130137527558,0.928661819053,0.0,0.0,0.0,0.0,0.0,0.0,0.0,0.0,0.0,-0.00277497607011,-0.0119939797251,-0.000798647106526,0.0,0.0,0.0,0.0,0.0,0.0,0.0,0.0,0.0,6.30403021463,0.00516871018616,7.22708890419,0.0,0.0,0.0,0.0,0.0,0.0,0.0,0.0,0.0
23712000000,167,23712000000,imu_link,0.000367631262374,-0.370949098681,0.000126685428652,0.928653118762,0.0,0.0,0.0,0.0,0.0,0.0,0.0,0.0,0.0,-0.00260040832763,-0.011730287346,-0.000815286042452,0.0,0.0,0.0,0.0,0.0,0.0,0.0,0.0,0.0,6.3068237659,0.00506169004859,7.2319535459,0.0,0.0,0.0,0.0,0.0,0.0,0.0,0.0,0.0
23716000000,168,23716000000,imu_link,0.000364346060502,-0.370970631531,0.000123380080068,0.928644518947,0.0,0.0,0.0,0.0,0.0,0.0,0.0,0.0,0.0,-0.00213824769056,-0.0115937200973,-0.000920936989354,0.0,0.0,0.0,0.0,0.0,0.0,0.0,0.0,0.0,6.3076277445,0.00508249682994,7.23136497393,0.0,0.0,0.0,0.0,0.0,0.0,0.0,0.0,0.0
23720000000,169,23720000000,imu_link,0.000362211994802,-0.370992159472,0.00012023377669,0.928635920023,0.0,0.0,0.0,0.0,0.0,0.0,0.0,0.0,0.0,-0.00157424885088,-0.0115913183056,-0.00106060856491,0.0,0.0,0.0,0.0,0.0,0.0,0.0,0.0,0.0,6.30868753458,0.00526839958094,7.23087941744,0.0,0.0,0.0,0.0,0.0,0.0,0.0,0.0,0.0
23724000000,170,23724000000,imu_link,0.000361103771093,-0.371013876817,0.000117196211072,0.928627244419,0.0,0.0,0.0,0.0,0.0,0.0,0.0,0.0,0.0,-0.00107775906177,-0.011693527287,-0.00120037042643,0.0,0.0,0.0,0.0,0.0,0.0,0.0,0.0,0.0,6.30977818826,0.00550645099078,7.22988628186,0.0,0.0,0.0,0.0,0.0,0.0,0.0,0.0,0.0
23728000000,171,23728000000,imu_link,0.000360825701019,-0.371035858589,0.000114217534131,0.928618462233,0.0,0.0,0.0,0.0,0.0,0.0,0.0,0.0,0.0,-0.00068137941296,-0.0118361142516,-0.00132697288257,0.0,0.0,0.0,0.0,0.0,0.0,0.0,0.0,0.0,6.31100393828,0.00573287571807,7.22829531787,0.0,0.0,0.0,0.0,0.0,0.0,0.0,0.0,0.0
23732000000,172,23732000000,imu_link,0.000361369641942,-0.371058038623,0.000111289471733,0.928609599886,0.0,0.0,0.0,0.0,0.0,0.0,0.0,0.0,0.0,-0.000290319074371,-0.011943077888,-0.001455929514,0.0,0.0,0.0,0.0,0.0,0.0,0.0,0.0,0.0,6.31153979534,0.0058894633456,7.2239970029,0.0,0.0,0.0,0.0,0.0,0.0,0.0,0.0,0.0
23736000000,173,23736000000,imu_link,0.000362787656734,-0.371080269396,0.000108424961354,0.92860071629,0.0,0.0,0.0,0.0,0.0,0.0,0.0,0.0,0.0,0.00012730937821,-0.0119706160261,-0.00158857772356,0.0,0.0,0.0,0.0,0.0,0.0,0.0,0.0,0.0,6.31243138854,0.00602185785936,7.21964687292,0.0,0.0,0.0,0.0,0.0,0.0,0.0,0.0,0.0
23740000000,174,23740000000,imu_link,0.000365292620398,-0.371102415806,0.000105643920328,0.928591865344,0.0,0.0,0.0,0.0,0.0,0.0,0.0,0.0,0.0,0.00064746569526,-0.0119254317762,-0.00175151258705,0.0,0.0,0.0,0.0,0.0,0.0,0.0,0.0,0.0,6.31376962941,0.00618210345305,7.21640385364,0.0,0.0,0.0,0.0,0.0,0.0,0.0,0.0,0.0
23744000000,175,23744000000,imu_link,0.000368978395461,-0.37112442823,0.000102936545509,0.928583066844,0.0,0.0,0.0,0.0,0.0,0.0,0.0,0.0,0.0,0.00120937797692,-0.011853540575,-0.00193643788998,0.0,0.0,0.0,0.0,0.0,0.0,0.0,0.0,0.0,6.31514417361,0.00637579700726,7.21424453967,0.0,0.0,0.0,0.0,0.0,0.0,0.0,0.0,0.0
23748000000,176,23748000000,imu_link,0.000373782130615,-0.371146228245,0.000100245025752,0.928574352164,0.0,0.0,0.0,0.0,0.0,0.0,0.0,0.0,0.0,0.00173137495113,-0.0117394214774,-0.00213657117025,0.0,0.0,0.0,0.0,0.0,0.0,0.0,0.0,0.0,6.31768538984,0.00660302274805,7.21443813924,0.0,0.0,0.0,0.0,0.0,0.0,0.0,0.0,0.0
23752000000,177,23752000000,imu_link,0.000379670225661,-0.37116773011,9.75737737073e-05,0.92856575559,0.0,0.0,0.0,0.0,0.0,0.0,0.0,0.0,0.0,0.00223858335681,-0.0115791277986,-0.00232845081473,0.0,0.0,0.0,0.0,0.0,0.0,0.0,0.0,0.0,6.31934750209,0.00678916186135,7.21286461719,0.0,0.0,0.0,0.0,0.0,0.0,0.0,0.0,0.0
23756000000,178,23756000000,imu_link,0.000386498683723,-0.371188720966,9.49646991522e-05,0.928557362271,0.0,0.0,0.0,0.0,0.0,0.0,0.0,0.0,0.0,0.00268670328885,-0.0113041878125,-0.00247420599776,0.0,0.0,0.0,0.0,0.0,0.0,0.0,0.0,0.0,6.32038567969,0.00697888428248,7.20907758433,0.0,0.0,0.0,0.0,0.0,0.0,0.0,0.0,0.0
23760000000,179,23760000000,imu_link,0.00039405970429,-0.371209161519,9.24711877361e-05,0.928549188019,0.0,0.0,0.0,0.0,0.0,0.0,0.0,0.0,0.0,0.00304824810453,-0.0110080492668,-0.00255662871291,0.0,0.0,0.0,0.0,0.0,0.0,0.0,0.0,0.0,6.32207587242,0.00714801909935,7.20843572327,0.0,0.0,0.0,0.0,0.0,0.0,0.0,0.0,0.0
23764000000,180,23764000000,imu_link,0.000402255929022,-0.371229169828,9.00954422571e-05,0.9285411857,0.0,0.0,0.0,0.0,0.0,0.0,0.0,0.0,0.0,0.00336500126658,-0.0107754632662,-0.00261994289759,0.0,0.0,0.0,0.0,0.0,0.0,0.0,0.0,0.0,6.3238453094,0.00727840857801,7.20896816233,0.0,0.0,0.0,0.0,0.0,0.0,0.0,0.0,0.0
23768000000,181,23768000000,imu_link,0.000411028050324,-0.37124910446,8.78419100391e-05,0.928533211995,0.0,0.0,0.0,0.0,0.0,0.0,0.0,0.0,0.0,0.00365505523666,-0.0107359480932,-0.00267011378458,0.0,0.0,0.0,0.0,0.0,0.0,0.0,0.0,0.0,6.32640076915,0.00735620560853,7.21280679778,0.0,0.0,0.0,0.0,0.0,0.0,0.0,0.0,0.0
23772000000,182,23772000000,imu_link,0.000420333108615,-0.371269520742,8.57181981542e-05,0.928525044864,0.0,0.0,0.0,0.0,0.0,0.0,0.0,0.0,0.0,0.00392659652185,-0.0109954629091,-0.00270866124795,0.0,0.0,0.0,0.0,0.0,0.0,0.0,0.0,0.0,6.32934101224,0.00743456964739,7.21896745761,0.0,0.0,0.0,0.0,0.0,0.0,0.0,0.0,0.0
23776000000,183,23776000000,imu_link,0.000429854572424,-0.371290761404,8.36903591712e-05,0.928516547357,0.0,0.0,0.0,0.0,0.0,0.0,0.0,0.0,0.0,0.00404489693908,-0.0114395104791,-0.00270413602247,0.0,0.0,0.0,0.0,0.0,0.0,0.0,0.0,0.0,6.33089934041,0.00755197161253,7.22061951595,0.0,0.0,0.0,0.0,0.0,0.0,0.0,0.0,0.0
23780000000,184,23780000000,imu_link,0.000439219857572,-0.371312953889,8.17032578284e-05,0.928507668619,0.0,0.0,0.0,0.0,0.0,0.0,0.0,0.0,0.0,0.00397999456605,-0.0119521601987,-0.00265600886377,0.0,0.0,0.0,0.0,0.0,0.0,0.0,0.0,0.0,6.33219889298,0.0076377546517,7.21961004964,0.0,0.0,0.0,0.0,0.0,0.0,0.0,0.0,0.0
23784000000,185,23784000000,imu_link,0.000448102731786,-0.371335931372,7.97141466254e-05,0.928498475455,0.0,0.0,0.0,0.0,0.0,0.0,0.0,0.0,0.0,0.00375569727935,-0.0123749549692,-0.00256719399633,0.0,0.0,0.0,0.0,0.0,0.0,0.0,0.0,0.0,6.33374524415,0.00767037642438,7.21647180978,0.0,0.0,0.0,0.0,0.0,0.0,0.0,0.0,0.0
23788000000,186,23788000000,imu_link,0.000456092853843,-0.371359469737,7.76760165919e-05,0.928489057654,0.0,0.0,0.0,0.0,0.0,0.0,0.0,0.0,0.0,0.0033321645192,-0.0126770268834,-0.0024240608545,0.0,0.0,0.0,0.0,0.0,0.0,0.0,0.0,0.0,6.33566698196,0.00770973489705,7.21389310612,0.0,0.0,0.0,0.0,0.0,0.0,0.0,0.0,0.0
23792000000,187,23792000000,imu_link,0.00046280926802,-0.371383355747,7.55483134974e-05,0.928479500675,0.0,0.0,0.0,0.0,0.0,0.0,0.0,0.0,0.0,0.00272423893885,-0.0128642330275,-0.00222905823147,0.0,0.0,0.0,0.0,0.0,0.0,0.0,0.0,0.0,6.33687883005,0.00764358408344,7.21025220143,0.0,0.0,0.0,0.0,0.0,0.0,0.0,0.0,0.0
23796000000,188,23796000000,imu_link,0.000468181123539,-0.371407340306,7.33194565662e-05,0.928469904196,0.0,0.0,0.0,0.0,0.0,0.0,0.0,0.0,0.0,0.00208126335588,-0.0129172905242,-0.00202632021378,0.0,0.0,0.0,0.0,0.0,0.0,0.0,0.0,0.0,6.33763096765,0.00741542451201,7.20548754644,0.0,0.0,0.0,0.0,0.0,0.0,0.0,0.0,0.0
23800000000,189,23800000000,imu_link,0.000472432888146,-0.371430945448,7.10265561183e-05,0.928460459323,0.0,0.0,0.0,0.0,0.0,0.0,0.0,0.0,0.0,0.00154936330808,-0.0127129724398,-0.00184814083473,0.0,0.0,0.0,0.0,0.0,0.0,0.0,0.0,0.0,6.33929629014,0.00716457277967,7.20089163849,0.0,0.0,0.0,0.0,0.0,0.0,0.0,0.0,0.0
23804000000,190,23804000000,imu_link,0.000475935141808,-0.371453870517,6.87253584478e-05,0.928451286197,0.0,0.0,0.0,0.0,0.0,0.0,0.0,0.0,0.0,0.00119983670798,-0.0123467693162,-0.00171296717209,0.0,0.0,0.0,0.0,0.0,0.0,0.0,0.0,0.0,6.34134868248,0.00693294297333,7.19906841146,0.0,0.0,0.0,0.0,0.0,0.0,0.0,0.0,0.0
23808000000,191,23808000000,imu_link,0.000478918843638,-0.371476250172,6.64879615347e-05,0.928442330883,0.0,0.0,0.0,0.0,0.0,0.0,0.0,0.0,0.0,0.000970928078939,-0.0120530874782,-0.00158717745735,0.0,0.0,0.0,0.0,0.0,0.0,0.0,0.0,0.0,6.34312066374,0.00679149827115,7.19983304711,0.0,0.0,0.0,0.0,0.0,0.0,0.0,0.0,0.0
23812000000,192,23812000000,imu_link,0.000481540477326,-0.371498295515,6.43574402912e-05,0.928433508878,0.0,0.0,0.0,0.0,0.0,0.0,0.0,0.0,0.0,0.000822678462295,-0.0118730948544,-0.00147039813727,0.0,0.0,0.0,0.0,0.0,0.0,0.0,0.0,0.0,6.34436134886,0.00671158570204,7.19997381234,0.0,0.0,0.0,0.0,0.0,0.0,0.0,0.0,0.0
23816000000,193,23816000000,imu_link,0.000483920976977,-0.37152016706,6.2363297894e-05,0.928424755917,0.0,0.0,0.0,0.0,0.0,0.0,0.0,0.0,0.0,0.000736061225602,-0.0117795496397,-0.00136234241701,0.0,0.0,0.0,0.0,0.0,0.0,0.0,0.0,0.0,6.34566428449,0.00666006550877,7.19963376791,0.0,0.0,0.0,0.0,0.0,0.0,0.0,0.0,0.0
23820000000,194,23820000000,imu_link,0.000486325680369,-0.371541973387,6.05292616415e-05,0.928416028424,0.0,0.0,0.0,0.0,0.0,0.0,0.0,0.0,0.0,0.000777034103789,-0.0117445052046,-0.00129253182633,0.0,0.0,0.0,0.0,0.0,0.0,0.0,0.0,0.0,6.34730683747,0.00660105768812,7.19973747421,0.0,0.0,0.0,0.0,0.0,0.0,0.0,0.0,0.0
23824000000,195,23824000000,imu_link,0.000489148201438,-0.371563779064,5.88777577278e-05,0.928407300356,0.0,0.0,0.0,0.0,0.0,0.0,0.0,0.0,0.0,0.00100489779041,-0.0117442788305,-0.00128541739451,0.0,0.0,0.0,0.0,0.0,0.0,0.0,0.0,0.0,6.34924682204,0.0065696848511,7.20021492291,0.0,0.0,0.0,0.0,0.0,0.0,0.0,0.0,0.0
23828000000,196,23828000000,imu_link,0.000492494548449,-0.371585628155,5.73526304915e-05,0.928398554021,0.0,0.0,0.0,0.0,0.0,0.0,0.0,0.0,0.0,0.00127154139203,-0.011767810133,-0.00132405909696,0.0,0.0,0.0,0.0,0.0,0.0,0.0,0.0,0.0,6.35072913096,0.00662236528359,7.19949002609,0.0,0.0,0.0,0.0,0.0,0.0,0.0,0.0,0.0
23832000000,197,23832000000,imu_link,0.000496247248022,-0.371607480694,5.59087676658e-05,0.928389805472,0.0,0.0,0.0,0.0,0.0,0.0,0.0,0.0,0.0,0.00147526874757,-0.0117698136721,-0.00136183268984,0.0,0.0,0.0,0.0,0.0,0.0,0.0,0.0,0.0,6.3525334852,0.00678158479105,7.1985398849,0.0,0.0,0.0,0.0,0.0,0.0,0.0,0.0,0.0
23836000000,198,23836000000,imu_link,0.000500237732909,-0.371629068295,5.45120781624e-05,0.928381162233,0.0,0.0,0.0,0.0,0.0,0.0,0.0,0.0,0.0,0.00159439373438,-0.0116272586502,-0.00138418515616,0.0,0.0,0.0,0.0,0.0,0.0,0.0,0.0,0.0,6.3534881642,0.00689663897924,7.19420178521,0.0,0.0,0.0,0.0,0.0,0.0,0.0,0.0,0.0
23840000000,199,23840000000,imu_link,0.000504405173772,-0.371650103129,5.31297170387e-05,0.928372739581,0.0,0.0,0.0,0.0,0.0,0.0,0.0,0.0,0.0,0.00167915734633,-0.0113296822508,-0.00141055931941,0.0,0.0,0.0,0.0,0.0,0.0,0.0,0.0,0.0,6.35540145903,0.00693091983046,7.19190544721,0.0,0.0,0.0,0.0,0.0,0.0,0.0,0.0,0.0
23844000000,200,23844000000,imu_link,0.000508826611541,-0.371670498471,5.17520200608e-05,0.928364572236,0.0,0.0,0.0,0.0,0.0,0.0,0.0,0.0,0.0,0.00179787856177,-0.010985401805,-0.00145576133828,0.0,0.0,0.0,0.0,0.0,0.0,0.0,0.0,0.0,6.35623357115,0.00692843540716,7.18913838095,0.0,0.0,0.0,0.0,0.0,0.0,0.0,0.0,0.0
23848000000,201,23848000000,imu_link,0.000513764393937,-0.371690356023,5.04005112796e-05,0.928356619379,0.0,0.0,0.0,0.0,0.0,0.0,0.0,0.0,0.0,0.00204238262848,-0.0106959164244,-0.00153970264477,0.0,0.0,0.0,0.0,0.0,0.0,0.0,0.0,0.0,6.35727880773,0.00692555294792,7.18866619464,0.0,0.0,0.0,0.0,0.0,0.0,0.0,0.0,0.0
23852000000,202,23852000000,imu_link,0.000519340447796,-0.371710072865,4.90671815094e-05,0.928348721984,0.0,0.0,0.0,0.0,0.0,0.0,0.0,0.0,0.0,0.002342022178,-0.0106203065026,-0.00164992155927,0.0,0.0,0.0,0.0,0.0,0.0,0.0,0.0,0.0,6.36036992382,0.00699417149027,7.19445148866,0.0,0.0,0.0,0.0,0.0,0.0,0.0,0.0,0.0
23856000000,203,23856000000,imu_link,0.00052535877971,-0.371729651855,4.77248427571e-05,0.928340879016,0.0,0.0,0.0,0.0,0.0,0.0,0.0,0.0,0.0,0.00254563119535,-0.0105462166089,-0.0017363400331,0.0,0.0,0.0,0.0,0.0,0.0,0.0,0.0,0.0,6.36067891843,0.00713811807709,7.191103958,0.0,0.0,0.0,0.0,0.0,0.0,0.0,0.0,0.0
23860000000,204,23860000000,imu_link,0.000531599570938,-0.371748730062,4.63341553e-05,0.928333235941,0.0,0.0,0.0,0.0,0.0,0.0,0.0,0.0,0.0,0.00263986335202,-0.0102766328751,-0.00180026574979,0.0,0.0,0.0,0.0,0.0,0.0,0.0,0.0,0.0,6.36192712848,0.00724300045603,7.1863810981,0.0,0.0,0.0,0.0,0.0,0.0,0.0,0.0,0.0
23864000000,205,23864000000,imu_link,0.000537910652564,-0.371766948341,4.48672467821e-05,0.928325936706,0.0,0.0,0.0,0.0,0.0,0.0,0.0,0.0,0.0,0.00265825079585,-0.00981359347206,-0.00184894673939,0.0,0.0,0.0,0.0,0.0,0.0,0.0,0.0,0.0,6.36379700783,0.00731353869525,7.18308736706,0.0,0.0,0.0,0.0,0.0,0.0,0.0,0.0,0.0
23868000000,206,23868000000,imu_link,0.000544327417462,-0.371784187737,4.33555163677e-05,0.928319028985,0.0,0.0,0.0,0.0,0.0,0.0,0.0,0.0,0.0,0.00269889006779,-0.00928647104423,-0.00188966823646,0.0,0.0,0.0,0.0,0.0,0.0,0.0,0.0,0.0,6.36456121467,0.00732728280774,7.17974314494,0.0,0.0,0.0,0.0,0.0,0.0,0.0,0.0,0.0
23872000000,207,23872000000,imu_link,0.000550781792658,-0.371800490936,4.18537162603e-05,0.928312495783,0.0,0.0,0.0,0.0,0.0,0.0,0.0,0.0,0.0,0.002718111575,-0.00878230407344,-0.00189231336466,0.0,0.0,0.0,0.0,0.0,0.0,0.0,0.0,0.0,6.3661631897,0.00735788910211,7.17943970697,0.0,0.0,0.0,0.0,0.0,0.0,0.0,0.0,0.0
23876000000,208,23876000000,imu_link,0.000557159403618,-0.371815998707,4.04065780512e-05,0.92830628084,0.0,0.0,0.0,0.0,0.0,0.0,0.0,0.0,0.0,0.00269257163575,-0.0083539200408,-0.00185289692656,0.0,0.0,0.0,0.0,0.0,0.0,0.0,0.0,0.0,6.36603349454,0.00740487176094,7.17629031314,0.0,0.0,0.0,0.0,0.0,0.0,0.0,0.0,0.0
23880000000,209,23880000000,imu_link,0.000563298784891,-0.371830818755,3.90260714933e-05,0.928300341159,0.0,0.0,0.0,0.0,0.0,0.0,0.0,0.0,0.0,0.00259432114679,-0.00798351474031,-0.00177787797839,0.0,0.0,0.0,0.0,0.0,0.0,0.0,0.0,0.0,6.36708781158,0.0074812854977,7.17517440273,0.0,0.0,0.0,0.0,0.0,0.0,0.0,0.0,0.0
23884000000,210,23884000000,imu_link,0.000569282044022,-0.371844854685,3.77179974687e-05,0.928294715346,0.0,0.0,0.0,0.0,0.0,0.0,0.0,0.0,0.0,0.00253525025202,-0.00756118996081,-0.00171545986467,0.0,0.0,0.0,0.0,0.0,0.0,0.0,0.0,0.0,6.36749691382,0.00744666055352,7.17159586511,0.0,0.0,0.0,0.0,0.0,0.0,0.0,0.0,0.0
23888000000,211,23888000000,imu_link,0.000575428091184,-0.371858033042,3.64919877648e-05,0.928289432673,0.0,0.0,0.0,0.0,0.0,0.0,0.0,0.0,0.0,0.00262598398538,-0.00709933194355,-0.0017078864447,0.0,0.0,0.0,0.0,0.0,0.0,0.0,0.0,0.0,6.36793083233,0.00731989351644,7.16839844122,0.0,0.0,0.0,0.0,0.0,0.0,0.0,0.0,0.0
23892000000,212,23892000000,imu_link,0.000581751679241,-0.371870319625,3.53329320603e-05,0.928284506872,0.0,0.0,0.0,0.0,0.0,0.0,0.0,0.0,0.0,0.00272075093929,-0.00661905050409,-0.00171008319124,0.0,0.0,0.0,0.0,0.0,0.0,0.0,0.0,0.0,6.36920836885,0.0073070752516,7.16712180353,0.0,0.0,0.0,0.0,0.0,0.0,0.0,0.0,0.0
23896000000,213,23896000000,imu_link,0.000587995718232,-0.371881804926,3.41784993126e-05,0.928279901893,0.0,0.0,0.0,0.0,0.0,0.0,0.0,0.0,0.0,0.00268460926321,-0.00618748717334,-0.0016933852545,0.0,0.0,0.0,0.0,0.0,0.0,0.0,0.0,0.0,6.36994804353,0.00735772772259,7.16593457143,0.0,0.0,0.0,0.0,0.0,0.0,0.0,0.0,0.0
23900000000,214,23900000000,imu_link,0.000593768747075,-0.37189252688,3.29789787176e-05,0.928275602826,0.0,0.0,0.0,0.0,0.0,0.0,0.0,0.0,0.0,0.00245753406875,-0.00577631101252,-0.00162696192392,0.0,0.0,0.0,0.0,0.0,0.0,0.0,0.0,0.0,6.37121227227,0.0074113132312,7.16531507713,0.0,0.0,0.0,0.0,0.0,0.0,0.0,0.0,0.0
23904000000,215,23904000000,imu_link,0.000598868945753,-0.371902516269,3.16913747252e-05,0.928271597511,0.0,0.0,0.0,0.0,0.0,0.0,0.0,0.0,0.0,0.00212879424567,-0.00538169257086,-0.00154295683423,0.0,0.0,0.0,0.0,0.0,0.0,0.0,0.0,0.0,6.37171678334,0.00737364492766,7.16263759236,0.0,0.0,0.0,0.0,0.0,0.0,0.0,0.0,0.0
23908000000,216,23908000000,imu_link,0.000603060929679,-0.371912112712,3.02941560826e-05,0.928267750069,0.0,0.0,0.0,0.0,0.0,0.0,0.0,0.0,0.0,0.00168683523758,-0.00516997427177,-0.00142506940453,0.0,0.0,0.0,0.0,0.0,0.0,0.0,0.0,0.0,6.37448220935,0.00731963229127,7.16700955376,0.0,0.0,0.0,0.0,0.0,0.0,0.0,0.0,0.0
23912000000,217,23912000000,imu_link,0.00060600123781,-0.371921882548,2.87735210131e-05,0.928263833841,0.0,0.0,0.0,0.0,0.0,0.0,0.0,0.0,0.0,0.00108295818387,-0.00526326155185,-0.00124954112916,0.0,0.0,0.0,0.0,0.0,0.0,0.0,0.0,0.0,6.37747343554,0.00727332464691,7.17376432256,0.0,0.0,0.0,0.0,0.0,0.0,0.0,0.0,0.0
23916000000,218,23916000000,imu_link,0.000607342541877,-0.371932308235,2.71158636414e-05,0.928259655749,0.0,0.0,0.0,0.0,0.0,0.0,0.0,0.0,0.0,0.000315398475441,-0.00561637752432,-0.00101558276173,0.0,0.0,0.0,0.0,0.0,0.0,0.0,0.0,0.0,6.37887275891,0.00718118144352,7.17635074491,0.0,0.0,0.0,0.0,0.0,0.0,0.0,0.0,0.0
23920000000,219,23920000000,imu_link,0.000606980044757,-0.371943670279,2.52842794613e-05,0.928255103447,0.0,0.0,0.0,0.0,0.0,0.0,0.0,0.0,0.0,-0.000507630034661,-0.0061205884536,-0.000779168609029,0.0,0.0,0.0,0.0,0.0,0.0,0.0,0.0,0.0,6.37930124869,0.00700195673814,7.17521273987,0.0,0.0,0.0,0.0,0.0,0.0,0.0,0.0,0.0
23924000000,220,23924000000,imu_link,0.000605330155964,-0.371956119562,2.33152573719e-05,0.928250116161,0.0,0.0,0.0,0.0,0.0,0.0,0.0,0.0,0.0,-0.00113058529125,-0.00670612702419,-0.000603203271877,0.0,0.0,0.0,0.0,0.0,0.0,0.0,0.0,0.0,6.38115194289,0.00677239772182,7.17591985803,0.0,0.0,0.0,0.0,0.0,0.0,0.0,0.0,0.0
23928000000,221,23928000000,imu_link,0.000603169774806,-0.371969900409,2.13234931911e-05,0.928244595417,0.0,0.0,0.0,0.0,0.0,0.0,0.0,0.0,0.0,-0.00137160118452,-0.00742335102203,-0.000518408830152,0.0,0.0,0.0,0.0,0.0,0.0,0.0,0.0,0.0,6.38420455527,0.00653025961339,7.17996063305,0.0,0.0,0.0,0.0,0.0,0.0,0.0,0.0,0.0
23932000000,222,23932000000,imu_link,0.000601298333508,-0.371985156233,1.94650070493e-05,0.928238483152,0.0,0.0,0.0,0.0,0.0,0.0,0.0,0.0,0.0,-0.00121254737477,-0.0082178983346,-0.000509838848247,0.0,0.0,0.0,0.0,0.0,0.0,0.0,0.0,0.0,6.38682639282,0.00634830016443,7.18224068576,0.0,0.0,0.0,0.0,0.0,0.0,0.0,0.0,0.0
23936000000,223,23936000000,imu_link,0.000600067225116,-0.372001854765,1.78278356582e-05,0.928231791986,0.0,0.0,0.0,0.0,0.0,0.0,0.0,0.0,0.0,-0.000874033646171,-0.0089950971948,-0.000525780199344,0.0,0.0,0.0,0.0,0.0,0.0,0.0,0.0,0.0,6.38790686351,0.00636447053139,7.17995090992,0.0,0.0,0.0,0.0,0.0,0.0,0.0,0.0,0.0
23940000000,224,23940000000,imu_link,0.000599449723682,-0.372019917066,1.64004589175e-05,0.928224553487,0.0,0.0,0.0,0.0,0.0,0.0,0.0,0.0,0.0,-0.000550074841778,-0.00972979151273,-0.000542128574684,0.0,0.0,0.0,0.0,0.0,0.0,0.0,0.0,0.0,6.38816283995,0.00650157258741,7.17566164493,0.0,0.0,0.0,0.0,0.0,0.0,0.0,0.0,0.0
23944000000,225,23944000000,imu_link,0.000599253907323,-0.37203906446,1.51262669356e-05,0.928216879388,0.0,0.0,0.0,0.0,0.0,0.0,0.0,0.0,0.0,-0.000325750069128,-0.0103143795912,-0.000549142469601,0.0,0.0,0.0,0.0,0.0,0.0,0.0,0.0,0.0,6.38886462873,0.00667364938168,7.17058980927,0.0,0.0,0.0,0.0,0.0,0.0,0.0,0.0,0.0
23948000000,226,23948000000,imu_link,0.000599275418115,-0.372058988847,1.39033721976e-05,0.928208893242,0.0,0.0,0.0,0.0,0.0,0.0,0.0,0.0,0.0,-0.000215256792794,-0.0107330220503,-0.000565526912792,0.0,0.0,0.0,0.0,0.0,0.0,0.0,0.0,0.0,6.3913579994,0.00683331893934,7.16896126014,0.0,0.0,0.0,0.0,0.0,0.0,0.0,0.0,0.0
23952000000,227,23952000000,imu_link,0.000599421609842,-0.372079511873,1.26059145495e-05,0.928200666548,0.0,0.0,0.0,0.0,0.0,0.0,0.0,0.0,0.0,-0.000171194801936,-0.0110556248628,-0.000623145175166,0.0,0.0,0.0,0.0,0.0,0.0,0.0,0.0,0.0,6.39367024667,0.00693065829679,7.16818890178,0.0,0.0,0.0,0.0,0.0,0.0,0.0,0.0,0.0
23956000000,228,23956000000,imu_link,0.000599644501663,-0.37210075284,1.11753200359e-05,0.928192151463,0.0,0.0,0.0,0.0,0.0,0.0,0.0,0.0,0.0,-0.0001602851035,-0.0114425144272,-0.000698986313246,0.0,0.0,0.0,0.0,0.0,0.0,0.0,0.0,0.0,6.39374838673,0.00700480158941,7.16540314266,0.0,0.0,0.0,0.0,0.0,0.0,0.0,0.0,0.0
23960000000,229,23960000000,imu_link,0.000599835532291,-0.372122777179,9.61259251087e-06,0.928183321769,0.0,0.0,0.0,0.0,0.0,0.0,0.0,0.0,0.0,-0.000199565205178,-0.0118646467922,-0.000754144308091,0.0,0.0,0.0,0.0,0.0,0.0,0.0,0.0,0.0,6.39372135133,0.00707126805585,7.16220331872,0.0,0.0,0.0,0.0,0.0,0.0,0.0,0.0,0.0
23964000000,230,23964000000,imu_link,0.000599763598391,-0.372145545585,7.94194635805e-06,0.928174193308,0.0,0.0,0.0,0.0,0.0,0.0,0.0,0.0,0.0,-0.000341598310351,-0.0122655821945,-0.000755076303163,0.0,0.0,0.0,0.0,0.0,0.0,0.0,0.0,0.0,6.39400525764,0.00712493388614,7.15860938584,0.0,0.0,0.0,0.0,0.0,0.0,0.0,0.0,0.0
23968000000,231,23968000000,imu_link,0.000599243489069,-0.372168691068,6.21366810263e-06,0.928164913287,0.0,0.0,0.0,0.0,0.0,0.0,0.0,0.0,0.0,-0.000560270553456,-0.0124687957943,-0.000698315694172,0.0,0.0,0.0,0.0,0.0,0.0,0.0,0.0,0.0,6.39668886483,0.00717984426243,7.15698180461,0.0,0.0,0.0,0.0,0.0,0.0,0.0,0.0,0.0
23972000000,232,23972000000,imu_link,0.000598091833288,-0.372192000909,4.45949778889e-06,0.928155567093,0.0,0.0,0.0,0.0,0.0,0.0,0.0,0.0,0.0,-0.000858158975841,-0.0125573903707,-0.000592761384429,0.0,0.0,0.0,0.0,0.0,0.0,0.0,0.0,0.0,6.39783890462,0.00723716373363,7.15380744868,0.0,0.0,0.0,0.0,0.0,0.0,0.0,0.0,0.0
23976000000,233,23976000000,imu_link,0.00059645595368,-0.372215458111,2.67372135619e-06,0.92814616143,0.0,0.0,0.0,0.0,0.0,0.0,0.0,0.0,0.0,-0.00108874081332,-0.0126368531461,-0.000517272763846,0.0,0.0,0.0,0.0,0.0,0.0,0.0,0.0,0.0,6.39830455328,0.00718887121615,7.15100699729,0.0,0.0,0.0,0.0,0.0,0.0,0.0,0.0,0.0
23980000000,234,23980000000,imu_link,0.000594687333159,-0.372239235324,8.31487264391e-07,0.928136626813,0.0,0.0,0.0,0.0,0.0,0.0,0.0,0.0,0.0,-0.00116081147489,-0.0128093775824,-0.000518673525078,0.0,0.0,0.0,0.0,0.0,0.0,0.0,0.0,0.0,6.39956407021,0.00709430265844,7.15181062625,0.0,0.0,0.0,0.0,0.0,0.0,0.0,0.0,0.0
23984000000,235,23984000000,imu_link,0.000593149351284,-0.372263724673,-1.07855083142e-06,0.928126805703,0.0,0.0,0.0,0.0,0.0,0.0,0.0,0.0,0.0,-0.00106631415164,-0.0131931990942,-0.000592853723679,0.0,0.0,0.0,0.0,0.0,0.0,0.0,0.0,0.0,6.40126365651,0.00706694852261,7.15508292059,0.0,0.0,0.0,0.0,0.0,0.0,0.0,0.0,0.0
23988000000,236,23988000000,imu_link,0.00059215110632,-0.372289064071,-3.03235481584e-06,0.928116642519,0.0,0.0,0.0,0.0,0.0,0.0,0.0,0.0,0.0,-0.000823886321654,-0.0136513597247,-0.000713374188461,0.0,0.0,0.0,0.0,0.0,0.0,0.0,0.0,0.0,6.40267074737,0.00710064244355,7.15570595929,0.0,0.0,0.0,0.0,0.0,0.0,0.0,0.0,0.0
23992000000,237,23992000000,imu_link,0.000591982886247,-0.372314957619,-4.96156117373e-06,0.928106255697,0.0,0.0,0.0,0.0,0.0,0.0,0.0,0.0,0.0,-0.000434060596159,-0.0139501381204,-0.000856300319043,0.0,0.0,0.0,0.0,0.0,0.0,0.0,0.0,0.0,6.40465194308,0.00719751085362,7.15323396093,0.0,0.0,0.0,0.0,0.0,0.0,0.0,0.0,0.0
23996000000,238,23996000000,imu_link,0.000592871082396,-0.372341089857,-6.79101522531e-06,0.9280957716,0.0,0.0,0.0,0.0,0.0,0.0,0.0,0.0,0.0,7.4771678482e-05,-0.0140789789302,-0.00100659932107,0.0,0.0,0.0,0.0,0.0,0.0,0.0,0.0,0.0,6.40635122393,0.00732003888764,7.15023998054,0.0,0.0,0.0,0.0,0.0,0.0,0.0,0.0,0.0
24000000000,239,24000000000,imu_link,0.000594820522259,-0.372367276276,-8.49702271137e-06,0.928085264227,0.0,0.0,0.0,0.0,0.0,0.0,0.0,0.0,0.0,0.000590228779225,-0.0141084151708,-0.00114687054166,0.0,0.0,0.0,0.0,0.0,0.0,0.0,0.0,0.0,6.40634214598,0.00750704727531,7.1450137171,0.0,0.0,0.0,0.0,0.0,0.0,0.0,0.0,0.0
24004000000,240,24004000000,imu_link,0.000597551548226,-0.372393595935,-1.01536044389e-05,0.928074702023,0.0,0.0,0.0,0.0,0.0,0.0,0.0,0.0,0.0,0.000962137192521,-0.0141804342022,-0.00126941403312,0.0,0.0,0.0,0.0,0.0,0.0,0.0,0.0,0.0,6.40721899067,0.00774384697257,7.14387420241,0.0,0.0,0.0,0.0,0.0,0.0,0.0,0.0,0.0
24008000000,241,24008000000,imu_link,0.000600735210876,-0.372420095814,-1.18189203705e-05,0.928064066329,0.0,0.0,0.0,0.0,0.0,0.0,0.0,0.0,0.0,0.00117057411134,-0.0142777472875,-0.00135769305869,0.0,0.0,0.0,0.0,0.0,0.0,0.0,0.0,0.0,6.40879514932,0.00794584273579,7.14399871343,0.0,0.0,0.0,0.0,0.0,0.0,0.0,0.0,0.0
24012000000,242,24012000000,imu_link,0.000604137282905,-0.372446697761,-1.35071017993e-05,0.928053388638,0.0,0.0,0.0,0.0,0.0,0.0,0.0,0.0,0.0,0.00126767849214,-0.01433293578,-0.00140894299322,0.0,0.0,0.0,0.0,0.0,0.0,0.0,0.0,0.0,6.40940365861,0.00808036761795,7.14096504811,0.0,0.0,0.0,0.0,0.0,0.0,0.0,0.0,0.0
24016000000,243,24016000000,imu_link,0.000607626014107,-0.372473227174,-1.52087335034e-05,0.928042739101,0.0,0.0,0.0,0.0,0.0,0.0,0.0,0.0,0.0,0.00130537691179,-0.0142940387478,-0.00143134396134,0.0,0.0,0.0,0.0,0.0,0.0,0.0,0.0,0.0,6.41013639114,0.0082204586078,7.13746468435,0.0,0.0,0.0,0.0,0.0,0.0,0.0,0.0,0.0
24020000000,244,24020000000,imu_link,0.000611158003182,-0.372499383189,-1.69010279355e-05,0.928032238515,0.0,0.0,0.0,0.0,0.0,0.0,0.0,0.0,0.0,0.00132714033884,-0.0140930308126,-0.00143517977797,0.0,0.0,0.0,0.0,0.0,0.0,0.0,0.0,0.0,6.41131692801,0.00829693497465,7.134057574,0.0,0.0,0.0,0.0,0.0,0.0,0.0,0.0,0.0
24024000000,245,24024000000,imu_link,0.000614780351635,-0.372525045864,-1.85801206949e-05,0.928021935034,0.0,0.0,0.0,0.0,0.0,0.0,0.0,0.0,0.0,0.00137146295411,-0.0138273977959,-0.00144603248387,0.0,0.0,0.0,0.0,0.0,0.0,0.0,0.0,0.0,6.41181373339,0.00828865158843,7.1311792696,0.0,0.0,0.0,0.0,0.0,0.0,0.0,0.0,0.0
24028000000,246,24028000000,imu_link,0.000618488195979,-0.372550180919,-2.02618864966e-05,0.928011842467,0.0,0.0,0.0,0.0,0.0,0.0,0.0,0.0,0.0,0.00141056636279,-0.0135432906395,-0.00146335771108,0.0,0.0,0.0,0.0,0.0,0.0,0.0,0.0,0.0,6.41298215895,0.00829742551819,7.13049656722,0.0,0.0,0.0,0.0,0.0,0.0,0.0,0.0,0.0
24032000000,247,24032000000,imu_link,0.000621846813839,-0.372574638684,-2.19929618578e-05,0.928002021244,0.0,0.0,0.0,0.0,0.0,0.0,0.0,0.0,0.0,0.00123924729043,-0.0131784982912,-0.00142139214255,0.0,0.0,0.0,0.0,0.0,0.0,0.0,0.0,0.0,6.41473139293,0.00838736333551,7.13010476299,0.0,0.0,0.0,0.0,0.0,0.0,0.0,0.0,0.0
24036000000,248,24036000000,imu_link,0.000624238881898,-0.372598287133,-2.38242289026e-05,0.927992524853,0.0,0.0,0.0,0.0,0.0,0.0,0.0,0.0,0.0,0.000771992868432,-0.0127425044266,-0.00128807327703,0.0,0.0,0.0,0.0,0.0,0.0,0.0,0.0,0.0,6.4162344743,0.00846733406761,7.12901931892,0.0,0.0,0.0,0.0,0.0,0.0,0.0,0.0,0.0
24040000000,249,24040000000,imu_link,0.000625233321783,-0.372621172704,-2.57784059802e-05,0.927983335018,0.0,0.0,0.0,0.0,0.0,0.0,0.0,0.0,0.0,0.000100495815547,-0.0123314760081,-0.00108496059801,0.0,0.0,0.0,0.0,0.0,0.0,0.0,0.0,0.0,6.41667247348,0.00843332271592,7.12736558309,0.0,0.0,0.0,0.0,0.0,0.0,0.0,0.0,0.0
24044000000,250,24044000000,imu_link,0.000624713149587,-0.372643378646,-2.78618105438e-05,0.927974418456,0.0,0.0,0.0,0.0,0.0,0.0,0.0,0.0,0.0,-0.000626442207658,-0.0119652796836,-0.000862941751176,0.0,0.0,0.0,0.0,0.0,0.0,0.0,0.0,0.0,6.41644171451,0.00827582548453,7.12408406403,0.0,0.0,0.0,0.0,0.0,0.0,0.0,0.0,0.0
24048000000,251,24048000000,imu_link,0.000622861626301,-0.372664860372,-3.00584819211e-05,0.927965793003,0.0,0.0,0.0,0.0,0.0,0.0,0.0,0.0,0.0,-0.00126537716799,-0.0115750668079,-0.000667658677708,0.0,0.0,0.0,0.0,0.0,0.0,0.0,0.0,0.0,6.41710488163,0.0080691981744,7.12174253799,0.0,0.0,0.0,0.0,0.0,0.0,0.0,0.0,0.0
24052000000,252,24052000000,imu_link,0.000620375239686,-0.372685505588,-3.22976641063e-05,0.927957503346,0.0,0.0,0.0,0.0,0.0,0.0,0.0,0.0,0.0,-0.00156798118526,-0.0111243942755,-0.000569342806474,0.0,0.0,0.0,0.0,0.0,0.0,0.0,0.0,0.0,6.42023318487,0.00780422701445,7.12370847632,0.0,0.0,0.0,0.0,0.0,0.0,0.0,0.0,0.0
24056000000,253,24056000000,imu_link,0.000618220214161,-0.372705532151,-3.44557187828e-05,0.927949461404,0.0,0.0,0.0,0.0,0.0,0.0,0.0,0.0,0.0,-0.00139920598627,-0.0107911611841,-0.000593636002437,0.0,0.0,0.0,0.0,0.0,0.0,0.0,0.0,0.0,6.42324946514,0.0075813822604,7.12799009124,0.0,0.0,0.0,0.0,0.0,0.0,0.0,0.0,0.0
24060000000,254,24060000000,imu_link,0.000617130161026,-0.372725346073,-3.6425874318e-05,0.927941503662,0.0,0.0,0.0,0.0,0.0,0.0,0.0,0.0,0.0,-0.00087009987345,-0.0106767340299,-0.000704980378595,0.0,0.0,0.0,0.0,0.0,0.0,0.0,0.0,0.0,6.42539344983,0.00760705355954,7.13225139342,0.0,0.0,0.0,0.0,0.0,0.0,0.0,0.0,0.0
24064000000,255,24064000000,imu_link,0.000617325046547,-0.372745299113,-3.81919941059e-05,0.927933488694,0.0,0.0,0.0,0.0,0.0,0.0,0.0,0.0,0.0,-0.000235881080423,-0.0107518593675,-0.000849736477192,0.0,0.0,0.0,0.0,0.0,0.0,0.0,0.0,0.0,6.42595402005,0.00786413562422,7.13280895392,0.0,0.0,0.0,0.0,0.0,0.0,0.0,0.0,0.0
24068000000,256,24068000000,imu_link,0.000618756142261,-0.372765503966,-3.97728945126e-05,0.927925371251,0.0,0.0,0.0,0.0,0.0,0.0,0.0,0.0,0.0,0.000372235604404,-0.0108877098142,-0.000994120844992,0.0,0.0,0.0,0.0,0.0,0.0,0.0,0.0,0.0,6.42602910385,0.00813246798618,7.13059174337,0.0,0.0,0.0,0.0,0.0,0.0,0.0,0.0,0.0
24072000000,257,24072000000,imu_link,0.000621191919457,-0.372785970757,-4.12010343621e-05,0.927917147395,0.0,0.0,0.0,0.0,0.0,0.0,0.0,0.0,0.0,0.000866880386652,-0.0110290058173,-0.0011104220241,0.0,0.0,0.0,0.0,0.0,0.0,0.0,0.0,0.0,6.42633842997,0.00836201833816,7.12798816883,0.0,0.0,0.0,0.0,0.0,0.0,0.0,0.0,0.0
24076000000,258,24076000000,imu_link,0.000624450113553,-0.372806695775,-4.24988964627e-05,0.927908818711,0.0,0.0,0.0,0.0,0.0,0.0,0.0,0.0,0.0,0.00127276849623,-0.0111682942639,-0.00120319324213,0.0,0.0,0.0,0.0,0.0,0.0,0.0,0.0,0.0,6.42674811167,0.00854975847875,7.12558707017,0.0,0.0,0.0,0.0,0.0,0.0,0.0,0.0,0.0
24080000000,259,24080000000,imu_link,0.000628711462182,-0.372827795339,-4.36145922987e-05,0.927900338314,0.0,0.0,0.0,0.0,0.0,0.0,0.0,0.0,0.0,0.00177219819434,-0.011370267733,-0.00130555404533,0.0,0.0,0.0,0.0,0.0,0.0,0.0,0.0,0.0,6.4276475736,0.00865112900349,7.12512103719,0.0,0.0,0.0,0.0,0.0,0.0,0.0,0.0,0.0
24084000000,260,24084000000,imu_link,0.000634528069772,-0.372849487069,-4.44260983926e-05,0.927891618344,0.0,0.0,0.0,0.0,0.0,0.0,0.0,0.0,0.0,0.0025505542726,-0.0116895338371,-0.00145416612119,0.0,0.0,0.0,0.0,0.0,0.0,0.0,0.0,0.0,6.4301123232,0.00872221772092,7.1285966279,0.0,0.0,0.0,0.0,0.0,0.0,0.0,0.0,0.0
24088000000,261,24088000000,imu_link,0.000642286275418,-0.372872035933,-4.48526887845e-05,0.927882551984,0.0,0.0,0.0,0.0,0.0,0.0,0.0,0.0,0.0,0.00352323730179,-0.0121516074202,-0.00163728377109,0.0,0.0,0.0,0.0,0.0,0.0,0.0,0.0,0.0,6.43176884699,0.00887182187165,7.13070985026,0.0,0.0,0.0,0.0,0.0,0.0,0.0,0.0,0.0
24092000000,262,24092000000,imu_link,0.000652119574252,-0.372895625858,-4.48911122513e-05,0.927873065102,0.0,0.0,0.0,0.0,0.0,0.0,0.0,0.0,0.0,0.00455848537468,-0.0127128283594,-0.00184374432445,0.0,0.0,0.0,0.0,0.0,0.0,0.0,0.0,0.0,6.43301718846,0.00911707169442,7.1312779333,0.0,0.0,0.0,0.0,0.0,0.0,0.0,0.0,0.0
24096000000,263,24096000000,imu_link,0.000663391908801,-0.372920292636,-4.46257881525e-05,0.927863143605,0.0,0.0,0.0,0.0,0.0,0.0,0.0,0.0,0.0,0.0052829055655,-0.0132933214624,-0.00197078843081,0.0,0.0,0.0,0.0,0.0,0.0,0.0,0.0,0.0,6.43538447287,0.00950670462342,7.13274446757,0.0,0.0,0.0,0.0,0.0,0.0,0.0,0.0,0.0
24100000000,264,24100000000,imu_link,0.000675165369154,-0.372945907977,-4.41508406907e-05,0.927852839585,0.0,0.0,0.0,0.0,0.0,0.0,0.0,0.0,0.0,0.00555462809659,-0.0138046339732,-0.00196667142612,0.0,0.0,0.0,0.0,0.0,0.0,0.0,0.0,0.0,6.43848646316,0.00984895572703,7.13434824461,0.0,0.0,0.0,0.0,0.0,0.0,0.0,0.0,0.0
24104000000,265,24104000000,imu_link,0.00068659451092,-0.372971991136,-4.3549101117e-05,0.927842346802,0.0,0.0,0.0,0.0,0.0,0.0,0.0,0.0,0.0,0.00541860695776,-0.0140568314116,-0.00184348935118,0.0,0.0,0.0,0.0,0.0,0.0,0.0,0.0,0.0,6.44081235561,0.0100531543073,7.13123961506,0.0,0.0,0.0,0.0,0.0,0.0,0.0,0.0,0.0
24108000000,266,24108000000,imu_link,0.000697079687482,-0.372997918683,-4.28834872012e-05,0.927831916297,0.0,0.0,0.0,0.0,0.0,0.0,0.0,0.0,0.0,0.00499256841435,-0.0139730242733,-0.00163787246562,0.0,0.0,0.0,0.0,0.0,0.0,0.0,0.0,0.0,6.44358677474,0.0101178652741,7.127825209,0.0,0.0,0.0,0.0,0.0,0.0,0.0,0.0,0.0
24112000000,267,24112000000,imu_link,0.000706546782807,-0.373023297943,-4.21876304157e-05,0.927821706043,0.0,0.0,0.0,0.0,0.0,0.0,0.0,0.0,0.0,0.00452581602278,-0.0136776000081,-0.00143415760162,0.0,0.0,0.0,0.0,0.0,0.0,0.0,0.0,0.0,6.44450704866,0.00995020481881,7.12321555501,0.0,0.0,0.0,0.0,0.0,0.0,0.0,0.0,0.0
24116000000,268,24116000000,imu_link,0.000715209425846,-0.373047758526,-4.14615317898e-05,0.927811864882,0.0,0.0,0.0,0.0,0.0,0.0,0.0,0.0,0.0,0.00415811256282,-0.0131825818265,-0.00127040511985,0.0,0.0,0.0,0.0,0.0,0.0,0.0,0.0,0.0,6.44492554314,0.00966047581633,7.11821156671,0.0,0.0,0.0,0.0,0.0,0.0,0.0,0.0,0.0
24120000000,269,24120000000,imu_link,0.000723130660423,-0.373071055941,-4.06875451421e-05,0.927802491183,0.0,0.0,0.0,0.0,0.0,0.0,0.0,0.0,0.0,0.003822909758,-0.01255578699,-0.00111030546305,0.0,0.0,0.0,0.0,0.0,0.0,0.0,0.0,0.0,6.44545579348,0.00945603944962,7.11470707179,0.0,0.0,0.0,0.0,0.0,0.0,0.0,0.0,0.0
24124000000,270,24124000000,imu_link,0.000730207803517,-0.373093030426,-3.98515653831e-05,0.927793649394,0.0,0.0,0.0,0.0,0.0,0.0,0.0,0.0,0.0,0.00344267935152,-0.0118428523764,-0.000924561235896,0.0,0.0,0.0,0.0,0.0,0.0,0.0,0.0,0.0,6.44573484115,0.00929214994204,7.11160811021,0.0,0.0,0.0,0.0,0.0,0.0,0.0,0.0,0.0
24128000000,271,24128000000,imu_link,0.000736289608674,-0.373113556029,-3.89552666718e-05,0.927785390415,0.0,0.0,0.0,0.0,0.0,0.0,0.0,0.0,0.0,0.0029919558768,-0.0110619974981,-0.000711420021021,0.0,0.0,0.0,0.0,0.0,0.0,0.0,0.0,0.0,6.44599688761,0.00916314913039,7.10850879617,0.0,0.0,0.0,0.0,0.0,0.0,0.0,0.0,0.0
24132000000,272,24132000000,imu_link,0.000741230466305,-0.373132578528,-3.80143571374e-05,0.9277777363,0.0,0.0,0.0,0.0,0.0,0.0,0.0,0.0,0.0,0.00247074915053,-0.0102518824918,-0.000478415470491,0.0,0.0,0.0,0.0,0.0,0.0,0.0,0.0,0.0,6.44684738262,0.00901910453369,7.10711257431,0.0,0.0,0.0,0.0,0.0,0.0,0.0,0.0,0.0
24136000000,273,24136000000,imu_link,0.000744999562975,-0.373150143992,-3.70409054183e-05,0.927770668669,0.0,0.0,0.0,0.0,0.0,0.0,0.0,0.0,0.0,0.00193300850535,-0.00946657250324,-0.000245237270741,0.0,0.0,0.0,0.0,0.0,0.0,0.0,0.0,0.0,6.44629886203,0.00883203228762,7.10340459951,0.0,0.0,0.0,0.0,0.0,0.0,0.0,0.0,0.0
24140000000,274,24140000000,imu_link,0.00074768953658,-0.373166542871,-3.60512298767e-05,0.927764070733,0.0,0.0,0.0,0.0,0.0,0.0,0.0,0.0,0.0,0.00143524953536,-0.00883779162987,-3.67996673132e-05,0.0,0.0,0.0,0.0,0.0,0.0,0.0,0.0,0.0,6.44667043785,0.00863222968182,7.10373917473,0.0,0.0,0.0,0.0,0.0,0.0,0.0,0.0,0.0
24144000000,275,24144000000,imu_link,0.000749580753059,-0.373182233288,-3.50537343597e-05,0.92775775807,0.0,0.0,0.0,0.0,0.0,0.0,0.0,0.0,0.0,0.00106606011186,-0.00845593279176,0.000115602883704,0.0,0.0,0.0,0.0,0.0,0.0,0.0,0.0,0.0,6.44872175563,0.00841236616408,7.10870500954,0.0,0.0,0.0,0.0,0.0,0.0,0.0,0.0,0.0
24148000000,276,24148000000,imu_link,0.000751113243375,-0.373197685954,-3.40810100702e-05,0.927751541021,0.0,0.0,0.0,0.0,0.0,0.0,0.0,0.0,0.0,0.000894992528647,-0.00832782005962,0.000170959718763,0.0,0.0,0.0,0.0,0.0,0.0,0.0,0.0,0.0,6.45197972744,0.00821810195191,7.11621873182,0.0,0.0,0.0,0.0,0.0,0.0,0.0,0.0,0.0
24152000000,277,24152000000,imu_link,0.000752588459253,-0.373213361767,-3.31855826394e-05,0.927745233945,0.0,0.0,0.0,0.0,0.0,0.0,0.0,0.0,0.0,0.000854038412322,-0.00844816161244,0.000145873193288,0.0,0.0,0.0,0.0,0.0,0.0,0.0,0.0,0.0,6.45478766573,0.0081754227578,7.12249289584,0.0,0.0,0.0,0.0,0.0,0.0,0.0,0.0,0.0
24156000000,278,24156000000,imu_link,0.000754071771714,-0.373229433854,-3.24054087107e-05,0.927738767127,0.0,0.0,0.0,0.0,0.0,0.0,0.0,0.0,0.0,0.000836353807662,-0.00866183441086,9.10458380706e-05,0.0,0.0,0.0,0.0,0.0,0.0,0.0,0.0,0.0,6.45490758647,0.00820739295518,7.12099073772,0.0,0.0,0.0,0.0,0.0,0.0,0.0,0.0,0.0
24160000000,279,24160000000,imu_link,0.00075554788739,-0.373245879362,-3.17480326003e-05,0.927732149749,0.0,0.0,0.0,0.0,0.0,0.0,0.0,0.0,0.0,0.000810162375992,-0.00886319586105,3.55650692866e-05,0.0,0.0,0.0,0.0,0.0,0.0,0.0,0.0,0.0,6.45478639369,0.00822838733203,7.11742046197,0.0,0.0,0.0,0.0,0.0,0.0,0.0,0.0,0.0
24164000000,280,24164000000,imu_link,0.000757120510195,-0.373262686363,-3.11780633221e-05,0.927725386505,0.0,0.0,0.0,0.0,0.0,0.0,0.0,0.0,0.0,0.000838677482478,-0.00905813395762,-2.28561917675e-05,0.0,0.0,0.0,0.0,0.0,0.0,0.0,0.0,0.0,6.45561257171,0.0081824542634,7.11568552437,0.0,0.0,0.0,0.0,0.0,0.0,0.0,0.0,0.0
24168000000,281,24168000000,imu_link,0.000759040990689,-0.373279841186,-3.06104435165e-05,0.927718482668,0.0,0.0,0.0,0.0,0.0,0.0,0.0,0.0,0.0,0.000999655846312,-0.00924570968919,-8.87376924923e-05,0.0,0.0,0.0,0.0,0.0,0.0,0.0,0.0,0.0,6.45724781706,0.00814830448227,7.11554633234,0.0,0.0,0.0,0.0,0.0,0.0,0.0,0.0,0.0
24172000000,282,24172000000,imu_link,0.000761490041191,-0.373297306361,-2.99800333036e-05,0.927711453146,0.0,0.0,0.0,0.0,0.0,0.0,0.0,0.0,0.0,0.00125660957631,-0.0094130954367,-0.00015814818478,0.0,0.0,0.0,0.0,0.0,0.0,0.0,0.0,0.0,6.45873937563,0.00817847630424,7.11479035685,0.0,0.0,0.0,0.0,0.0,0.0,0.0,0.0,0.0
24176000000,283,24176000000,imu_link,0.000764317777257,-0.373315053629,-2.92836308334e-05,0.927704309408,0.0,0.0,0.0,0.0,0.0,0.0,0.0,0.0,0.0,0.0014446301255,-0.0095652337222,-0.000198112755156,0.0,0.0,0.0,0.0,0.0,0.0,0.0,0.0,0.0,6.45925731433,0.00829547241896,7.11253199889,0.0,0.0,0.0,0.0,0.0,0.0,0.0,0.0,0.0
24180000000,284,24180000000,imu_link,0.000766952170652,-0.373333066155,-2.86108205551e-05,0.927697058679,0.0,0.0,0.0,0.0,0.0,0.0,0.0,0.0,0.0,0.00135058882193,-0.0097082564551,-0.000172867375398,0.0,0.0,0.0,0.0,0.0,0.0,0.0,0.0,0.0,6.46153841775,0.0084519872193,7.11360774285,0.0,0.0,0.0,0.0,0.0,0.0,0.0,0.0,0.0
24184000000,285,24184000000,imu_link,0.000768762059056,-0.373351311451,-2.80341389932e-05,0.927689714537,0.0,0.0,0.0,0.0,0.0,0.0,0.0,0.0,0.0,0.000950238531989,-0.00983371209343,-6.34611257125e-05,0.0,0.0,0.0,0.0,0.0,0.0,0.0,0.0,0.0,6.46363007268,0.00854175945434,7.11438197797,0.0,0.0,0.0,0.0,0.0,0.0,0.0,0.0,0.0
24188000000,286,24188000000,imu_link,0.000769583977531,-0.373369763032,-2.75619356886e-05,0.927682287766,0.0,0.0,0.0,0.0,0.0,0.0,0.0,0.0,0.0,0.0004725048661,-0.00994487556375,7.25852406528e-05,0.0,0.0,0.0,0.0,0.0,0.0,0.0,0.0,0.0,6.46416957019,0.00845288001794,7.11203699751,0.0,0.0,0.0,0.0,0.0,0.0,0.0,0.0,0.0
24192000000,287,24192000000,imu_link,0.000769739287621,-0.373388413783,-2.71556903171e-05,0.927674780953,0.0,0.0,0.0,0.0,0.0,0.0,0.0,0.0,0.0,0.000151024665553,-0.0100522351312,0.000166512480107,0.0,0.0,0.0,0.0,0.0,0.0,0.0,0.0,0.0,6.4653361365,0.00825758227786,7.11099180426,0.0,0.0,0.0,0.0,0.0,0.0,0.0,0.0,0.0
24196000000,288,24196000000,imu_link,0.000769978967732,-0.373407300683,-2.672977004e-05,0.92766717858,0.0,0.0,0.0,0.0,0.0,0.0,0.0,0.0,0.0,0.000193871811739,-0.0101796027633,0.000159976632699,0.0,0.0,0.0,0.0,0.0,0.0,0.0,0.0,0.0,6.46714973576,0.00809763900102,7.11189965753,0.0,0.0,0.0,0.0,0.0,0.0,0.0,0.0,0.0
24200000000,289,24200000000,imu_link,0.000770885354376,-0.373426547407,-2.61832752668e-05,0.927659430363,0.0,0.0,0.0,0.0,0.0,0.0,0.0,0.0,0.0,0.000525685351944,-0.0103736746543,9.1563169153e-05,0.0,0.0,0.0,0.0,0.0,0.0,0.0,0.0,0.0,6.46883886447,0.00810795096307,7.11280909422,0.0,0.0,0.0,0.0,0.0,0.0,0.0,0.0,0.0
24204000000,290,24204000000,imu_link,0.000772448718318,-0.373446245878,-2.549651362e-05,0.927651499278,0.0,0.0,0.0,0.0,0.0,0.0,0.0,0.0,0.0,0.000856677031565,-0.010617289842,3.41284598195e-05,0.0,0.0,0.0,0.0,0.0,0.0,0.0,0.0,0.0,6.46857195398,0.00823537966538,7.10995049006,0.0,0.0,0.0,0.0,0.0,0.0,0.0,0.0,0.0
24208000000,291,24208000000,imu_link,0.000774132697014,-0.373466502267,-2.47494800696e-05,0.927643342988,0.0,0.0,0.0,0.0,0.0,0.0,0.0,0.0,0.0,0.000923969510079,-0.0109180926721,3.97751678762e-05,0.0,0.0,0.0,0.0,0.0,0.0,0.0,0.0,0.0,6.47013383306,0.00839167094646,7.11117883714,0.0,0.0,0.0,0.0,0.0,0.0,0.0,0.0,0.0
24212000000,292,24212000000,imu_link,0.000775401348183,-0.373487276429,-2.40187104201e-05,0.927634978061,0.0,0.0,0.0,0.0,0.0,0.0,0.0,0.0,0.0,0.000728381755175,-0.0111972180659,0.000109984908162,0.0,0.0,0.0,0.0,0.0,0.0,0.0,0.0,0.0,6.47115044928,0.00848182435802,7.11003499217,0.0,0.0,0.0,0.0,0.0,0.0,0.0,0.0,0.0
24216000000,293,24216000000,imu_link,0.000776070999165,-0.373508434435,-2.33341448139e-05,0.927626458536,0.0,0.0,0.0,0.0,0.0,0.0,0.0,0.0,0.0,0.00044199122879,-0.0114041470989,0.000200561099207,0.0,0.0,0.0,0.0,0.0,0.0,0.0,0.0,0.0,6.4706951934,0.00844143261241,7.10528659412,0.0,0.0,0.0,0.0,0.0,0.0,0.0,0.0,0.0
24220000000,294,24220000000,imu_link,0.000776262750409,-0.373529943557,-2.27081159443e-05,0.927617797461,0.0,0.0,0.0,0.0,0.0,0.0,0.0,0.0,0.0,0.000209462047985,-0.0115934624961,0.000262795371931,0.0,0.0,0.0,0.0,0.0,0.0,0.0,0.0,0.0,6.47113165678,0.00834501447929,7.10329500388,0.0,0.0,0.0,0.0,0.0,0.0,0.0,0.0,0.0
24224000000,295,24224000000,imu_link,0.000776307822928,-0.373551866751,-2.21349790468e-05,0.92760896918,0.0,0.0,0.0,0.0,0.0,0.0,0.0,0.0,0.0,0.000131622382083,-0.0118167627897,0.000265816867812,0.0,0.0,0.0,0.0,0.0,0.0,0.0,0.0,0.0,6.47226200562,0.00824267196593,7.10336437979,0.0,0.0,0.0,0.0,0.0,0.0,0.0,0.0,0.0
24228000000,296,24228000000,imu_link,0.000776396333247,-0.373574251641,-2.16613954451e-05,0.927599954318,0.0,0.0,0.0,0.0,0.0,0.0,0.0,0.0,0.0,0.000133252400476,-0.0120657869271,0.00021170761182,0.0,0.0,0.0,0.0,0.0,0.0,0.0,0.0,0.0,6.47364330536,0.00821362698014,7.10328996977,0.0,0.0,0.0,0.0,0.0,0.0,0.0,0.0,0.0
24232000000,297,24232000000,imu_link,0.00077656607143,-0.373597048601,-2.12986660115e-05,0.927590772791,0.0,0.0,0.0,0.0,0.0,0.0,0.0,0.0,0.0,0.000150288912616,-0.0122880781235,0.000145279291634,0.0,0.0,0.0,0.0,0.0,0.0,0.0,0.0,0.0,6.4737256276,0.00824177182344,7.09985868265,0.0,0.0,0.0,0.0,0.0,0.0,0.0,0.0,0.0
24236000000,298,24236000000,imu_link,0.000776793559079,-0.373620116953,-2.10328637334e-05,0.92758148125,0.0,0.0,0.0,0.0,0.0,0.0,0.0,0.0,0.0,0.000159012606171,-0.0124345356168,8.96416139378e-05,0.0,0.0,0.0,0.0,0.0,0.0,0.0,0.0,0.0,6.47420453093,0.00827142592361,7.09628791681,0.0,0.0,0.0,0.0,0.0,0.0,0.0,0.0,0.0
24240000000,299,24240000000,imu_link,0.000776890344579,-0.373643321869,-2.08478695604e-05,0.927572134138,0.0,0.0,0.0,0.0,0.0,0.0,0.0,0.0,0.0,8.33214118213e-05,-0.0125082866903,7.66324959678e-05,0.0,0.0,0.0,0.0,0.0,0.0,0.0,0.0,0.0,6.47518079292,0.0083471765555,7.0939347374,0.0,0.0,0.0,0.0,0.0,0.0,0.0,0.0,0.0
24244000000,300,24244000000,imu_link,0.000776682389377,-0.37366659343,-2.07335039639e-05,0.927562759758,0.0,0.0,0.0,0.0,0.0,0.0,0.0,0.0,0.0,-7.11967403588e-05,-0.0125443208542,0.000100833714039,0.0,0.0,0.0,0.0,0.0,0.0,0.0,0.0,0.0,6.4755036227,0.00843097869178,7.09103677867,0.0,0.0,0.0,0.0,0.0,0.0,0.0,0.0,0.0
24248000000,301,24248000000,imu_link,0.000776046843327,-0.373689813004,-2.06834396636e-05,0.927553405999,0.0,0.0,0.0,0.0,0.0,0.0,0.0,0.0,0.0,-0.000281527584881,-0.0125163869826,0.000150880203385,0.0,0.0,0.0,0.0,0.0,0.0,0.0,0.0,0.0,6.47652909631,0.0084710595683,7.08912247092,0.0,0.0,0.0,0.0,0.0,0.0,0.0,0.0,0.0
24252000000,302,24252000000,imu_link,0.000775280163889,-0.373712740269,-2.06692114032e-05,0.927544169447,0.0,0.0,0.0,0.0,0.0,0.0,0.0,0.0,0.0,-0.000349088477717,-0.0123589364072,0.000158649677374,0.0,0.0,0.0,0.0,0.0,0.0,0.0,0.0,0.0,6.47809474241,0.00837818412538,7.08738539665,0.0,0.0,0.0,0.0,0.0,0.0,0.0,0.0,0.0
24256000000,303,24256000000,imu_link,0.000774905846335,-0.373735136069,-2.06474221341e-05,0.927535146052,0.0,0.0,0.0,0.0,0.0,0.0,0.0,0.0,0.0,-0.000165797287667,-0.0120726208668,8.86371306298e-05,0.0,0.0,0.0,0.0,0.0,0.0,0.0,0.0,0.0,6.47874593551,0.00827862067011,7.0841179555,0.0,0.0,0.0,0.0,0.0,0.0,0.0,0.0,0.0
24260000000,304,24260000000,imu_link,0.000775444464887,-0.373756793622,-2.06107965553e-05,0.927526418752,0.0,0.0,0.0,0.0,0.0,0.0,0.0,0.0,0.0,0.000260242955952,-0.0116749008282,-7.53633987205e-05,0.0,0.0,0.0,0.0,0.0,0.0,0.0,0.0,0.0,6.47958375737,0.00827432975371,7.08173403519,0.0,0.0,0.0,0.0,0.0,0.0,0.0,0.0,0.0
24264000000,305,24264000000,imu_link,0.00077729908989,-0.373777561104,-2.05804377605e-05,0.927518048448,0.0,0.0,0.0,0.0,0.0,0.0,0.0,0.0,0.0,0.000869239616531,-0.011195391947,-0.000324544300182,0.0,0.0,0.0,0.0,0.0,0.0,0.0,0.0,0.0,6.48187508288,0.00839200767528,7.08260670299,0.0,0.0,0.0,0.0,0.0,0.0,0.0,0.0,0.0
24268000000,306,24268000000,imu_link,0.000780458405233,-0.373797420394,-2.06258679777e-05,0.927510042515,0.0,0.0,0.0,0.0,0.0,0.0,0.0,0.0,0.0,0.00145998646175,-0.0107061289896,-0.00060387334408,0.0,0.0,0.0,0.0,0.0,0.0,0.0,0.0,0.0,6.48300073411,0.00862384018647,7.08242611801,0.0,0.0,0.0,0.0,0.0,0.0,0.0,0.0,0.0
24272000000,307,24272000000,imu_link,0.000784628494906,-0.373816333679,-2.07946608977e-05,0.927502416493,0.0,0.0,0.0,0.0,0.0,0.0,0.0,0.0,0.0,0.00190552379431,-0.0101964476976,-0.000850361075966,0.0,0.0,0.0,0.0,0.0,0.0,0.0,0.0,0.0,6.48400556944,0.00887681990207,7.08141156882,0.0,0.0,0.0,0.0,0.0,0.0,0.0,0.0,0.0
24276000000,308,24276000000,imu_link,0.000789256429083,-0.373834396263,-2.11085953819e-05,0.927495132494,0.0,0.0,0.0,0.0,0.0,0.0,0.0,0.0,0.0,0.00209057856736,-0.00973805928077,-0.00100357571496,0.0,0.0,0.0,0.0,0.0,0.0,0.0,0.0,0.0,6.4849850626,0.00911919694262,7.08179041617,0.0,0.0,0.0,0.0,0.0,0.0,0.0,0.0,0.0
24280000000,309,24280000000,imu_link,0.000793984061724,-0.373851680852,-2.15335669011e-05,0.927488161568,0.0,0.0,0.0,0.0,0.0,0.0,0.0,0.0,0.0,0.00211592699622,-0.00931878969731,-0.0010740079416,0.0,0.0,0.0,0.0,0.0,0.0,0.0,0.0,0.0,6.48579816069,0.00924009406128,7.08133984256,0.0,0.0,0.0,0.0,0.0,0.0,0.0,0.0,0.0
24284000000,310,24284000000,imu_link,0.000798524457083,-0.373868248636,-2.20451049754e-05,0.927481479349,0.0,0.0,0.0,0.0,0.0,0.0,0.0,0.0,0.0,0.00201279295812,-0.00893244516778,-0.00107943464077,0.0,0.0,0.0,0.0,0.0,0.0,0.0,0.0,0.0,6.48647467165,0.00929858491978,7.08035637437,0.0,0.0,0.0,0.0,0.0,0.0,0.0,0.0,0.0
24288000000,311,24288000000,imu_link,0.000802748691516,-0.373884205599,-2.25954305428e-05,0.927475043269,0.0,0.0,0.0,0.0,0.0,0.0,0.0,0.0,0.0,0.00185882054268,-0.00860319014189,-0.00103856187971,0.0,0.0,0.0,0.0,0.0,0.0,0.0,0.0,0.0,6.48823535141,0.00936074810179,7.08174770901,0.0,0.0,0.0,0.0,0.0,0.0,0.0,0.0,0.0
24292000000,312,24292000000,imu_link,0.000806691791784,-0.373899773526,-2.31219010251e-05,0.927468763933,0.0,0.0,0.0,0.0,0.0,0.0,0.0,0.0,0.0,0.00173284029354,-0.00839347083131,-0.000975097948221,0.0,0.0,0.0,0.0,0.0,0.0,0.0,0.0,0.0,6.49052941059,0.00941920152555,7.08510783464,0.0,0.0,0.0,0.0,0.0,0.0,0.0,0.0,0.0
24296000000,313,24296000000,imu_link,0.000810534578746,-0.37391507435,-2.35771862146e-05,0.92746259205,0.0,0.0,0.0,0.0,0.0,0.0,0.0,0.0,0.0,0.00169958321848,-0.00824949048514,-0.0009234398116,0.0,0.0,0.0,0.0,0.0,0.0,0.0,0.0,0.0,6.4922342566,0.00937299753361,7.08675921038,0.0,0.0,0.0,0.0,0.0,0.0,0.0,0.0,0.0
24300000000,314,24300000000,imu_link,0.000814490487926,-0.373930310676,-2.39206308972e-05,0.927456445765,0.0,0.0,0.0,0.0,0.0,0.0,0.0,0.0,0.0,0.00177293982208,-0.00821474798266,-0.000892750756978,0.0,0.0,0.0,0.0,0.0,0.0,0.0,0.0,0.0,6.49210696492,0.00927505209833,7.0855145749,0.0,0.0,0.0,0.0,0.0,0.0,0.0,0.0,0.0
24304000000,315,24304000000,imu_link,0.000818584419406,-0.373945862736,-2.41761136506e-05,0.927450171749,0.0,0.0,0.0,0.0,0.0,0.0,0.0,0.0,0.0,0.00185344626792,-0.00838500640748,-0.000877638635279,0.0,0.0,0.0,0.0,0.0,0.0,0.0,0.0,0.0,6.49329340934,0.00927340712982,7.08831351494,0.0,0.0,0.0,0.0,0.0,0.0,0.0,0.0,0.0
24308000000,316,24308000000,imu_link,0.000822417620263,-0.373962099049,-2.43995113601e-05,0.927443621742,0.0,0.0,0.0,0.0,0.0,0.0,0.0,0.0,0.0,0.00173865920464,-0.00875390470147,-0.000813733703392,0.0,0.0,0.0,0.0,0.0,0.0,0.0,0.0,0.0,6.49566215633,0.0093724458618,7.09313000834,0.0,0.0,0.0,0.0,0.0,0.0,0.0,0.0,0.0
24312000000,317,24312000000,imu_link,0.000825304524897,-0.373979137288,-2.46598583916e-05,0.927436748861,0.0,0.0,0.0,0.0,0.0,0.0,0.0,0.0,0.0,0.0012930747355,-0.00918617340784,-0.00065360262889,0.0,0.0,0.0,0.0,0.0,0.0,0.0,0.0,0.0,6.49878105047,0.00946869805203,7.09758713848,0.0,0.0,0.0,0.0,0.0,0.0,0.0,0.0,0.0
24316000000,318,24316000000,imu_link,0.000826882440014,-0.373996935091,-2.49929344604e-05,0.927429570471,0.0,0.0,0.0,0.0,0.0,0.0,0.0,0.0,0.0,0.000672608107398,-0.00959557054719,-0.000442251365596,0.0,0.0,0.0,0.0,0.0,0.0,0.0,0.0,0.0,6.49895400017,0.00940270426351,7.09454816119,0.0,0.0,0.0,0.0,0.0,0.0,0.0,0.0,0.0
24320000000,319,24320000000,imu_link,0.000827153322976,-0.374015456194,-2.54285619702e-05,0.927422101148,0.0,0.0,0.0,0.0,0.0,0.0,0.0,0.0,0.0,4.74703318437e-05,-0.00998543786011,-0.000245097568691,0.0,0.0,0.0,0.0,0.0,0.0,0.0,0.0,0.0,6.49894301509,0.00923140228421,7.09105854426,0.0,0.0,0.0,0.0,0.0,0.0,0.0,0.0,0.0
24324000000,320,24324000000,imu_link,0.000826448327871,-0.374034590425,-2.59492271099e-05,0.927414384984,0.0,0.0,0.0,0.0,0.0,0.0,0.0,0.0,0.0,-0.000420847922556,-0.0103159606538,-0.000101783280348,0.0,0.0,0.0,0.0,0.0,0.0,0.0,0.0,0.0,6.50020397751,0.00902415960778,7.08952658853,0.0,0.0,0.0,0.0,0.0,0.0,0.0,0.0,0.0
24328000000,321,24328000000,imu_link,0.000825187226419,-0.374054189489,-2.65237672456e-05,0.927406481371,0.0,0.0,0.0,0.0,0.0,0.0,0.0,0.0,0.0,-0.000688710501611,-0.010566593536,-2.25743499158e-05,0.0,0.0,0.0,0.0,0.0,0.0,0.0,0.0,0.0,6.50169984758,0.00884216673621,7.08831831113,0.0,0.0,0.0,0.0,0.0,0.0,0.0,0.0,0.0
24332000000,322,24332000000,imu_link,0.000823603707044,-0.374074062687,-2.71556271343e-05,0.927398466984,0.0,0.0,0.0,0.0,0.0,0.0,0.0,0.0,0.0,-0.000848887744756,-0.0107144552046,1.12588186378e-05,0.0,0.0,0.0,0.0,0.0,0.0,0.0,0.0,0.0,6.50358062394,0.00879848507835,7.08757448373,0.0,0.0,0.0,0.0,0.0,0.0,0.0,0.0,0.0
24336000000,323,24336000000,imu_link,0.000821592263137,-0.37409412775,-2.78960606134e-05,0.92739037508,0.0,0.0,0.0,0.0,0.0,0.0,0.0,0.0,0.0,-0.0010675887769,-0.0108179721554,4.10290199531e-05,0.0,0.0,0.0,0.0,0.0,0.0,0.0,0.0,0.0,6.50428587587,0.00887751808918,7.08535529071,0.0,0.0,0.0,0.0,0.0,0.0,0.0,0.0,0.0
24340000000,324,24340000000,imu_link,0.000819140203429,-0.374114423772,-2.87694578086e-05,0.92738218988,0.0,0.0,0.0,0.0,0.0,0.0,0.0,0.0,0.0,-0.00129672912953,-0.0109425783817,6.18838526171e-05,0.0,0.0,0.0,0.0,0.0,0.0,0.0,0.0,0.0,6.50446375964,0.00888357283257,7.08344734165,0.0,0.0,0.0,0.0,0.0,0.0,0.0,0.0,0.0
24344000000,325,24344000000,imu_link,0.000816333482889,-0.374134860437,-2.97238514663e-05,0.927373947726,0.0,0.0,0.0,0.0,0.0,0.0,0.0,0.0,0.0,-0.0014763078218,-0.0110184853922,9.07251646663e-05,0.0,0.0,0.0,0.0,0.0,0.0,0.0,0.0,0.0,6.50512060901,0.00883042327619,7.08145322304,0.0,0.0,0.0,0.0,0.0,0.0,0.0,0.0,0.0
24348000000,326,24348000000,imu_link,0.000813513149153,-0.374155099603,-3.06793943847e-05,0.927365784734,0.0,0.0,0.0,0.0,0.0,0.0,0.0,0.0,0.0,-0.00148287031913,-0.0109120995077,9.26594168198e-05,0.0,0.0,0.0,0.0,0.0,0.0,0.0,0.0,0.0,6.50659923565,0.00874848468423,7.07891776764,0.0,0.0,0.0,0.0,0.0,0.0,0.0,0.0,0.0
24352000000,327,24352000000,imu_link,0.000810919429222,-0.374174864154,-3.15850636455e-05,0.927357812523,0.0,0.0,0.0,0.0,0.0,0.0,0.0,0.0,0.0,-0.00136854801428,-0.0106563142785,7.32004969742e-05,0.0,0.0,0.0,0.0,0.0,0.0,0.0,0.0,0.0,6.50772384976,0.00874600663569,7.07630121147,0.0,0.0,0.0,0.0,0.0,0.0,0.0,0.0,0.0
24356000000,328,24356000000,imu_link,0.000808617347376,-0.374194204557,-3.24389297028e-05,0.927350010709,0.0,0.0,0.0,0.0,0.0,0.0,0.0,0.0,0.0,-0.00122370564569,-0.0104277405085,4.24894451297e-05,0.0,0.0,0.0,0.0,0.0,0.0,0.0,0.0,0.0,6.5075664869,0.00882943724965,7.07409490095,0.0,0.0,0.0,0.0,0.0,0.0,0.0,0.0,0.0
24360000000,329,24360000000,imu_link,0.000806586588991,-0.374213275107,-3.32649017156e-05,0.927342317079,0.0,0.0,0.0,0.0,0.0,0.0,0.0,0.0,0.0,-0.00109272896022,-0.0102823599772,4.55203401016e-06,0.0,0.0,0.0,0.0,0.0,0.0,0.0,0.0,0.0,6.50778812699,0.00893605068401,7.07360652139,0.0,0.0,0.0,0.0,0.0,0.0,0.0,0.0,0.0
24364000000,330,24364000000,imu_link,0.000804797210672,-0.374232295885,-3.41046413743e-05,0.927334642864,0.0,0.0,0.0,0.0,0.0,0.0,0.0,0.0,0.0,-0.000983392660445,-0.010255651314,-4.70151886318e-05,0.0,0.0,0.0,0.0,0.0,0.0,0.0,0.0,0.0,6.50871665737,0.00902706428077,7.07444194741,0.0,0.0,0.0,0.0,0.0,0.0,0.0,0.0,0.0
24368000000,331,24368000000,imu_link,0.000803441742712,-0.37425127116,-3.49554679158e-05,0.927326986178,0.0,0.0,0.0,0.0,0.0,0.0,0.0,0.0,0.0,-0.000784284971311,-0.0102312702404,-0.000133365460026,0.0,0.0,0.0,0.0,0.0,0.0,0.0,0.0,0.0,6.51006136462,0.00907884523997,7.07449236073,0.0,0.0,0.0,0.0,0.0,0.0,0.0,0.0,0.0
24372000000,332,24372000000,imu_link,0.00080260270224,-0.374270185561,-3.57992393405e-05,0.927319353161,0.0,0.0,0.0,0.0,0.0,0.0,0.0,0.0,0.0,-0.000543526777566,-0.0101986037121,-0.000226755122918,0.0,0.0,0.0,0.0,0.0,0.0,0.0,0.0,0.0,6.51000119812,0.00915595845916,7.07132233669,0.0,0.0,0.0,0.0,0.0,0.0,0.0,0.0,0.0
24376000000,333,24376000000,imu_link,0.000802272081427,-0.374288895091,-3.66298455589e-05,0.927311801947,0.0,0.0,0.0,0.0,0.0,0.0,0.0,0.0,0.0,-0.000305365904875,-0.0100882911453,-0.000315874858336,0.0,0.0,0.0,0.0,0.0,0.0,0.0,0.0,0.0,6.51083281788,0.00928352701663,7.06890807911,0.0,0.0,0.0,0.0,0.0,0.0,0.0,0.0,0.0
24380000000,334,24380000000,imu_link,0.000802413275172,-0.374307223207,-3.74265318502e-05,0.927304403843,0.0,0.0,0.0,0.0,0.0,0.0,0.0,0.0,0.0,-8.03267786375e-05,-0.0098827704043,-0.000388595353317,0.0,0.0,0.0,0.0,0.0,0.0,0.0,0.0,0.0,6.51071559931,0.00944331370561,7.06448774753,0.0,0.0,0.0,0.0,0.0,0.0,0.0,0.0,0.0
24384000000,335,24384000000,imu_link,0.000802996335028,-0.374325243549,-3.81705139042e-05,0.927297129178,0.0,0.0,0.0,0.0,0.0,0.0,0.0,0.0,0.0,0.000134353921022,-0.00971693848903,-0.00044697692753,0.0,0.0,0.0,0.0,0.0,0.0,0.0,0.0,0.0,6.51074439223,0.0096355613974,7.06254593704,0.0,0.0,0.0,0.0,0.0,0.0,0.0,0.0,0.0
24388000000,336,24388000000,imu_link,0.000804008797697,-0.374343330552,-3.88722935949e-05,0.927289826823,0.0,0.0,0.0,0.0,0.0,0.0,0.0,0.0,0.0,0.000341357013359,-0.00975300322747,-0.000507751782603,0.0,0.0,0.0,0.0,0.0,0.0,0.0,0.0,0.0,6.51301009751,0.00976480988996,7.06777776747,0.0,0.0,0.0,0.0,0.0,0.0,0.0,0.0,0.0
24392000000,337,24392000000,imu_link,0.000805583379556,-0.374361972544,-3.95076180066e-05,0.927282299512,0.0,0.0,0.0,0.0,0.0,0.0,0.0,0.0,0.0,0.00061452048267,-0.0100523888092,-0.000581934179996,0.0,0.0,0.0,0.0,0.0,0.0,0.0,0.0,0.0,6.51416433187,0.00981157778093,7.0717050613,0.0,0.0,0.0,0.0,0.0,0.0,0.0,0.0,0.0
24396000000,338,24396000000,imu_link,0.000807970360251,-0.37438141356,-4.00278508499e-05,0.927274448458,0.0,0.0,0.0,0.0,0.0,0.0,0.0,0.0,0.0,0.00101287115094,-0.0104833854775,-0.000680323163008,0.0,0.0,0.0,0.0,0.0,0.0,0.0,0.0,0.0,6.5142396671,0.00986094260928,7.07131557445,0.0,0.0,0.0,0.0,0.0,0.0,0.0,0.0,0.0
24400000000,339,24400000000,imu_link,0.000811457315833,-0.374401612207,-4.04095732264e-05,0.92726629006,0.0,0.0,0.0,0.0,0.0,0.0,0.0,0.0,0.0,0.00154892765208,-0.0108921054811,-0.000821709710584,0.0,0.0,0.0,0.0,0.0,0.0,0.0,0.0,0.0,6.51452919326,0.00995305404047,7.06901846088,0.0,0.0,0.0,0.0,0.0,0.0,0.0,0.0,0.0
24404000000,340,24404000000,imu_link,0.000816246130788,-0.374422260508,-4.06403530328e-05,0.92725794843,0.0,0.0,0.0,0.0,0.0,0.0,0.0,0.0,0.0,0.00218085280592,-0.0111347935361,-0.000995258120806,0.0,0.0,0.0,0.0,0.0,0.0,0.0,0.0,0.0,6.51584787874,0.0100893045049,7.06648444679,0.0,0.0,0.0,0.0,0.0,0.0,0.0,0.0,0.0
24408000000,341,24408000000,imu_link,0.000822227148567,-0.374442585166,-4.07369855654e-05,0.927249735884,0.0,0.0,0.0,0.0,0.0,0.0,0.0,0.0,0.0,0.00275864718273,-0.0109604982915,-0.00115638665936,0.0,0.0,0.0,0.0,0.0,0.0,0.0,0.0,0.0,6.51855421636,0.0102993773153,7.06226793808,0.0,0.0,0.0,0.0,0.0,0.0,0.0,0.0,0.0
24412000000,342,24412000000,imu_link,0.000828954370295,-0.374461954493,-4.07178993226e-05,0.927241907926,0.0,0.0,0.0,0.0,0.0,0.0,0.0,0.0,0.0,0.00312609334117,-0.0104455170801,-0.00124282674162,0.0,0.0,0.0,0.0,0.0,0.0,0.0,0.0,0.0,6.52119383188,0.0105342152854,7.05956182318,0.0,0.0,0.0,0.0,0.0,0.0,0.0,0.0,0.0
24416000000,343,24416000000,imu_link,0.000835829512209,-0.374480224108,-4.06256714813e-05,0.927234523457,0.0,0.0,0.0,0.0,0.0,0.0,0.0,0.0,0.0,0.00320816040632,-0.00985259972668,-0.00123705878093,0.0,0.0,0.0,0.0,0.0,0.0,0.0,0.0,0.0,6.52246692976,0.010729753287,7.05869987194,0.0,0.0,0.0,0.0,0.0,0.0,0.0,0.0,0.0
24420000000,344,24420000000,imu_link,0.000842380981489,-0.374497586814,-4.05068278931e-05,0.927227505105,0.0,0.0,0.0,0.0,0.0,0.0,0.0,0.0,0.0,0.0030629122939,-0.00936358421997,-0.00116448633521,0.0,0.0,0.0,0.0,0.0,0.0,0.0,0.0,0.0,6.52302203632,0.010819411178,7.05922516349,0.0,0.0,0.0,0.0,0.0,0.0,0.0,0.0,0.0
24424000000,345,24424000000,imu_link,0.000848393274653,-0.374514391463,-4.0338228556e-05,0.92722071223,0.0,0.0,0.0,0.0,0.0,0.0,0.0,0.0,0.0,0.00282215326405,-0.00906263151744,-0.00104068928972,0.0,0.0,0.0,0.0,0.0,0.0,0.0,0.0,0.0,6.52453327458,0.0108538447477,7.06282909604,0.0,0.0,0.0,0.0,0.0,0.0,0.0,0.0,0.0
24428000000,346,24428000000,imu_link,0.000853950438901,-0.374530817595,-4.00735295794e-05,0.92721407228,0.0,0.0,0.0,0.0,0.0,0.0,0.0,0.0,0.0,0.00262907362954,-0.00885847857251,-0.000911067818984,0.0,0.0,0.0,0.0,0.0,0.0,0.0,0.0,0.0,6.52507403606,0.0108423518351,7.06270370785,0.0,0.0,0.0,0.0,0.0,0.0,0.0,0.0,0.0
24432000000,347,24432000000,imu_link,0.000859168270558,-0.374546825332,-3.97109569692e-05,0.927207601288,0.0,0.0,0.0,0.0,0.0,0.0,0.0,0.0,0.0,0.00249000447434,-0.0086328335312,-0.000802322915448,0.0,0.0,0.0,0.0,0.0,0.0,0.0,0.0,0.0,6.52546077911,0.0107568746908,7.06073121998,0.0,0.0,0.0,0.0,0.0,0.0,0.0,0.0,0.0
24436000000,348,24436000000,imu_link,0.000864332490978,-0.37456237234,-3.92454549125e-05,0.927201316121,0.0,0.0,0.0,0.0,0.0,0.0,0.0,0.0,0.0,0.00248433707488,-0.0083843941923,-0.000744758706359,0.0,0.0,0.0,0.0,0.0,0.0,0.0,0.0,0.0,6.52629524533,0.0105998111719,7.05983519386,0.0,0.0,0.0,0.0,0.0,0.0,0.0,0.0,0.0
24440000000,349,24440000000,imu_link,0.000869756522307,-0.374577558663,-3.86398121356e-05,0.927195176097,0.0,0.0,0.0,0.0,0.0,0.0,0.0,0.0,0.0,0.00263096149987,-0.00818993198818,-0.00072860009937,0.0,0.0,0.0,0.0,0.0,0.0,0.0,0.0,0.0,6.52734502944,0.0104960436559,7.06059321841,0.0,0.0,0.0,0.0,0.0,0.0,0.0,0.0,0.0
24444000000,350,24444000000,imu_link,0.000875501124373,-0.374592462373,-3.7872136716e-05,0.927189149633,0.0,0.0,0.0,0.0,0.0,0.0,0.0,0.0,0.0,0.00280986937102,-0.00803756840106,-0.000713642166878,0.0,0.0,0.0,0.0,0.0,0.0,0.0,0.0,0.0,6.52807050099,0.0104936087291,7.06022860754,0.0,0.0,0.0,0.0,0.0,0.0,0.0,0.0,0.0
24448000000,351,24448000000,imu_link,0.000881468222572,-0.374606895729,-3.6969950913e-05,0.927183312684,0.0,0.0,0.0,0.0,0.0,0.0,0.0,0.0,0.0,0.00293811879206,-0.00778395584045,-0.000693158879494,0.0,0.0,0.0,0.0,0.0,0.0,0.0,0.0,0.0,6.52905193431,0.0105462299949,7.05809655304,0.0,0.0,0.0,0.0,0.0,0.0,0.0,0.0,0.0
24452000000,352,24452000000,imu_link,0.000887502989771,-0.374620838667,-3.59832959982e-05,0.927177673523,0.0,0.0,0.0,0.0,0.0,0.0,0.0,0.0,0.0,0.00298521469469,-0.00751951762921,-0.000666886828684,0.0,0.0,0.0,0.0,0.0,0.0,0.0,0.0,0.0,6.53026832142,0.0106026499702,7.05791994468,0.0,0.0,0.0,0.0,0.0,0.0,0.0,0.0,0.0
24456000000,353,24456000000,imu_link,0.000893335587084,-0.374634351767,-3.49488614429e-05,0.927172207956,0.0,0.0,0.0,0.0,0.0,0.0,0.0,0.0,0.0,0.00290035585051,-0.00728771579961,-0.000607055812686,0.0,0.0,0.0,0.0,0.0,0.0,0.0,0.0,0.0,6.53056347766,0.0106409584535,7.05662703053,0.0,0.0,0.0,0.0,0.0,0.0,0.0,0.0,0.0
24460000000,354,24460000000,imu_link,0.000898515242073,-0.37464766032,-3.39137772943e-05,0.927166825408,0.0,0.0,0.0,0.0,0.0,0.0,0.0,0.0,0.0,0.00259774188685,-0.00717735145719,-0.000484537271692,0.0,0.0,0.0,0.0,0.0,0.0,0.0,0.0,0.0,6.53211773785,0.0106725480315,7.059352265,0.0,0.0,0.0,0.0,0.0,0.0,0.0,0.0,0.0
24464000000,355,24464000000,imu_link,0.000902586174369,-0.374660990249,-3.29588481032e-05,0.927161435047,0.0,0.0,0.0,0.0,0.0,0.0,0.0,0.0,0.0,0.00206874537549,-0.00718877881143,-0.000313996128554,0.0,0.0,0.0,0.0,0.0,0.0,0.0,0.0,0.0,6.53370579179,0.0106385555638,7.06198251064,0.0,0.0,0.0,0.0,0.0,0.0,0.0,0.0,0.0
24468000000,356,24468000000,imu_link,0.000905419521778,-0.374674571602,-3.21226139327e-05,0.927155944045,0.0,0.0,0.0,0.0,0.0,0.0,0.0,0.0,0.0,0.00147283925005,-0.00732426170777,-0.000137071653634,0.0,0.0,0.0,0.0,0.0,0.0,0.0,0.0,0.0,6.53514583458,0.0105190587232,7.06418903258,0.0,0.0,0.0,0.0,0.0,0.0,0.0,0.0,0.0
24472000000,357,24472000000,imu_link,0.000907431869298,-0.374688360088,-3.13766269786e-05,0.927150369895,0.0,0.0,0.0,0.0,0.0,0.0,0.0,0.0,0.0,0.00107537608696,-0.00743591436057,-2.50119491878e-05,0.0,0.0,0.0,0.0,0.0,0.0,0.0,0.0,0.0,6.53629347426,0.0103196789988,7.06356199319,0.0,0.0,0.0,0.0,0.0,0.0,0.0,0.0,0.0
24476000000,358,24476000000,imu_link,0.000909359565854,-0.374702227347,-3.06405196983e-05,0.927144763749,0.0,0.0,0.0,0.0,0.0,0.0,0.0,0.0,0.0,0.00103429885417,-0.00747843176175,-1.36978166759e-05,0.0,0.0,0.0,0.0,0.0,0.0,0.0,0.0,0.0,6.53805069723,0.0101141083369,7.06324075434,0.0,0.0,0.0,0.0,0.0,0.0,0.0,0.0,0.0
24480000000,359,24480000000,imu_link,0.000911580535875,-0.374716055708,-2.99002267928e-05,0.92713917279,0.0,0.0,0.0,0.0,0.0,0.0,0.0,0.0,0.0,0.00117102901307,-0.00745754810306,-6.67200400393e-05,0.0,0.0,0.0,0.0,0.0,0.0,0.0,0.0,0.0,6.53853815787,0.0100429762292,7.06105366601,0.0,0.0,0.0,0.0,0.0,0.0,0.0,0.0,0.0
24484000000,360,24484000000,imu_link,0.000914089526398,-0.374729801066,-2.91603831299e-05,0.927133614849,0.0,0.0,0.0,0.0,0.0,0.0,0.0,0.0,0.0,0.00130444609884,-0.00741287995416,-0.000120928587044,0.0,0.0,0.0,0.0,0.0,0.0,0.0,0.0,0.0,6.53898055942,0.0100467857882,7.05899879335,0.0,0.0,0.0,0.0,0.0,0.0,0.0,0.0,0.0
24488000000,361,24488000000,imu_link,0.000916702754136,-0.37474335927,-2.84403372266e-05,0.927128132207,0.0,0.0,0.0,0.0,0.0,0.0,0.0,0.0,0.0,0.00134902046279,-0.00731202061527,-0.000149721006638,0.0,0.0,0.0,0.0,0.0,0.0,0.0,0.0,0.0,6.53914563106,0.0101073975178,7.05603078254,0.0,0.0,0.0,0.0,0.0,0.0,0.0,0.0,0.0
24492000000,362,24492000000,imu_link,0.000919442754601,-0.374756550774,-2.77169869296e-05,0.927122797427,0.0,0.0,0.0,0.0,0.0,0.0,0.0,0.0,0.0,0.00140833390598,-0.00711432340918,-0.000172108801834,0.0,0.0,0.0,0.0,0.0,0.0,0.0,0.0,0.0,6.54089623285,0.0101218714053,7.05538210428,0.0,0.0,0.0,0.0,0.0,0.0,0.0,0.0,0.0
24496000000,363,24496000000,imu_link,0.000922689643734,-0.37476937089,-2.69262641812e-05,0.927117612043,0.0,0.0,0.0,0.0,0.0,0.0,0.0,0.0,0.0,0.00165585823223,-0.0069141309571,-0.000236026122808,0.0,0.0,0.0,0.0,0.0,0.0,0.0,0.0,0.0,6.54144192335,0.0100859815788,7.05408581588,0.0,0.0,0.0,0.0,0.0,0.0,0.0,0.0,0.0
24504000000,364,24504000000,imu_link,0.000932144051068,-0.374795236626,-2.50000858115e-05,0.927107146497,0.0,0.0,0.0,0.0,0.0,0.0,0.0,0.0,0.0,0.00262359793403,-0.00706014322915,-0.000503029553793,0.0,0.0,0.0,0.0,0.0,0.0,0.0,0.0,0.0,6.5434694416,0.0101981240873,7.05835460121,0.0,0.0,0.0,0.0,0.0,0.0,0.0,0.0,0.0
24508000000,365,24508000000,imu_link,0.000937997635195,-0.374808878166,-2.39248958067e-05,0.927101625733,0.0,0.0,0.0,0.0,0.0,0.0,0.0,0.0,0.0,0.00291768147845,-0.00735758844976,-0.000592250624987,0.0,0.0,0.0,0.0,0.0,0.0,0.0,0.0,0.0,6.54606792736,0.0104346176684,7.06324778019,0.0,0.0,0.0,0.0,0.0,0.0,0.0,0.0,0.0
24512000000,366,24512000000,imu_link,0.000944015220196,-0.374823045238,-2.28226921491e-05,0.927095892059,0.0,0.0,0.0,0.0,0.0,0.0,0.0,0.0,0.0,0.00299887283632,-0.00764108442617,-0.000610218989444,0.0,0.0,0.0,0.0,0.0,0.0,0.0,0.0,0.0,6.54723938106,0.0105975904391,7.06268265564,0.0,0.0,0.0,0.0,0.0,0.0,0.0,0.0,0.0
24516000000,367,24516000000,imu_link,0.00094977648529,-0.374837523623,-2.16762293465e-05,0.927090032488,0.0,0.0,0.0,0.0,0.0,0.0,0.0,0.0,0.0,0.00288841392078,-0.00780896990864,-0.000541519943914,0.0,0.0,0.0,0.0,0.0,0.0,0.0,0.0,0.0,6.5482254453,0.0107202643617,7.06024154218,0.0,0.0,0.0,0.0,0.0,0.0,0.0,0.0,0.0
24520000000,368,24520000000,imu_link,0.000954952819078,-0.374852158169,-2.04732237191e-05,0.92708411008,0.0,0.0,0.0,0.0,0.0,0.0,0.0,0.0,0.0,0.00262790064824,-0.00789311415414,-0.000405609219841,0.0,0.0,0.0,0.0,0.0,0.0,0.0,0.0,0.0,6.5489036362,0.0107874681726,7.05762329348,0.0,0.0,0.0,0.0,0.0,0.0,0.0,0.0,0.0
24524000000,369,24524000000,imu_link,0.000959229659953,-0.374866879537,-1.92247514509e-05,0.927078153197,0.0,0.0,0.0,0.0,0.0,0.0,0.0,0.0,0.0,0.0022194868386,-0.00793980835909,-0.000215903987674,0.0,0.0,0.0,0.0,0.0,0.0,0.0,0.0,0.0,6.54933968746,0.0107381269899,7.05568422536,0.0,0.0,0.0,0.0,0.0,0.0,0.0,0.0,0.0
24528000000,370,24528000000,imu_link,0.000962391304045,-0.374881653644,-1.79842629396e-05,0.927072175853,0.0,0.0,0.0,0.0,0.0,0.0,0.0,0.0,0.0,0.00170106344894,-0.00796810489352,-1.05545039312e-05,0.0,0.0,0.0,0.0,0.0,0.0,0.0,0.0,0.0,6.55003296425,0.0105789124732,7.05449851317,0.0,0.0,0.0,0.0,0.0,0.0,0.0,0.0,0.0
24532000000,371,24532000000,imu_link,0.000964406137451,-0.374896446468,-1.67905208445e-05,0.927066191846,0.0,0.0,0.0,0.0,0.0,0.0,0.0,0.0,0.0,0.00116071649745,-0.00797806239592,0.000182744934827,0.0,0.0,0.0,0.0,0.0,0.0,0.0,0.0,0.0,6.55060099654,0.0103859123191,7.05322659494,0.0,0.0,0.0,0.0,0.0,0.0,0.0,0.0,0.0
24536000000,372,24536000000,imu_link,0.000965318193888,-0.374911105597,-1.5650106899e-05,0.927060262775,0.0,0.0,0.0,0.0,0.0,0.0,0.0,0.0,0.0,0.000639518995343,-0.00790582777112,0.000364675149136,0.0,0.0,0.0,0.0,0.0,0.0,0.0,0.0,0.0,6.55101728935,0.0102066788245,7.05054212354,0.0,0.0,0.0,0.0,0.0,0.0,0.0,0.0,0.0
24540000000,373,24540000000,imu_link,0.000965398850856,-0.374925368515,-1.45576326978e-05,0.927054494535,0.0,0.0,0.0,0.0,0.0,0.0,0.0,0.0,0.0,0.000245072992046,-0.00769205268588,0.000498114103586,0.0,0.0,0.0,0.0,0.0,0.0,0.0,0.0,0.0,6.55221603145,0.010005299941,7.04858329263,0.0,0.0,0.0,0.0,0.0,0.0,0.0,0.0,0.0
24544000000,374,24544000000,imu_link,0.000964997473483,-0.374938761271,-1.34744292898e-05,0.927049078471,0.0,0.0,0.0,0.0,0.0,0.0,0.0,0.0,0.0,1.9722683523e-05,-0.00722269742665,0.00058376282716,0.0,0.0,0.0,0.0,0.0,0.0,0.0,0.0,0.0,6.55411775712,0.00984997098938,7.04583778049,0.0,0.0,0.0,0.0,0.0,0.0,0.0,0.0,0.0
24548000000,375,24548000000,imu_link,0.00096430352937,-0.374950927171,-1.23684532887e-05,0.9270441587,0.0,0.0,0.0,0.0,0.0,0.0,0.0,0.0,0.0,-0.000111867741155,-0.00656097042863,0.000648577174783,0.0,0.0,0.0,0.0,0.0,0.0,0.0,0.0,0.0,6.55478380574,0.00976259134659,7.04154785367,0.0,0.0,0.0,0.0,0.0,0.0,0.0,0.0,0.0
24552000000,376,24552000000,imu_link,0.000963336958174,-0.374961912117,-1.12502344448e-05,0.927039716688,0.0,0.0,0.0,0.0,0.0,0.0,0.0,0.0,0.0,-0.000236178837379,-0.00592400015519,0.000704796447651,0.0,0.0,0.0,0.0,0.0,0.0,0.0,0.0,0.0,6.55350171597,0.00972915969064,7.03742349977,0.0,0.0,0.0,0.0,0.0,0.0,0.0,0.0,0.0
24556000000,377,24556000000,imu_link,0.000962047606381,-0.374972380611,-1.01551399161e-05,0.927035483754,0.0,0.0,0.0,0.0,0.0,0.0,0.0,0.0,0.0,-0.00039023303431,-0.00564542944844,0.000754345501075,0.0,0.0,0.0,0.0,0.0,0.0,0.0,0.0,0.0,6.55477641663,0.00971075182271,7.04319459931,0.0,0.0,0.0,0.0,0.0,0.0,0.0,0.0,0.0
24560000000,378,24560000000,imu_link,0.000960640533034,-0.374983262193,-9.07708146161e-06,0.927031083709,0.0,0.0,0.0,0.0,0.0,0.0,0.0,0.0,0.0,-0.000447910608962,-0.00586824226253,0.000768717999642,0.0,0.0,0.0,0.0,0.0,0.0,0.0,0.0,0.0,6.55668432568,0.00970471801395,7.0526333593,0.0,0.0,0.0,0.0,0.0,0.0,0.0,0.0,0.0
24564000000,379,24564000000,imu_link,0.000959502193063,-0.374995359099,-7.97705586799e-06,0.927026191618,0.0,0.0,0.0,0.0,0.0,0.0,0.0,0.0,0.0,-0.000318988003014,-0.00652380696463,0.00072909636334,0.0,0.0,0.0,0.0,0.0,0.0,0.0,0.0,0.0,6.55963277698,0.00973332476739,7.06285637731,0.0,0.0,0.0,0.0,0.0,0.0,0.0,0.0,0.0
24568000000,380,24568000000,imu_link,0.000959067567237,-0.375008762362,-6.8372802508e-06,0.927020770153,0.0,0.0,0.0,0.0,0.0,0.0,0.0,0.0,0.0,1.49049343565e-05,-0.00722855516565,0.000616200865435,0.0,0.0,0.0,0.0,0.0,0.0,0.0,0.0,0.0,6.56019889013,0.00976114561586,7.06247930031,0.0,0.0,0.0,0.0,0.0,0.0,0.0,0.0,0.0
24572000000,381,24572000000,imu_link,0.000959699359162,-0.375023058303,-5.64873284323e-06,0.927014986225,0.0,0.0,0.0,0.0,0.0,0.0,0.0,0.0,0.0,0.000518522426275,-0.0077102568398,0.000439275926163,0.0,0.0,0.0,0.0,0.0,0.0,0.0,0.0,0.0,6.56136862419,0.00982008550451,7.05857521185,0.0,0.0,0.0,0.0,0.0,0.0,0.0,0.0,0.0
24576000000,382,24576000000,imu_link,0.000961336588203,-0.375037880178,-4.41746618323e-06,0.927008988222,0.0,0.0,0.0,0.0,0.0,0.0,0.0,0.0,0.0,0.000992664624878,-0.00799414917198,0.000270797333151,0.0,0.0,0.0,0.0,0.0,0.0,0.0,0.0,0.0,6.56109768062,0.00997279200701,7.05242021055,0.0,0.0,0.0,0.0,0.0,0.0,0.0,0.0,0.0
