%time,field.header.seq,field.header.stamp,field.header.frame_id,field.orientation.x,field.orientation.y,field.orientation.z,field.orientation.w,field.orientation_covariance0,field.orientation_covariance1,field.orientation_covariance2,field.orientation_covariance3,field.orientation_covariance4,field.orientation_covariance5,field.orientation_covariance6,field.orientation_covariance7,field.orientation_covariance8,field.angular_velocity.x,field.angular_velocity.y,field.angular_velocity.z,field.angular_velocity_covariance0,field.angular_velocity_covariance1,field.angular_velocity_covariance2,field.angular_velocity_covariance3,field.angular_velocity_covariance4,field.angular_velocity_covariance5,field.angular_velocity_covariance6,field.angular_velocity_covariance7,field.angular_velocity_covariance8,field.linear_acceleration.x,field.linear_acceleration.y,field.linear_acceleration.z,field.linear_acceleration_covariance0,field.linear_acceleration_covariance1,field.linear_acceleration_covariance2,field.linear_acceleration_covariance3,field.linear_acceleration_covariance4,field.linear_acceleration_covariance5,field.linear_acceleration_covariance6,field.linear_acceleration_covariance7,field.linear_acceleration_covariance8
31056000000,0,31056000000,imu_link,0.000522294828062,-0.373990529835,0.00190074239971,0.927430427569,0.0,0.0,0.0,0.0,0.0,0.0,0.0,0.0,0.0,-0.00105315254977,-0.0108919140934,-0.0001939978793,0.0,0.0,0.0,0.0,0.0,0.0,0.0,0.0,0.0,6.46814778337,-0.0131234995705,7.10599906763,0.0,0.0,0.0,0.0,0.0,0.0,0.0,0.0,0.0
31060000000,1,31060000000,imu_link,0.000520463362694,-0.374009463842,0.00189952704104,0.927422795639,0.0,0.0,0.0,0.0,0.0,0.0,0.0,0.0,0.0,-0.00109254594806,-0.010205698744,-0.000208907221183,0.0,0.0,0.0,0.0,0.0,0.0,0.0,0.0,0.0,6.46888311818,-0.0130778575335,7.10349847082,0.0,0.0,0.0,0.0,0.0,0.0,0.0,0.0,0.0
31064000000,2,31064000000,imu_link,0.000518641190611,-0.37402738507,0.00189831394745,0.927415571701,0.0,0.0,0.0,0.0,0.0,0.0,0.0,0.0,0.0,-0.0010869572362,-0.00965977334985,-0.000210245816679,0.0,0.0,0.0,0.0,0.0,0.0,0.0,0.0,0.0,6.47002838881,-0.0130256186951,7.10507613269,0.0,0.0,0.0,0.0,0.0,0.0,0.0,0.0,0.0
31068000000,3,31068000000,imu_link,0.000517089495488,-0.374044678156,0.00189717622207,0.927408600394,0.0,0.0,0.0,0.0,0.0,0.0,0.0,0.0,0.0,-0.000946909383923,-0.00932149073324,-0.000226282564257,0.0,0.0,0.0,0.0,0.0,0.0,0.0,0.0,0.0,6.47080663684,-0.0129845513952,7.10702000849,0.0,0.0,0.0,0.0,0.0,0.0,0.0,0.0,0.0
31072000000,4,31072000000,imu_link,0.000516237877517,-0.374061698807,0.00189614066334,0.927401737994,0.0,0.0,0.0,0.0,0.0,0.0,0.0,0.0,0.0,-0.000602942882755,-0.00917543108391,-0.000310011264269,0.0,0.0,0.0,0.0,0.0,0.0,0.0,0.0,0.0,6.47361598833,-0.0129389443305,7.11292312764,0.0,0.0,0.0,0.0,0.0,0.0,0.0,0.0,0.0
31076000000,5,31076000000,imu_link,0.000516635589231,-0.374078684401,0.00189522594866,0.927394888428,0.0,0.0,0.0,0.0,0.0,0.0,0.0,0.0,0.0,-9.96129845399e-07,-0.00915792776024,-0.000487660176487,0.0,0.0,0.0,0.0,0.0,0.0,0.0,0.0,0.0,6.47617016202,-0.0128479810975,7.11712096765,0.0,0.0,0.0,0.0,0.0,0.0,0.0,0.0,0.0
31080000000,6,31080000000,imu_link,0.000518711904441,-0.374095711979,0.00189441238437,0.92738802042,0.0,0.0,0.0,0.0,0.0,0.0,0.0,0.0,0.0,0.000796252102132,-0.00918240975143,-0.000754693571914,0.0,0.0,0.0,0.0,0.0,0.0,0.0,0.0,0.0,6.47819404826,-0.012655462121,7.11898719558,0.0,0.0,0.0,0.0,0.0,0.0,0.0,0.0,0.0
31084000000,7,31084000000,imu_link,0.000522615928468,-0.374112788603,0.00189362623686,0.927381131173,0.0,0.0,0.0,0.0,0.0,0.0,0.0,0.0,0.0,0.00164883703381,-0.00921084906383,-0.00108381675476,0.0,0.0,0.0,0.0,0.0,0.0,0.0,0.0,0.0,6.48008944796,-0.0124199538836,7.11990614866,0.0,0.0,0.0,0.0,0.0,0.0,0.0,0.0,0.0
31088000000,8,31088000000,imu_link,0.000528189525204,-0.374129932034,0.00189276526582,0.927374213795,0.0,0.0,0.0,0.0,0.0,0.0,0.0,0.0,0.0,0.00240895002585,-0.00924868929253,-0.00143077187735,0.0,0.0,0.0,0.0,0.0,0.0,0.0,0.0,0.0,6.48136761479,-0.0121068544004,7.11961237622,0.0,0.0,0.0,0.0,0.0,0.0,0.0,0.0,0.0
31092000000,9,31092000000,imu_link,0.000535253141156,-0.374147029924,0.0018918232791,0.927367313694,0.0,0.0,0.0,0.0,0.0,0.0,0.0,0.0,0.0,0.00308473606601,-0.00922577202524,-0.00174709657671,0.0,0.0,0.0,0.0,0.0,0.0,0.0,0.0,0.0,6.48115704524,-0.0117636199997,7.11530219265,0.0,0.0,0.0,0.0,0.0,0.0,0.0,0.0,0.0
31096000000,10,31096000000,imu_link,0.000543415484121,-0.374163728377,0.0018908254679,0.927360573804,0.0,0.0,0.0,0.0,0.0,0.0,0.0,0.0,0.0,0.00358408949979,-0.00901164219768,-0.00197878264536,0.0,0.0,0.0,0.0,0.0,0.0,0.0,0.0,0.0,6.48263791842,-0.0114323967563,7.11228542659,0.0,0.0,0.0,0.0,0.0,0.0,0.0,0.0,0.0
31100000000,11,31100000000,imu_link,0.000552242852047,-0.374179826549,0.00188980690793,0.927354075346,0.0,0.0,0.0,0.0,0.0,0.0,0.0,0.0,0.0,0.00388906865938,-0.00868877098962,-0.00211320890433,0.0,0.0,0.0,0.0,0.0,0.0,0.0,0.0,0.0,6.48403636946,-0.0111521265872,7.11060831164,0.0,0.0,0.0,0.0,0.0,0.0,0.0,0.0,0.0
31104000000,12,31104000000,imu_link,0.000561632314865,-0.374195426893,0.00188881906474,0.927347776955,0.0,0.0,0.0,0.0,0.0,0.0,0.0,0.0,0.0,0.00415586111074,-0.00842103154586,-0.00220445502742,0.0,0.0,0.0,0.0,0.0,0.0,0.0,0.0,0.0,6.48473306591,-0.0110006383256,7.1099713892,0.0,0.0,0.0,0.0,0.0,0.0,0.0,0.0,0.0
31108000000,13,31108000000,imu_link,0.000571441133053,-0.374210745899,0.00188787695461,0.92734159134,0.0,0.0,0.0,0.0,0.0,0.0,0.0,0.0,0.0,0.00435909582465,-0.00826986547555,-0.00226189574756,0.0,0.0,0.0,0.0,0.0,0.0,0.0,0.0,0.0,6.48510481344,-0.0108704502309,7.10945349593,0.0,0.0,0.0,0.0,0.0,0.0,0.0,0.0,0.0
31112000000,14,31112000000,imu_link,0.000581462547123,-0.374226094775,0.00188696098809,0.927335393085,0.0,0.0,0.0,0.0,0.0,0.0,0.0,0.0,0.0,0.00446253735342,-0.00828627389938,-0.00228953108007,0.0,0.0,0.0,0.0,0.0,0.0,0.0,0.0,0.0,6.48586368789,-0.0107370894833,7.11048059204,0.0,0.0,0.0,0.0,0.0,0.0,0.0,0.0,0.0
31116000000,15,31116000000,imu_link,0.000591509702858,-0.374241664951,0.00188605231942,0.927329105085,0.0,0.0,0.0,0.0,0.0,0.0,0.0,0.0,0.0,0.00447565575555,-0.0084056977504,-0.00229081489379,0.0,0.0,0.0,0.0,0.0,0.0,0.0,0.0,0.0,6.48699958603,-0.01064922155,7.11126263724,0.0,0.0,0.0,0.0,0.0,0.0,0.0,0.0,0.0
31120000000,16,31120000000,imu_link,0.000601363364217,-0.374257476428,0.0018851153477,0.927322719467,0.0,0.0,0.0,0.0,0.0,0.0,0.0,0.0,0.0,0.00438044449816,-0.00853567305791,-0.00226756776425,0.0,0.0,0.0,0.0,0.0,0.0,0.0,0.0,0.0,6.4880726869,-0.0105729173802,7.11048115453,0.0,0.0,0.0,0.0,0.0,0.0,0.0,0.0,0.0
31124000000,17,31124000000,imu_link,0.000610737802487,-0.374273530721,0.00188414449853,0.927316235812,0.0,0.0,0.0,0.0,0.0,0.0,0.0,0.0,0.0,0.004151708434,-0.0086661613669,-0.00219343360331,0.0,0.0,0.0,0.0,0.0,0.0,0.0,0.0,0.0,6.48824673393,-0.0105302858806,7.10775973394,0.0,0.0,0.0,0.0,0.0,0.0,0.0,0.0,0.0
31128000000,18,31128000000,imu_link,0.000619220769893,-0.374289789689,0.00188312690418,0.927309669816,0.0,0.0,0.0,0.0,0.0,0.0,0.0,0.0,0.0,0.00372945531633,-0.00877564420965,-0.00204814033497,0.0,0.0,0.0,0.0,0.0,0.0,0.0,0.0,0.0,6.48896440119,-0.0105732146712,7.10597748888,0.0,0.0,0.0,0.0,0.0,0.0,0.0,0.0,0.0
31132000000,19,31132000000,imu_link,0.000626603386827,-0.374306252799,0.00188202973287,0.927303021912,0.0,0.0,0.0,0.0,0.0,0.0,0.0,0.0,0.0,0.00320421322398,-0.00888461284851,-0.00187897127899,0.0,0.0,0.0,0.0,0.0,0.0,0.0,0.0,0.0,6.49054253193,-0.0107324375323,7.10606263373,0.0,0.0,0.0,0.0,0.0,0.0,0.0,0.0,0.0
31136000000,20,31136000000,imu_link,0.000633048768019,-0.374322779202,0.00188083671208,0.927296348895,0.0,0.0,0.0,0.0,0.0,0.0,0.0,0.0,0.0,0.00275167223537,-0.00891780649324,-0.00174796197439,0.0,0.0,0.0,0.0,0.0,0.0,0.0,0.0,0.0,6.49102270037,-0.0109337078161,7.10308747252,0.0,0.0,0.0,0.0,0.0,0.0,0.0,0.0,0.0
31140000000,21,31140000000,imu_link,0.000639024554785,-0.374339200669,0.00187956997696,0.927289718323,0.0,0.0,0.0,0.0,0.0,0.0,0.0,0.0,0.0,0.00252023440911,-0.00886079111202,-0.0016943226741,0.0,0.0,0.0,0.0,0.0,0.0,0.0,0.0,0.0,6.49202807419,-0.0111157021672,7.10089504313,0.0,0.0,0.0,0.0,0.0,0.0,0.0,0.0,0.0
31144000000,22,31144000000,imu_link,0.000644990981241,-0.374355295923,0.00187827086851,0.927283219141,0.0,0.0,0.0,0.0,0.0,0.0,0.0,0.0,0.0,0.00251009983574,-0.00868495307046,-0.00170780814497,0.0,0.0,0.0,0.0,0.0,0.0,0.0,0.0,0.0,6.49267691968,-0.0112060085265,7.09763571471,0.0,0.0,0.0,0.0,0.0,0.0,0.0,0.0,0.0
31148000000,23,31148000000,imu_link,0.000651188523673,-0.374371038014,0.00187699405501,0.927276861969,0.0,0.0,0.0,0.0,0.0,0.0,0.0,0.0,0.0,0.00262171380423,-0.00849484112272,-0.00174097828454,0.0,0.0,0.0,0.0,0.0,0.0,0.0,0.0,0.0,6.49412423998,-0.0111891750807,7.0974104488,0.0,0.0,0.0,0.0,0.0,0.0,0.0,0.0,0.0
31152000000,24,31152000000,imu_link,0.000657626878104,-0.374386596924,0.00187576451875,0.927270578137,0.0,0.0,0.0,0.0,0.0,0.0,0.0,0.0,0.0,0.00274236115247,-0.00839639355038,-0.00176426373031,0.0,0.0,0.0,0.0,0.0,0.0,0.0,0.0,0.0,6.49431500659,-0.0111144265076,7.09636122611,0.0,0.0,0.0,0.0,0.0,0.0,0.0,0.0,0.0
31156000000,25,31156000000,imu_link,0.000664337136774,-0.374402517764,0.00187456573145,0.927264147561,0.0,0.0,0.0,0.0,0.0,0.0,0.0,0.0,0.0,0.00287389035701,-0.00859191180656,-0.00180064943867,0.0,0.0,0.0,0.0,0.0,0.0,0.0,0.0,0.0,6.49586810637,-0.0110273605662,7.10101067359,0.0,0.0,0.0,0.0,0.0,0.0,0.0,0.0,0.0
31160000000,26,31160000000,imu_link,0.00067160625101,-0.374419343742,0.00187341128669,0.927257350635,0.0,0.0,0.0,0.0,0.0,0.0,0.0,0.0,0.0,0.00314056801898,-0.00908065294275,-0.00188406525374,0.0,0.0,0.0,0.0,0.0,0.0,0.0,0.0,0.0,6.49786851498,-0.0109832577324,7.10652533052,0.0,0.0,0.0,0.0,0.0,0.0,0.0,0.0,0.0
31164000000,27,31164000000,imu_link,0.000679703304245,-0.374437258041,0.00187231048352,0.927250113102,0.0,0.0,0.0,0.0,0.0,0.0,0.0,0.0,0.0,0.00353359502884,-0.00966847278887,-0.00201341547652,0.0,0.0,0.0,0.0,0.0,0.0,0.0,0.0,0.0,6.49764641694,-0.010879386404,7.10441446242,0.0,0.0,0.0,0.0,0.0,0.0,0.0,0.0,0.0
31168000000,28,31168000000,imu_link,0.000688967707518,-0.374456030436,0.00187127091741,0.927242527572,0.0,0.0,0.0,0.0,0.0,0.0,0.0,0.0,0.0,0.00408558742797,-0.0101325317478,-0.00220295671454,0.0,0.0,0.0,0.0,0.0,0.0,0.0,0.0,0.0,6.49789053056,-0.0107410410242,7.09979418377,0.0,0.0,0.0,0.0,0.0,0.0,0.0,0.0,0.0
31172000000,29,31172000000,imu_link,0.000699728815091,-0.374475205297,0.00187031592485,0.927234777667,0.0,0.0,0.0,0.0,0.0,0.0,0.0,0.0,0.0,0.00479500596946,-0.0103512696979,-0.00244367915773,0.0,0.0,0.0,0.0,0.0,0.0,0.0,0.0,0.0,6.50028701755,-0.0105657553817,7.09712167275,0.0,0.0,0.0,0.0,0.0,0.0,0.0,0.0,0.0
31176000000,30,31176000000,imu_link,0.000712114844706,-0.374494350621,0.00186948042625,0.927227037617,0.0,0.0,0.0,0.0,0.0,0.0,0.0,0.0,0.0,0.005570746021,-0.0103372089011,-0.00269254573327,0.0,0.0,0.0,0.0,0.0,0.0,0.0,0.0,0.0,6.50124919687,-0.0103756636782,7.09220500535,0.0,0.0,0.0,0.0,0.0,0.0,0.0,0.0,0.0
31180000000,31,31180000000,imu_link,0.000725867205174,-0.374513473202,0.00186873950034,0.927219304868,0.0,0.0,0.0,0.0,0.0,0.0,0.0,0.0,0.0,0.00622192260517,-0.0103265410616,-0.00290455706975,0.0,0.0,0.0,0.0,0.0,0.0,0.0,0.0,0.0,6.50103311226,-0.010137009869,7.08908896818,0.0,0.0,0.0,0.0,0.0,0.0,0.0,0.0,0.0
31184000000,32,31184000000,imu_link,0.000740297626735,-0.374532807175,0.00186800900573,0.927211485505,0.0,0.0,0.0,0.0,0.0,0.0,0.0,0.0,0.0,0.00653806551968,-0.0104413934506,-0.00302653487891,0.0,0.0,0.0,0.0,0.0,0.0,0.0,0.0,0.0,6.50305800281,-0.00983744487183,7.09273892186,0.0,0.0,0.0,0.0,0.0,0.0,0.0,0.0,0.0
31188000000,33,31188000000,imu_link,0.000754737993759,-0.374552676329,0.00186724252675,0.92720344932,0.0,0.0,0.0,0.0,0.0,0.0,0.0,0.0,0.0,0.00653551802343,-0.0107301328654,-0.00304467928131,0.0,0.0,0.0,0.0,0.0,0.0,0.0,0.0,0.0,6.50446704735,-0.00965320262481,7.09597980812,0.0,0.0,0.0,0.0,0.0,0.0,0.0,0.0,0.0
31192000000,34,31192000000,imu_link,0.000768760389641,-0.374573196599,0.00186643590401,0.927195149801,0.0,0.0,0.0,0.0,0.0,0.0,0.0,0.0,0.0,0.00633371938601,-0.0110809318838,-0.00298452232414,0.0,0.0,0.0,0.0,0.0,0.0,0.0,0.0,0.0,6.50499015253,-0.0095863638759,7.09560731736,0.0,0.0,0.0,0.0,0.0,0.0,0.0,0.0,0.0
31196000000,35,31196000000,imu_link,0.000782224523201,-0.374594392188,0.00186564788834,0.927186577138,0.0,0.0,0.0,0.0,0.0,0.0,0.0,0.0,0.0,0.0060778699524,-0.0114446364086,-0.00287082660061,0.0,0.0,0.0,0.0,0.0,0.0,0.0,0.0,0.0,6.50706740022,-0.00964386086228,7.09700220922,0.0,0.0,0.0,0.0,0.0,0.0,0.0,0.0,0.0
31200000000,36,31200000000,imu_link,0.000795259362133,-0.374616031839,0.00186495689246,0.927177824469,0.0,0.0,0.0,0.0,0.0,0.0,0.0,0.0,0.0,0.0058966795468,-0.0116837769469,-0.00274510160846,0.0,0.0,0.0,0.0,0.0,0.0,0.0,0.0,0.0,6.50878096065,-0.00974803081129,7.09500296387,0.0,0.0,0.0,0.0,0.0,0.0,0.0,0.0,0.0
31204000000,37,31204000000,imu_link,0.000808028938756,-0.374637751811,0.00186440925498,0.927169038518,0.0,0.0,0.0,0.0,0.0,0.0,0.0,0.0,0.0,0.0058004973994,-0.0117269420588,-0.00262889350911,0.0,0.0,0.0,0.0,0.0,0.0,0.0,0.0,0.0,6.50935002305,-0.00982468607502,7.09006114695,0.0,0.0,0.0,0.0,0.0,0.0,0.0,0.0,0.0
31208000000,38,31208000000,imu_link,0.000820627295668,-0.37465920075,0.00186399056436,0.927160361213,0.0,0.0,0.0,0.0,0.0,0.0,0.0,0.0,0.0,0.00574548553605,-0.0115807325098,-0.00253725383701,0.0,0.0,0.0,0.0,0.0,0.0,0.0,0.0,0.0,6.50946327799,-0.00983699807953,7.08454228746,0.0,0.0,0.0,0.0,0.0,0.0,0.0,0.0,0.0
31212000000,39,31212000000,imu_link,0.000832882733427,-0.374680067688,0.00186366133227,0.927151918485,0.0,0.0,0.0,0.0,0.0,0.0,0.0,0.0,0.0,0.00560371941389,-0.0112666290057,-0.00243200115908,0.0,0.0,0.0,0.0,0.0,0.0,0.0,0.0,0.0,6.50982447722,-0.00977927167657,7.07983510724,0.0,0.0,0.0,0.0,0.0,0.0,0.0,0.0,0.0
31216000000,40,31216000000,imu_link,0.000844421620323,-0.374700121959,0.00186336450529,0.927143804072,0.0,0.0,0.0,0.0,0.0,0.0,0.0,0.0,0.0,0.00527823497793,-0.0108277081744,-0.00228338462976,0.0,0.0,0.0,0.0,0.0,0.0,0.0,0.0,0.0,6.51187195165,-0.00971256760249,7.079018221,0.0,0.0,0.0,0.0,0.0,0.0,0.0,0.0,0.0
31220000000,41,31220000000,imu_link,0.000854929420837,-0.374719140942,0.00186303894253,0.927136108451,0.0,0.0,0.0,0.0,0.0,0.0,0.0,0.0,0.0,0.00479565639536,-0.010268368422,-0.00210435891958,0.0,0.0,0.0,0.0,0.0,0.0,0.0,0.0,0.0,6.51349091067,-0.00980714920796,7.07771124403,0.0,0.0,0.0,0.0,0.0,0.0,0.0,0.0,0.0
31224000000,42,31224000000,imu_link,0.000863995531996,-0.374737054402,0.0018626360876,0.9271288606,0.0,0.0,0.0,0.0,0.0,0.0,0.0,0.0,0.0,0.00411369224718,-0.00967067961098,-0.00187096448392,0.0,0.0,0.0,0.0,0.0,0.0,0.0,0.0,0.0,6.51371836434,-0.00996121175642,7.07539269571,0.0,0.0,0.0,0.0,0.0,0.0,0.0,0.0,0.0
31228000000,43,31228000000,imu_link,0.000871297539347,-0.374753802511,0.00186211636651,0.927122085201,0.0,0.0,0.0,0.0,0.0,0.0,0.0,0.0,0.0,0.00327490064355,-0.00904034930808,-0.00159554537772,0.0,0.0,0.0,0.0,0.0,0.0,0.0,0.0,0.0,6.51388344321,-0.0101194758873,7.07302949229,0.0,0.0,0.0,0.0,0.0,0.0,0.0,0.0,0.0
31232000000,44,31232000000,imu_link,0.000876712409389,-0.374769583742,0.00186143409289,0.927115702348,0.0,0.0,0.0,0.0,0.0,0.0,0.0,0.0,0.0,0.00237036792391,-0.00851690204507,-0.00131807915662,0.0,0.0,0.0,0.0,0.0,0.0,0.0,0.0,0.0,6.51406402472,-0.0103067265223,7.07283941239,0.0,0.0,0.0,0.0,0.0,0.0,0.0,0.0,0.0
31236000000,45,31236000000,imu_link,0.000880139149842,-0.374784818428,0.00186055023273,0.927109542386,0.0,0.0,0.0,0.0,0.0,0.0,0.0,0.0,0.0,0.00141139156516,-0.00822001789635,-0.00103942796261,0.0,0.0,0.0,0.0,0.0,0.0,0.0,0.0,0.0,6.5149528513,-0.0104884727803,7.07583672544,0.0,0.0,0.0,0.0,0.0,0.0,0.0,0.0,0.0
31240000000,46,31240000000,imu_link,0.000881793522149,-0.374799798066,0.00185950563232,0.927103487238,0.0,0.0,0.0,0.0,0.0,0.0,0.0,0.0,0.0,0.000559871490756,-0.00808057035627,-0.000782021280392,0.0,0.0,0.0,0.0,0.0,0.0,0.0,0.0,0.0,6.51644975546,-0.0107330684675,7.07891992085,0.0,0.0,0.0,0.0,0.0,0.0,0.0,0.0,0.0
31244000000,47,31244000000,imu_link,0.000882007725493,-0.374814396374,0.00185838543237,0.927097587494,0.0,0.0,0.0,0.0,0.0,0.0,0.0,0.0,0.0,-0.000121602663958,-0.00787337551043,-0.00054749067531,0.0,0.0,0.0,0.0,0.0,0.0,0.0,0.0,0.0,6.51743955497,-0.0109765273576,7.07672856626,0.0,0.0,0.0,0.0,0.0,0.0,0.0,0.0,0.0
31248000000,48,31248000000,imu_link,0.000880966937289,-0.374828231922,0.00185724868086,0.927091997096,0.0,0.0,0.0,0.0,0.0,0.0,0.0,0.0,0.0,-0.000705882035561,-0.00746066653502,-0.000320592503868,0.0,0.0,0.0,0.0,0.0,0.0,0.0,0.0,0.0,6.51875247978,-0.0111268318008,7.07326372687,0.0,0.0,0.0,0.0,0.0,0.0,0.0,0.0,0.0
31252000000,49,31252000000,imu_link,0.000878480132581,-0.374841092013,0.0018561010444,0.927086802247,0.0,0.0,0.0,0.0,0.0,0.0,0.0,0.0,0.0,-0.00137748559368,-0.00693302827389,-5.54312624375e-05,0.0,0.0,0.0,0.0,0.0,0.0,0.0,0.0,0.0,6.51903207148,-0.0111996841478,7.06967162908,0.0,0.0,0.0,0.0,0.0,0.0,0.0,0.0,0.0
31256000000,50,31256000000,imu_link,0.000874404976461,-0.374852992387,0.00185494670824,0.927081996744,0.0,0.0,0.0,0.0,0.0,0.0,0.0,0.0,0.0,-0.00211429142069,-0.0064137149615,0.000238369945888,0.0,0.0,0.0,0.0,0.0,0.0,0.0,0.0,0.0,6.51917406233,-0.0112859340957,7.06781280476,0.0,0.0,0.0,0.0,0.0,0.0,0.0,0.0,0.0
31260000000,51,31260000000,imu_link,0.000868992857338,-0.37486416965,0.00185379571327,0.927077484683,0.0,0.0,0.0,0.0,0.0,0.0,0.0,0.0,0.0,-0.00273285998551,-0.00602228293276,0.000489912709411,0.0,0.0,0.0,0.0,0.0,0.0,0.0,0.0,0.0,6.52068785464,-0.0114383849242,7.07024505028,0.0,0.0,0.0,0.0,0.0,0.0,0.0,0.0,0.0
31264000000,52,31264000000,imu_link,0.000862859586087,-0.374874885982,0.00185265313871,0.92707315947,0.0,0.0,0.0,0.0,0.0,0.0,0.0,0.0,0.0,-0.00306521762872,-0.00577293005046,0.000628609483161,0.0,0.0,0.0,0.0,0.0,0.0,0.0,0.0,0.0,6.52130720929,-0.0116392021548,7.07114453304,0.0,0.0,0.0,0.0,0.0,0.0,0.0,0.0,0.0
31268000000,53,31268000000,imu_link,0.000856608786994,-0.374885392037,0.00185150139913,0.927068919229,0.0,0.0,0.0,0.0,0.0,0.0,0.0,0.0,0.0,-0.00312125582567,-0.00565942741836,0.000646220847943,0.0,0.0,0.0,0.0,0.0,0.0,0.0,0.0,0.0,6.52302391264,-0.0117164628959,7.07427385595,0.0,0.0,0.0,0.0,0.0,0.0,0.0,0.0,0.0
31272000000,54,31272000000,imu_link,0.000850435942227,-0.374896043719,0.0018502936365,0.927064619957,0.0,0.0,0.0,0.0,0.0,0.0,0.0,0.0,0.0,-0.00309573195188,-0.00573809162653,0.00060575728283,0.0,0.0,0.0,0.0,0.0,0.0,0.0,0.0,0.0,6.5240718493,-0.0116376557698,7.07688112027,0.0,0.0,0.0,0.0,0.0,0.0,0.0,0.0,0.0
31276000000,55,31276000000,imu_link,0.000844318717669,-0.37490716806,0.00184899712734,0.927060129481,0.0,0.0,0.0,0.0,0.0,0.0,0.0,0.0,0.0,-0.00308694152577,-0.00599311425368,0.000554572374451,0.0,0.0,0.0,0.0,0.0,0.0,0.0,0.0,0.0,6.52397000131,-0.011476196884,7.07687294545,0.0,0.0,0.0,0.0,0.0,0.0,0.0,0.0,0.0
31280000000,56,31280000000,imu_link,0.000838341628247,-0.37491887811,0.00184762298149,0.927055401963,0.0,0.0,0.0,0.0,0.0,0.0,0.0,0.0,0.0,-0.00303697936992,-0.00630920459097,0.000492783010963,0.0,0.0,0.0,0.0,0.0,0.0,0.0,0.0,0.0,6.5235441946,-0.0113436287344,7.07437210162,0.0,0.0,0.0,0.0,0.0,0.0,0.0,0.0,0.0
31284000000,57,31284000000,imu_link,0.000832792291997,-0.374931152621,0.00184619331813,0.927050445673,0.0,0.0,0.0,0.0,0.0,0.0,0.0,0.0,0.0,-0.00284953676853,-0.00661415209998,0.00038731068281,0.0,0.0,0.0,0.0,0.0,0.0,0.0,0.0,0.0,6.52381210743,-0.011237708084,7.07205502072,0.0,0.0,0.0,0.0,0.0,0.0,0.0,0.0,0.0
31288000000,58,31288000000,imu_link,0.000828014745576,-0.374943931986,0.00184472476704,0.927045284357,0.0,0.0,0.0,0.0,0.0,0.0,0.0,0.0,0.0,-0.00249946348366,-0.00688732846801,0.000225000693491,0.0,0.0,0.0,0.0,0.0,0.0,0.0,0.0,0.0,6.52521907228,-0.0111106433298,7.07154770262,0.0,0.0,0.0,0.0,0.0,0.0,0.0,0.0,0.0
31292000000,59,31292000000,imu_link,0.000824161119288,-0.374957186028,0.00184323377303,0.927039930043,0.0,0.0,0.0,0.0,0.0,0.0,0.0,0.0,0.0,-0.00207577092162,-0.00714439521925,4.17633027615e-05,0.0,0.0,0.0,0.0,0.0,0.0,0.0,0.0,0.0,6.52558053752,-0.0108972970696,7.06890921102,0.0,0.0,0.0,0.0,0.0,0.0,0.0,0.0,0.0
31296000000,60,31296000000,imu_link,0.000821034681215,-0.374970722912,0.00184167214622,0.927034460581,0.0,0.0,0.0,0.0,0.0,0.0,0.0,0.0,0.0,-0.00175216002493,-0.00729778516376,-0.000127085956686,0.0,0.0,0.0,0.0,0.0,0.0,0.0,0.0,0.0,6.52715938528,-0.0106254115332,7.06731955847,0.0,0.0,0.0,0.0,0.0,0.0,0.0,0.0,0.0
31300000000,61,31300000000,imu_link,0.000818222358034,-0.374984285415,0.0018399803417,0.927028980494,0.0,0.0,0.0,0.0,0.0,0.0,0.0,0.0,0.0,-0.00163098800545,-0.00731199453328,-0.000246297213876,0.0,0.0,0.0,0.0,0.0,0.0,0.0,0.0,0.0,6.52875354916,-0.0103464119814,7.06542505687,0.0,0.0,0.0,0.0,0.0,0.0,0.0,0.0,0.0
31304000000,62,31304000000,imu_link,0.000815396586639,-0.374997675829,0.00183811031755,0.927023570144,0.0,0.0,0.0,0.0,0.0,0.0,0.0,0.0,0.0,-0.00167050643647,-0.00721921442633,-0.000326517719891,0.0,0.0,0.0,0.0,0.0,0.0,0.0,0.0,0.0,6.52992210731,-0.0101347661213,7.06331441576,0.0,0.0,0.0,0.0,0.0,0.0,0.0,0.0,0.0
31308000000,63,31308000000,imu_link,0.000812287828778,-0.375010922055,0.00183607821601,0.927018218453,0.0,0.0,0.0,0.0,0.0,0.0,0.0,0.0,0.0,-0.0018319547212,-0.00714118925271,-0.000348695562866,0.0,0.0,0.0,0.0,0.0,0.0,0.0,0.0,0.0,6.53026773601,-0.00997511873378,7.0615487565,0.0,0.0,0.0,0.0,0.0,0.0,0.0,0.0,0.0
31312000000,64,31312000000,imu_link,0.000808801321817,-0.375024204066,0.0018339324831,0.927012852606,0.0,0.0,0.0,0.0,0.0,0.0,0.0,0.0,0.0,-0.00202837847387,-0.00716012943998,-0.000330507190089,0.0,0.0,0.0,0.0,0.0,0.0,0.0,0.0,0.0,6.53056439269,-0.00991233172023,7.06103381872,0.0,0.0,0.0,0.0,0.0,0.0,0.0,0.0,0.0
31316000000,65,31316000000,imu_link,0.000805119667267,-0.375037693971,0.00183174234626,0.927007402669,0.0,0.0,0.0,0.0,0.0,0.0,0.0,0.0,0.0,-0.00212731353527,-0.00727209651327,-0.000314334981524,0.0,0.0,0.0,0.0,0.0,0.0,0.0,0.0,0.0,6.53204910251,-0.00989613880167,7.06264665963,0.0,0.0,0.0,0.0,0.0,0.0,0.0,0.0,0.0
31320000000,66,31320000000,imu_link,0.000801363676631,-0.375051501738,0.0018295035283,0.927001824042,0.0,0.0,0.0,0.0,0.0,0.0,0.0,0.0,0.0,-0.00217113652882,-0.00744351029704,-0.000322713618395,0.0,0.0,0.0,0.0,0.0,0.0,0.0,0.0,0.0,6.53309505679,-0.00978378139145,7.06310134692,0.0,0.0,0.0,0.0,0.0,0.0,0.0,0.0,0.0
31324000000,67,31324000000,imu_link,0.00079780781447,-0.37506560528,0.00182719274199,0.926996125453,0.0,0.0,0.0,0.0,0.0,0.0,0.0,0.0,0.0,-0.00209209521291,-0.00760330984143,-0.000393372016853,0.0,0.0,0.0,0.0,0.0,0.0,0.0,0.0,0.0,6.53393278793,-0.00968234834249,7.06206360008,0.0,0.0,0.0,0.0,0.0,0.0,0.0,0.0,0.0
31328000000,68,31328000000,imu_link,0.000794573611751,-0.375080123595,0.00182475817792,0.926990258738,0.0,0.0,0.0,0.0,0.0,0.0,0.0,0.0,0.0,-0.00196653094019,-0.00782742879256,-0.000510745403172,0.0,0.0,0.0,0.0,0.0,0.0,0.0,0.0,0.0,6.53498758059,-0.00952760748147,7.06273553232,0.0,0.0,0.0,0.0,0.0,0.0,0.0,0.0,0.0
31332000000,69,31332000000,imu_link,0.000791682864108,-0.375095158751,0.0018221599603,0.926984182634,0.0,0.0,0.0,0.0,0.0,0.0,0.0,0.0,0.0,-0.00183842115345,-0.0081066289657,-0.000650613245533,0.0,0.0,0.0,0.0,0.0,0.0,0.0,0.0,0.0,6.53585835854,-0.00934810208698,7.06307220362,0.0,0.0,0.0,0.0,0.0,0.0,0.0,0.0,0.0
31336000000,70,31336000000,imu_link,0.000788922546688,-0.375110877891,0.00181933678807,0.926977829779,0.0,0.0,0.0,0.0,0.0,0.0,0.0,0.0,0.0,-0.00182067108281,-0.00847576255195,-0.000778816904224,0.0,0.0,0.0,0.0,0.0,0.0,0.0,0.0,0.0,6.53747594934,-0.00913443972479,7.06493326988,0.0,0.0,0.0,0.0,0.0,0.0,0.0,0.0,0.0
31340000000,71,31340000000,imu_link,0.000786063074864,-0.375127291155,0.00181628000381,0.926971196242,0.0,0.0,0.0,0.0,0.0,0.0,0.0,0.0,0.0,-0.0019109639594,-0.00885012613752,-0.000867967409051,0.0,0.0,0.0,0.0,0.0,0.0,0.0,0.0,0.0,6.53834393214,-0.00896437687858,7.06421398782,0.0,0.0,0.0,0.0,0.0,0.0,0.0,0.0,0.0
31344000000,72,31344000000,imu_link,0.000782979810328,-0.375144342966,0.00181300662098,0.926964304539,0.0,0.0,0.0,0.0,0.0,0.0,0.0,0.0,0.0,-0.00205579310079,-0.00919438869305,-0.000925896930462,0.0,0.0,0.0,0.0,0.0,0.0,0.0,0.0,0.0,6.53861609267,-0.00884533905983,7.06178153098,0.0,0.0,0.0,0.0,0.0,0.0,0.0,0.0,0.0
31348000000,73,31348000000,imu_link,0.000779781227315,-0.375161997172,0.00180952481073,0.92695716915,0.0,0.0,0.0,0.0,0.0,0.0,0.0,0.0,0.0,-0.00214878701219,-0.0095192731256,-0.00100041205173,0.0,0.0,0.0,0.0,0.0,0.0,0.0,0.0,0.0,6.5383137148,-0.00878076372099,7.05815680914,0.0,0.0,0.0,0.0,0.0,0.0,0.0,0.0,0.0
31352000000,74,31352000000,imu_link,0.000776555328433,-0.375180122234,0.00180583915727,0.926949843188,0.0,0.0,0.0,0.0,0.0,0.0,0.0,0.0,0.0,-0.00220003615612,-0.00977330788226,-0.00108940906907,0.0,0.0,0.0,0.0,0.0,0.0,0.0,0.0,0.0,6.53968873068,-0.00869551825926,7.05662992134,0.0,0.0,0.0,0.0,0.0,0.0,0.0,0.0,0.0
31356000000,75,31356000000,imu_link,0.000773388383453,-0.375198479363,0.00180197393235,0.926942423155,0.0,0.0,0.0,0.0,0.0,0.0,0.0,0.0,0.0,-0.00220657133342,-0.00989863454443,-0.00118352005847,0.0,0.0,0.0,0.0,0.0,0.0,0.0,0.0,0.0,6.5419123517,-0.00861039369117,7.05578173025,0.0,0.0,0.0,0.0,0.0,0.0,0.0,0.0,0.0
31360000000,76,31360000000,imu_link,0.000770410820897,-0.375216828491,0.00179797114903,0.92693500602,0.0,0.0,0.0,0.0,0.0,0.0,0.0,0.0,0.0,-0.00214459779553,-0.00989460644983,-0.00128280812202,0.0,0.0,0.0,0.0,0.0,0.0,0.0,0.0,0.0,6.54273946421,-0.00848885323114,7.05281016749,0.0,0.0,0.0,0.0,0.0,0.0,0.0,0.0,0.0
31364000000,77,31364000000,imu_link,0.000767802797996,-0.375235247354,0.00179387507038,0.926927560079,0.0,0.0,0.0,0.0,0.0,0.0,0.0,0.0,0.0,-0.00199088275734,-0.00993269881382,-0.00139532346335,0.0,0.0,0.0,0.0,0.0,0.0,0.0,0.0,0.0,6.54288339295,-0.0083193675712,7.05141100065,0.0,0.0,0.0,0.0,0.0,0.0,0.0,0.0,0.0
31368000000,78,31368000000,imu_link,0.000765795920849,-0.375253930338,0.00178975049662,0.92692000632,0.0,0.0,0.0,0.0,0.0,0.0,0.0,0.0,0.0,-0.00171781516712,-0.0100758882827,-0.00152111734916,0.0,0.0,0.0,0.0,0.0,0.0,0.0,0.0,0.0,6.54346138092,-0.00814967811911,7.05188069047,0.0,0.0,0.0,0.0,0.0,0.0,0.0,0.0,0.0
31372000000,79,31372000000,imu_link,0.000764368971438,-0.375273129851,0.00178562540888,0.926912242499,0.0,0.0,0.0,0.0,0.0,0.0,0.0,0.0,0.0,-0.00144952008972,-0.0103552110667,-0.00162977988311,0.0,0.0,0.0,0.0,0.0,0.0,0.0,0.0,0.0,6.54413110253,-0.00791689860189,7.05312108324,0.0,0.0,0.0,0.0,0.0,0.0,0.0,0.0,0.0
31376000000,80,31376000000,imu_link,0.000763256064021,-0.375292854206,0.00178149475729,0.926904265444,0.0,0.0,0.0,0.0,0.0,0.0,0.0,0.0,0.0,-0.00130540647931,-0.0106387453794,-0.00169089328322,0.0,0.0,0.0,0.0,0.0,0.0,0.0,0.0,0.0,6.54529366229,-0.00765710806001,7.05325854275,0.0,0.0,0.0,0.0,0.0,0.0,0.0,0.0,0.0
31380000000,81,31380000000,imu_link,0.000762211316723,-0.375312958188,0.00177735056576,0.926896134135,0.0,0.0,0.0,0.0,0.0,0.0,0.0,0.0,0.0,-0.00127663753071,-0.0108436951174,-0.00170967611906,0.0,0.0,0.0,0.0,0.0,0.0,0.0,0.0,0.0,6.54568917637,-0.00745598711911,7.05026272118,0.0,0.0,0.0,0.0,0.0,0.0,0.0,0.0,0.0
31384000000,82,31384000000,imu_link,0.000761343276396,-0.375333218843,0.00177317393357,0.926887938773,0.0,0.0,0.0,0.0,0.0,0.0,0.0,0.0,0.0,-0.00120094554836,-0.0109284944936,-0.00175775425961,0.0,0.0,0.0,0.0,0.0,0.0,0.0,0.0,0.0,6.54615447786,-0.00734521263791,7.04678325757,0.0,0.0,0.0,0.0,0.0,0.0,0.0,0.0,0.0
31388000000,83,31388000000,imu_link,0.000760948435789,-0.37535349771,0.00176896249902,0.926879735179,0.0,0.0,0.0,0.0,0.0,0.0,0.0,0.0,0.0,-0.000988188244625,-0.0109389123041,-0.00186267275912,0.0,0.0,0.0,0.0,0.0,0.0,0.0,0.0,0.0,6.54745230454,-0.0072518363711,7.04579816266,0.0,0.0,0.0,0.0,0.0,0.0,0.0,0.0,0.0
31392000000,84,31392000000,imu_link,0.000761182262153,-0.37537355328,0.00176469464667,0.926871621074,0.0,0.0,0.0,0.0,0.0,0.0,0.0,0.0,0.0,-0.000707263762098,-0.0108192103386,-0.00200696929676,0.0,0.0,0.0,0.0,0.0,0.0,0.0,0.0,0.0,6.54894098556,-0.00709520677704,7.04430729969,0.0,0.0,0.0,0.0,0.0,0.0,0.0,0.0,0.0
31396000000,85,31396000000,imu_link,0.000761991724383,-0.375392953518,0.00176035130929,0.926863771533,0.0,0.0,0.0,0.0,0.0,0.0,0.0,0.0,0.0,-0.000454183491671,-0.0104663876291,-0.00215047385852,0.0,0.0,0.0,0.0,0.0,0.0,0.0,0.0,0.0,6.5506141929,-0.00688242125102,7.04139779622,0.0,0.0,0.0,0.0,0.0,0.0,0.0,0.0,0.0
31400000000,86,31400000000,imu_link,0.000763039361927,-0.375411378082,0.00175587771943,0.926856316735,0.0,0.0,0.0,0.0,0.0,0.0,0.0,0.0,0.0,-0.000367545018336,-0.00994039632785,-0.00225626084699,0.0,0.0,0.0,0.0,0.0,0.0,0.0,0.0,0.0,6.55211313433,-0.00662394756635,7.03913091991,0.0,0.0,0.0,0.0,0.0,0.0,0.0,0.0,0.0
31404000000,87,31404000000,imu_link,0.000763939836764,-0.375428631176,0.00175119406742,0.92684933652,0.0,0.0,0.0,0.0,0.0,0.0,0.0,0.0,0.0,-0.00047432680496,-0.00930837296104,-0.00232684987999,0.0,0.0,0.0,0.0,0.0,0.0,0.0,0.0,0.0,6.55264737235,-0.00640600200716,7.03661278422,0.0,0.0,0.0,0.0,0.0,0.0,0.0,0.0,0.0
31408000000,88,31408000000,imu_link,0.000764433383809,-0.375444933212,0.00174624487272,0.926842741999,0.0,0.0,0.0,0.0,0.0,0.0,0.0,0.0,0.0,-0.000712067926322,-0.00879497442848,-0.00237422372796,0.0,0.0,0.0,0.0,0.0,0.0,0.0,0.0,0.0,6.55265416598,-0.00626780906006,7.03686257846,0.0,0.0,0.0,0.0,0.0,0.0,0.0,0.0,0.0
31412000000,89,31412000000,imu_link,0.000764688921964,-0.375460742429,0.0017410610284,0.926836347395,0.0,0.0,0.0,0.0,0.0,0.0,0.0,0.0,0.0,-0.000866061458379,-0.00852894436432,-0.00243864867614,0.0,0.0,0.0,0.0,0.0,0.0,0.0,0.0,0.0,6.554525373,-0.00622860022826,7.04240030028,0.0,0.0,0.0,0.0,0.0,0.0,0.0,0.0,0.0
31416000000,90,31416000000,imu_link,0.000765245570532,-0.375476415255,0.00173572339544,0.926830007742,0.0,0.0,0.0,0.0,0.0,0.0,0.0,0.0,0.0,-0.000755294494115,-0.00845574286785,-0.0025665446784,0.0,0.0,0.0,0.0,0.0,0.0,0.0,0.0,0.0,6.55593773348,-0.00622522091898,7.04602735743,0.0,0.0,0.0,0.0,0.0,0.0,0.0,0.0,0.0
31420000000,91,31420000000,imu_link,0.000766436705373,-0.375491954565,0.00173028061085,0.926823721514,0.0,0.0,0.0,0.0,0.0,0.0,0.0,0.0,0.0,-0.000480909585814,-0.00838443116928,-0.00273448829339,0.0,0.0,0.0,0.0,0.0,0.0,0.0,0.0,0.0,6.55739400102,-0.00610234622613,7.04664879109,0.0,0.0,0.0,0.0,0.0,0.0,0.0,0.0,0.0
31424000000,92,31424000000,imu_link,0.000768225476751,-0.375507234198,0.00172472894908,0.926817539867,0.0,0.0,0.0,0.0,0.0,0.0,0.0,0.0,0.0,-0.000224214396341,-0.00824501718596,-0.00289733711206,0.0,0.0,0.0,0.0,0.0,0.0,0.0,0.0,0.0,6.5569153265,-0.0058691425597,7.04242898527,0.0,0.0,0.0,0.0,0.0,0.0,0.0,0.0,0.0
31428000000,93,31428000000,imu_link,0.000770407057711,-0.375522133454,0.00171906624962,0.926811511889,0.0,0.0,0.0,0.0,0.0,0.0,0.0,0.0,0.0,-6.27617241615e-05,-0.00804027678951,-0.00302282300387,0.0,0.0,0.0,0.0,0.0,0.0,0.0,0.0,0.0,6.55718290883,-0.00562157700535,7.03953602238,0.0,0.0,0.0,0.0,0.0,0.0,0.0,0.0,0.0
31432000000,94,31432000000,imu_link,0.000772693563766,-0.375536637052,0.00171330565426,0.926805644005,0.0,0.0,0.0,0.0,0.0,0.0,0.0,0.0,0.0,-3.22414550503e-05,-0.00782699550406,-0.00308817938222,0.0,0.0,0.0,0.0,0.0,0.0,0.0,0.0,0.0,6.5577957116,-0.00539326801158,7.03847602366,0.0,0.0,0.0,0.0,0.0,0.0,0.0,0.0,0.0
31436000000,95,31436000000,imu_link,0.000774937723458,-0.375550724837,0.00170750574944,0.926799944416,0.0,0.0,0.0,0.0,0.0,0.0,0.0,0.0,0.0,-5.89547649517e-05,-0.00760268505951,-0.00309874901442,0.0,0.0,0.0,0.0,0.0,0.0,0.0,0.0,0.0,6.55904562657,-0.00523468451727,7.038263994,0.0,0.0,0.0,0.0,0.0,0.0,0.0,0.0,0.0
31440000000,96,31440000000,imu_link,0.000776809780804,-0.375564208327,0.00170168931239,0.926794489757,0.0,0.0,0.0,0.0,0.0,0.0,0.0,0.0,0.0,-0.000234070311178,-0.00727635154835,-0.00303698165123,0.0,0.0,0.0,0.0,0.0,0.0,0.0,0.0,0.0,6.56051265561,-0.00507144352745,7.03708145256,0.0,0.0,0.0,0.0,0.0,0.0,0.0,0.0,0.0
31444000000,97,31444000000,imu_link,0.000778019860449,-0.375577051297,0.00169587101885,0.926789294956,0.0,0.0,0.0,0.0,0.0,0.0,0.0,0.0,0.0,-0.000540733515139,-0.00693017670167,-0.00291400425658,0.0,0.0,0.0,0.0,0.0,0.0,0.0,0.0,0.0,6.56058176474,-0.00496401876783,7.03446632791,0.0,0.0,0.0,0.0,0.0,0.0,0.0,0.0,0.0
31448000000,98,31448000000,imu_link,0.000778281903561,-0.375589546097,0.00169004172215,0.926784241827,0.0,0.0,0.0,0.0,0.0,0.0,0.0,0.0,0.0,-0.000981874724818,-0.00674143293201,-0.00274132825049,0.0,0.0,0.0,0.0,0.0,0.0,0.0,0.0,0.0,6.56139152716,-0.00491843794663,7.03632639002,0.0,0.0,0.0,0.0,0.0,0.0,0.0,0.0,0.0
31452000000,99,31452000000,imu_link,0.000777459937163,-0.375602038353,0.0016842258071,0.926779190381,0.0,0.0,0.0,0.0,0.0,0.0,0.0,0.0,0.0,-0.00148168169375,-0.00673901696367,-0.00253155839511,0.0,0.0,0.0,0.0,0.0,0.0,0.0,0.0,0.0,6.56235055613,-0.00492720766276,7.03904491794,0.0,0.0,0.0,0.0,0.0,0.0,0.0,0.0,0.0
31456000000,100,31456000000,imu_link,0.000775595975443,-0.375614815038,0.00167844101268,0.926774024242,0.0,0.0,0.0,0.0,0.0,0.0,0.0,0.0,0.0,-0.00195888193257,-0.00689146808659,-0.0023212424799,0.0,0.0,0.0,0.0,0.0,0.0,0.0,0.0,0.0,6.56274566834,-0.00493957685685,7.04006267398,0.0,0.0,0.0,0.0,0.0,0.0,0.0,0.0,0.0
31460000000,101,31460000000,imu_link,0.000772705089292,-0.375627852361,0.00167269369813,0.926768753009,0.0,0.0,0.0,0.0,0.0,0.0,0.0,0.0,0.0,-0.00242788435607,-0.00703110533518,-0.00211082150828,0.0,0.0,0.0,0.0,0.0,0.0,0.0,0.0,0.0,6.5626226672,-0.00494374026197,7.03741388224,0.0,0.0,0.0,0.0,0.0,0.0,0.0,0.0,0.0
31464000000,102,31464000000,imu_link,0.000768871250014,-0.375640912462,0.00166699013508,0.926763472989,0.0,0.0,0.0,0.0,0.0,0.0,0.0,0.0,0.0,-0.00285663261934,-0.00704250522554,-0.00191343187156,0.0,0.0,0.0,0.0,0.0,0.0,0.0,0.0,0.0,6.56270645198,-0.00495904932318,7.03317771483,0.0,0.0,0.0,0.0,0.0,0.0,0.0,0.0,0.0
31468000000,103,31468000000,imu_link,0.000764320435151,-0.375653785183,0.00166133822411,0.926758269155,0.0,0.0,0.0,0.0,0.0,0.0,0.0,0.0,0.0,-0.00317903780169,-0.00694075023791,-0.00175497009181,0.0,0.0,0.0,0.0,0.0,0.0,0.0,0.0,0.0,6.56304161199,-0.00498776955978,7.02983229977,0.0,0.0,0.0,0.0,0.0,0.0,0.0,0.0,0.0
31472000000,104,31472000000,imu_link,0.00075935541627,-0.375666477562,0.00165574818703,0.926753138389,0.0,0.0,0.0,0.0,0.0,0.0,0.0,0.0,0.0,-0.00335922783914,-0.00684309123261,-0.00164862998622,0.0,0.0,0.0,0.0,0.0,0.0,0.0,0.0,0.0,6.56421278393,-0.00499720458312,7.02995730698,0.0,0.0,0.0,0.0,0.0,0.0,0.0,0.0,0.0
31476000000,105,31476000000,imu_link,0.000754198771133,-0.375679271214,0.00165021991784,0.926747966352,0.0,0.0,0.0,0.0,0.0,0.0,0.0,0.0,0.0,-0.00343648906553,-0.00689758888724,-0.00158394179475,0.0,0.0,0.0,0.0,0.0,0.0,0.0,0.0,0.0,6.56594253695,-0.0049608841867,7.03348223488,0.0,0.0,0.0,0.0,0.0,0.0,0.0,0.0,0.0
31480000000,106,31480000000,imu_link,0.000748939104268,-0.37569224934,0.00164472331327,0.926742719292,0.0,0.0,0.0,0.0,0.0,0.0,0.0,0.0,0.0,-0.00347840270282,-0.00699706462062,-0.00154978620078,0.0,0.0,0.0,0.0,0.0,0.0,0.0,0.0,0.0,6.56700836197,-0.00486621716666,7.03388510133,0.0,0.0,0.0,0.0,0.0,0.0,0.0,0.0,0.0
31484000000,107,31484000000,imu_link,0.000743598580798,-0.375705458867,0.00163922043221,0.926737378223,0.0,0.0,0.0,0.0,0.0,0.0,0.0,0.0,0.0,-0.00351720344363,-0.00712188462677,-0.00153734198296,0.0,0.0,0.0,0.0,0.0,0.0,0.0,0.0,0.0,6.5669898895,-0.00475316311844,7.0319595257,0.0,0.0,0.0,0.0,0.0,0.0,0.0,0.0,0.0
31488000000,108,31488000000,imu_link,0.000738299846543,-0.375719031071,0.00163365118844,0.926731889917,0.0,0.0,0.0,0.0,0.0,0.0,0.0,0.0,0.0,-0.00351054855888,-0.00731765527105,-0.0015756870877,0.0,0.0,0.0,0.0,0.0,0.0,0.0,0.0,0.0,6.56835563098,-0.00465861189153,7.03338273802,0.0,0.0,0.0,0.0,0.0,0.0,0.0,0.0,0.0
31492000000,109,31492000000,imu_link,0.000733325052353,-0.37573306142,0.00162797452994,0.926726215497,0.0,0.0,0.0,0.0,0.0,0.0,0.0,0.0,0.0,-0.00338093016425,-0.00756521168449,-0.00168599349233,0.0,0.0,0.0,0.0,0.0,0.0,0.0,0.0,0.0,6.5698593493,-0.00455453554927,7.03465849696,0.0,0.0,0.0,0.0,0.0,0.0,0.0,0.0,0.0
31496000000,110,31496000000,imu_link,0.000729135443083,-0.375747662615,0.0016221821019,0.926720308899,0.0,0.0,0.0,0.0,0.0,0.0,0.0,0.0,0.0,-0.00303923318948,-0.00787402077046,-0.00188674848982,0.0,0.0,0.0,0.0,0.0,0.0,0.0,0.0,0.0,6.57157604137,-0.00441315967039,7.03690045511,0.0,0.0,0.0,0.0,0.0,0.0,0.0,0.0,0.0
31500000000,111,31500000000,imu_link,0.000726211047399,-0.375762973265,0.00161632069733,0.92671411344,0.0,0.0,0.0,0.0,0.0,0.0,0.0,0.0,0.0,-0.00246641263707,-0.00825807474286,-0.00215591705656,0.0,0.0,0.0,0.0,0.0,0.0,0.0,0.0,0.0,6.57293298204,-0.00417270749384,7.0385019771,0.0,0.0,0.0,0.0,0.0,0.0,0.0,0.0,0.0
31504000000,112,31504000000,imu_link,0.000724706832187,-0.375778880536,0.00161041297439,0.926707674681,0.0,0.0,0.0,0.0,0.0,0.0,0.0,0.0,0.0,-0.00181745817874,-0.00858139908864,-0.00244379135591,0.0,0.0,0.0,0.0,0.0,0.0,0.0,0.0,0.0,6.57324204643,-0.00384604544966,7.03574051163,0.0,0.0,0.0,0.0,0.0,0.0,0.0,0.0,0.0
31508000000,113,31508000000,imu_link,0.000724570905151,-0.375794979082,0.00160446309184,0.926701157004,0.0,0.0,0.0,0.0,0.0,0.0,0.0,0.0,0.0,-0.00119150336656,-0.00868597263369,-0.00272028021686,0.0,0.0,0.0,0.0,0.0,0.0,0.0,0.0,0.0,6.57390894535,-0.00348089466461,7.03112614626,0.0,0.0,0.0,0.0,0.0,0.0,0.0,0.0,0.0
31512000000,114,31512000000,imu_link,0.000725443216759,-0.375810808183,0.0015984528735,0.926694747548,0.0,0.0,0.0,0.0,0.0,0.0,0.0,0.0,0.0,-0.000735495402994,-0.00854162106544,-0.002937866789,0.0,0.0,0.0,0.0,0.0,0.0,0.0,0.0,0.0,6.57462416564,-0.00309003043863,7.02636717438,0.0,0.0,0.0,0.0,0.0,0.0,0.0,0.0,0.0
31516000000,115,31516000000,imu_link,0.000726666016912,-0.375826187921,0.00159234503918,0.926688519874,0.0,0.0,0.0,0.0,0.0,0.0,0.0,0.0,0.0,-0.000591146815586,-0.00829956731298,-0.0030492638602,0.0,0.0,0.0,0.0,0.0,0.0,0.0,0.0,0.0,6.57739239318,-0.00270317710219,7.02801372222,0.0,0.0,0.0,0.0,0.0,0.0,0.0,0.0,0.0
31520000000,116,31520000000,imu_link,0.000727715082486,-0.375841247824,0.00158609773116,0.926682421954,0.0,0.0,0.0,0.0,0.0,0.0,0.0,0.0,0.0,-0.000697647173035,-0.00812690363137,-0.00308146071499,0.0,0.0,0.0,0.0,0.0,0.0,0.0,0.0,0.0,6.57932209132,-0.00244719138252,7.0308642704,0.0,0.0,0.0,0.0,0.0,0.0,0.0,0.0,0.0
31524000000,117,31524000000,imu_link,0.000728385497006,-0.375856055736,0.00157970858908,0.926676426452,0.0,0.0,0.0,0.0,0.0,0.0,0.0,0.0,0.0,-0.000899582779402,-0.00799065081271,-0.00307619484542,0.0,0.0,0.0,0.0,0.0,0.0,0.0,0.0,0.0,6.57843609521,-0.00232456647221,7.02772627871,0.0,0.0,0.0,0.0,0.0,0.0,0.0,0.0,0.0
31528000000,118,31528000000,imu_link,0.000728711145441,-0.375870656746,0.00157317479782,0.926670515069,0.0,0.0,0.0,0.0,0.0,0.0,0.0,0.0,0.0,-0.00108637693022,-0.00787875741632,-0.00307856692364,0.0,0.0,0.0,0.0,0.0,0.0,0.0,0.0,0.0,6.5781951459,-0.00226700671574,7.02571228671,0.0,0.0,0.0,0.0,0.0,0.0,0.0,0.0,0.0
31532000000,119,31532000000,imu_link,0.000728780428381,-0.37588507499,0.00156645282828,0.926664678028,0.0,0.0,0.0,0.0,0.0,0.0,0.0,0.0,0.0,-0.00124040877402,-0.00777997051076,-0.00311770149012,0.0,0.0,0.0,0.0,0.0,0.0,0.0,0.0,0.0,6.57960282782,-0.00220612008962,7.0265750294,0.0,0.0,0.0,0.0,0.0,0.0,0.0,0.0,0.0
31536000000,120,31536000000,imu_link,0.000728554725707,-0.375899413165,0.00155951303687,0.926658873755,0.0,0.0,0.0,0.0,0.0,0.0,0.0,0.0,0.0,-0.00141797237329,-0.00773656231405,-0.00316323990319,0.0,0.0,0.0,0.0,0.0,0.0,0.0,0.0,0.0,6.57940928371,-0.00210851959912,7.02468956458,0.0,0.0,0.0,0.0,0.0,0.0,0.0,0.0,0.0
31540000000,121,31540000000,imu_link,0.000728086220024,-0.375913845543,0.00155237879044,0.926653031474,0.0,0.0,0.0,0.0,0.0,0.0,0.0,0.0,0.0,-0.00156707752791,-0.00778723383913,-0.0032076379318,0.0,0.0,0.0,0.0,0.0,0.0,0.0,0.0,0.0,6.58139220123,-0.00201799507018,7.02769626627,0.0,0.0,0.0,0.0,0.0,0.0,0.0,0.0,0.0
31544000000,122,31544000000,imu_link,0.000727408441689,-0.375928488125,0.00154508574891,0.926647104028,0.0,0.0,0.0,0.0,0.0,0.0,0.0,0.0,0.0,-0.00169401789027,-0.00790053023416,-0.0032417350408,0.0,0.0,0.0,0.0,0.0,0.0,0.0,0.0,0.0,6.58139855111,-0.0019014232355,7.02642663826,0.0,0.0,0.0,0.0,0.0,0.0,0.0,0.0,0.0
31548000000,123,31548000000,imu_link,0.000726859484058,-0.375943459728,0.0015377612845,0.92664104272,0.0,0.0,0.0,0.0,0.0,0.0,0.0,0.0,0.0,-0.00164044409571,-0.00807824485976,-0.00328028460288,0.0,0.0,0.0,0.0,0.0,0.0,0.0,0.0,0.0,6.58302738416,-0.00183469783025,7.02805658482,0.0,0.0,0.0,0.0,0.0,0.0,0.0,0.0,0.0
31552000000,124,31552000000,imu_link,0.000726828482825,-0.375958840354,0.00153050438314,0.926634814604,0.0,0.0,0.0,0.0,0.0,0.0,0.0,0.0,0.0,-0.00138801819432,-0.00829948285909,-0.00334606551647,0.0,0.0,0.0,0.0,0.0,0.0,0.0,0.0,0.0,6.58411521073,-0.00173754125886,7.02853176741,0.0,0.0,0.0,0.0,0.0,0.0,0.0,0.0,0.0
31556000000,125,31556000000,imu_link,0.000727530721443,-0.375974542506,0.00152336123358,0.926628454915,0.0,0.0,0.0,0.0,0.0,0.0,0.0,0.0,0.0,-0.00102711064088,-0.00847370444882,-0.00343097878971,0.0,0.0,0.0,0.0,0.0,0.0,0.0,0.0,0.0,6.58441533897,-0.00156219473139,7.02624276117,0.0,0.0,0.0,0.0,0.0,0.0,0.0,0.0,0.0
31560000000,126,31560000000,imu_link,0.000729112868722,-0.37599018337,0.00151640335303,0.926622118733,0.0,0.0,0.0,0.0,0.0,0.0,0.0,0.0,0.0,-0.000584570093729,-0.00844149249875,-0.00351059285024,0.0,0.0,0.0,0.0,0.0,0.0,0.0,0.0,0.0,6.58619703691,-0.00134624923471,7.02399616529,0.0,0.0,0.0,0.0,0.0,0.0,0.0,0.0,0.0
31564000000,127,31564000000,imu_link,0.000731871674835,-0.376005264868,0.00150969406598,0.926616007837,0.0,0.0,0.0,0.0,0.0,0.0,0.0,0.0,0.0,7.66529930412e-06,-0.00814078087355,-0.00361699754833,0.0,0.0,0.0,0.0,0.0,0.0,0.0,0.0,0.0,6.58749776094,-0.00114536981082,7.01974292186,0.0,0.0,0.0,0.0,0.0,0.0,0.0,0.0,0.0
31568000000,128,31568000000,imu_link,0.000735967399955,-0.37601952548,0.00150326461153,0.9266102282,0.0,0.0,0.0,0.0,0.0,0.0,0.0,0.0,0.0,0.000680178262771,-0.00769908706303,-0.00373924360348,0.0,0.0,0.0,0.0,0.0,0.0,0.0,0.0,0.0,6.58781274818,-0.000900020221666,7.01609868121,0.0,0.0,0.0,0.0,0.0,0.0,0.0,0.0,0.0
31572000000,129,31572000000,imu_link,0.000741404542366,-0.376032964685,0.00149710521388,0.926604780079,0.0,0.0,0.0,0.0,0.0,0.0,0.0,0.0,0.0,0.00135293247362,-0.00725710575725,-0.00386687589396,0.0,0.0,0.0,0.0,0.0,0.0,0.0,0.0,0.0,6.58767772491,-0.000613013487074,7.01405979969,0.0,0.0,0.0,0.0,0.0,0.0,0.0,0.0,0.0
31576000000,130,31576000000,imu_link,0.000747996098007,-0.376046141949,0.00149119908453,0.926599436624,0.0,0.0,0.0,0.0,0.0,0.0,0.0,0.0,0.0,0.00193555077458,-0.00711683887989,-0.00396676024832,0.0,0.0,0.0,0.0,0.0,0.0,0.0,0.0,0.0,6.58872689165,-0.000299562702369,7.01918931709,0.0,0.0,0.0,0.0,0.0,0.0,0.0,0.0,0.0
31580000000,131,31580000000,imu_link,0.000755521290816,-0.376059614293,0.00148550420732,0.926593972009,0.0,0.0,0.0,0.0,0.0,0.0,0.0,0.0,0.0,0.00240765018767,-0.00727694767542,-0.0040442318285,0.0,0.0,0.0,0.0,0.0,0.0,0.0,0.0,0.0,6.59031086799,1.39429051032e-06,7.02486132866,0.0,0.0,0.0,0.0,0.0,0.0,0.0,0.0,0.0
31584000000,132,31584000000,imu_link,0.000763771634715,-0.37607346615,0.00147997528997,0.926588352174,0.0,0.0,0.0,0.0,0.0,0.0,0.0,0.0,0.0,0.00277459265651,-0.00748243663206,-0.00410343448459,0.0,0.0,0.0,0.0,0.0,0.0,0.0,0.0,0.0,6.59034308411,0.000271759821165,7.02346695316,0.0,0.0,0.0,0.0,0.0,0.0,0.0,0.0,0.0
31588000000,133,31588000000,imu_link,0.000772532667556,-0.376087506429,0.00147458452633,0.926582654868,0.0,0.0,0.0,0.0,0.0,0.0,0.0,0.0,0.0,0.00303705999593,-0.00758462411063,-0.0041353276737,0.0,0.0,0.0,0.0,0.0,0.0,0.0,0.0,0.0,6.58997347317,0.000483587284272,7.01907051932,0.0,0.0,0.0,0.0,0.0,0.0,0.0,0.0,0.0
31592000000,134,31592000000,imu_link,0.000781509720051,-0.376101572741,0.00146930804438,0.92657694627,0.0,0.0,0.0,0.0,0.0,0.0,0.0,0.0,0.0,0.00315861515406,-0.00759892344431,-0.00412298472269,0.0,0.0,0.0,0.0,0.0,0.0,0.0,0.0,0.0,6.59054605533,0.000650539089048,7.01701763355,0.0,0.0,0.0,0.0,0.0,0.0,0.0,0.0,0.0
31596000000,135,31596000000,imu_link,0.000790519002657,-0.376115581294,0.00146414693483,0.926571260542,0.0,0.0,0.0,0.0,0.0,0.0,0.0,0.0,0.0,0.00319527636058,-0.00756784208649,-0.00407563428766,0.0,0.0,0.0,0.0,0.0,0.0,0.0,0.0,0.0,6.59147435307,0.000757892542503,7.01632326445,0.0,0.0,0.0,0.0,0.0,0.0,0.0,0.0,0.0
31600000000,136,31600000000,imu_link,0.000799553279284,-0.376129290834,0.00145910367884,0.926565695624,0.0,0.0,0.0,0.0,0.0,0.0,0.0,0.0,0.0,0.00322919015699,-0.00740656645403,-0.0040259413813,0.0,0.0,0.0,0.0,0.0,0.0,0.0,0.0,0.0,6.59196813154,0.000811722928088,7.01341072292,0.0,0.0,0.0,0.0,0.0,0.0,0.0,0.0,0.0
31604000000,137,31604000000,imu_link,0.000808826147054,-0.37614238174,0.00145416030813,0.926560381129,0.0,0.0,0.0,0.0,0.0,0.0,0.0,0.0,0.0,0.00335886144603,-0.00707300190624,-0.00402496681188,0.0,0.0,0.0,0.0,0.0,0.0,0.0,0.0,0.0,6.59264840174,0.000834984627848,7.01014699293,0.0,0.0,0.0,0.0,0.0,0.0,0.0,0.0,0.0
31608000000,138,31608000000,imu_link,0.00081876352752,-0.376154573679,0.00144933225149,0.926555430486,0.0,0.0,0.0,0.0,0.0,0.0,0.0,0.0,0.0,0.00368891074223,-0.006588535222,-0.0040971478845,0.0,0.0,0.0,0.0,0.0,0.0,0.0,0.0,0.0,6.5937213933,0.000853148192644,7.00768932951,0.0,0.0,0.0,0.0,0.0,0.0,0.0,0.0,0.0
31612000000,139,31612000000,imu_link,0.000829748630895,-0.376165794493,0.00144470214609,0.926550872541,0.0,0.0,0.0,0.0,0.0,0.0,0.0,0.0,0.0,0.00421207052887,-0.00606545464084,-0.00420317650426,0.0,0.0,0.0,0.0,0.0,0.0,0.0,0.0,0.0,6.5946624585,0.000932879232127,7.0067419412,0.0,0.0,0.0,0.0,0.0,0.0,0.0,0.0,0.0
31616000000,140,31616000000,imu_link,0.000841837199462,-0.376176168724,0.00144035232779,0.926546656558,0.0,0.0,0.0,0.0,0.0,0.0,0.0,0.0,0.0,0.00477646571402,-0.00560961741807,-0.00428146755296,0.0,0.0,0.0,0.0,0.0,0.0,0.0,0.0,0.0,6.59636510231,0.00112354741401,7.00898697146,0.0,0.0,0.0,0.0,0.0,0.0,0.0,0.0,0.0
31620000000,141,31620000000,imu_link,0.000854455140902,-0.376186039449,0.0014362996115,0.926542643743,0.0,0.0,0.0,0.0,0.0,0.0,0.0,0.0,0.0,0.0050778684926,-0.00533839948808,-0.00424375509074,0.0,0.0,0.0,0.0,0.0,0.0,0.0,0.0,0.0,6.59888854733,0.00142739629239,7.01518466817,0.0,0.0,0.0,0.0,0.0,0.0,0.0,0.0,0.0
31624000000,142,31624000000,imu_link,0.000866813629899,-0.376195872333,0.00143252297531,0.926538645795,0.0,0.0,0.0,0.0,0.0,0.0,0.0,0.0,0.0,0.00500962117933,-0.00531776819216,-0.00406708075016,0.0,0.0,0.0,0.0,0.0,0.0,0.0,0.0,0.0,6.60039070948,0.00168899596619,7.02024377408,0.0,0.0,0.0,0.0,0.0,0.0,0.0,0.0,0.0
31628000000,143,31628000000,imu_link,0.000878143642586,-0.376206010562,0.0014289452882,0.926534524233,0.0,0.0,0.0,0.0,0.0,0.0,0.0,0.0,0.0,0.00457041643534,-0.00548165327893,-0.00378123859426,0.0,0.0,0.0,0.0,0.0,0.0,0.0,0.0,0.0,6.60184131956,0.00182168403918,7.02378888755,0.0,0.0,0.0,0.0,0.0,0.0,0.0,0.0,0.0
31632000000,144,31632000000,imu_link,0.000888080407365,-0.376216694848,0.0014255057467,0.926530181788,0.0,0.0,0.0,0.0,0.0,0.0,0.0,0.0,0.0,0.0039506627352,-0.00577511682748,-0.00345476856646,0.0,0.0,0.0,0.0,0.0,0.0,0.0,0.0,0.0,6.60238319668,0.00173505714205,7.02510146511,0.0,0.0,0.0,0.0,0.0,0.0,0.0,0.0,0.0
31636000000,145,31636000000,imu_link,0.000896815871033,-0.376228016535,0.00142218947699,0.92652558123,0.0,0.0,0.0,0.0,0.0,0.0,0.0,0.0,0.0,0.00341699062434,-0.00611804449543,-0.00317121927721,0.0,0.0,0.0,0.0,0.0,0.0,0.0,0.0,0.0,6.60172306283,0.00143795561061,7.02258371321,0.0,0.0,0.0,0.0,0.0,0.0,0.0,0.0,0.0
31640000000,146,31640000000,imu_link,0.000904674386141,-0.376240022729,0.00141903546223,0.926520703061,0.0,0.0,0.0,0.0,0.0,0.0,0.0,0.0,0.0,0.00304089314967,-0.00648667725014,-0.00293058194231,0.0,0.0,0.0,0.0,0.0,0.0,0.0,0.0,0.0,6.60226061,0.00119631120716,7.02182040321,0.0,0.0,0.0,0.0,0.0,0.0,0.0,0.0,0.0
31644000000,147,31644000000,imu_link,0.000912045035607,-0.376252835622,0.00141612143915,0.926515497151,0.0,0.0,0.0,0.0,0.0,0.0,0.0,0.0,0.0,0.00285960745975,-0.00692158903282,-0.0027270285842,0.0,0.0,0.0,0.0,0.0,0.0,0.0,0.0,0.0,6.60257444207,0.00101926433339,7.02133988317,0.0,0.0,0.0,0.0,0.0,0.0,0.0,0.0,0.0
31648000000,148,31648000000,imu_link,0.00091932414633,-0.376266677032,0.00141353741629,0.926509872862,0.0,0.0,0.0,0.0,0.0,0.0,0.0,0.0,0.0,0.00287874572406,-0.00747655022344,-0.00255616730759,0.0,0.0,0.0,0.0,0.0,0.0,0.0,0.0,0.0,6.60314560314,0.000909521801287,7.02225750689,0.0,0.0,0.0,0.0,0.0,0.0,0.0,0.0,0.0
31652000000,149,31652000000,imu_link,0.000926661665547,-0.376281438764,0.00141129653817,0.926503873916,0.0,0.0,0.0,0.0,0.0,0.0,0.0,0.0,0.0,0.00296988247494,-0.00797326287449,-0.00240750456078,0.0,0.0,0.0,0.0,0.0,0.0,0.0,0.0,0.0,6.60304642192,0.000906656243576,7.01881135482,0.0,0.0,0.0,0.0,0.0,0.0,0.0,0.0,0.0
31656000000,150,31656000000,imu_link,0.000934113543329,-0.37629691525,0.00140938738661,0.926497583717,0.0,0.0,0.0,0.0,0.0,0.0,0.0,0.0,0.0,0.0030849011577,-0.00835909752495,-0.0022748104035,0.0,0.0,0.0,0.0,0.0,0.0,0.0,0.0,0.0,6.60330007357,0.000929878059596,7.01522673,0.0,0.0,0.0,0.0,0.0,0.0,0.0,0.0,0.0
31660000000,151,31660000000,imu_link,0.000941840798607,-0.376312794021,0.00140778677108,0.926491129007,0.0,0.0,0.0,0.0,0.0,0.0,0.0,0.0,0.0,0.00327031337546,-0.00857645836885,-0.00218338949112,0.0,0.0,0.0,0.0,0.0,0.0,0.0,0.0,0.0,6.60445647399,0.000957232522309,7.01254426784,0.0,0.0,0.0,0.0,0.0,0.0,0.0,0.0,0.0
31664000000,152,31664000000,imu_link,0.000949834948463,-0.376328794276,0.00140646584291,0.926484623869,0.0,0.0,0.0,0.0,0.0,0.0,0.0,0.0,0.0,0.00344651430611,-0.008642279563,-0.00210395078095,0.0,0.0,0.0,0.0,0.0,0.0,0.0,0.0,0.0,6.60392817324,0.00103351111555,7.00692461487,0.0,0.0,0.0,0.0,0.0,0.0,0.0,0.0,0.0
31668000000,153,31668000000,imu_link,0.000957927616069,-0.376344708586,0.00140537461914,0.9264781528,0.0,0.0,0.0,0.0,0.0,0.0,0.0,0.0,0.0,0.00353541834567,-0.00859601583577,-0.00201614429234,0.0,0.0,0.0,0.0,0.0,0.0,0.0,0.0,0.0,6.60501941708,0.00113316710267,7.00515485472,0.0,0.0,0.0,0.0,0.0,0.0,0.0,0.0,0.0
31672000000,154,31672000000,imu_link,0.000965882704032,-0.376360542562,0.00140443287067,0.926471713892,0.0,0.0,0.0,0.0,0.0,0.0,0.0,0.0,0.0,0.00349985424535,-0.00855258174595,-0.00192107388069,0.0,0.0,0.0,0.0,0.0,0.0,0.0,0.0,0.0,6.60626885108,0.00121953516094,7.00527784955,0.0,0.0,0.0,0.0,0.0,0.0,0.0,0.0,0.0
31676000000,155,31676000000,imu_link,0.00097358555144,-0.376376376315,0.00140359309246,0.9264652748,0.0,0.0,0.0,0.0,0.0,0.0,0.0,0.0,0.0,0.00340219641057,-0.00855228712526,-0.0018263708853,0.0,0.0,0.0,0.0,0.0,0.0,0.0,0.0,0.0,6.6069011125,0.00122665888027,7.00516838296,0.0,0.0,0.0,0.0,0.0,0.0,0.0,0.0,0.0
31680000000,156,31680000000,imu_link,0.000981005122478,-0.376392414747,0.00140289904057,0.926458752252,0.0,0.0,0.0,0.0,0.0,0.0,0.0,0.0,0.0,0.00329829450727,-0.00866253629812,-0.00170539822268,0.0,0.0,0.0,0.0,0.0,0.0,0.0,0.0,0.0,6.6075507226,0.00116455390995,7.00644189978,0.0,0.0,0.0,0.0,0.0,0.0,0.0,0.0,0.0
31684000000,157,31684000000,imu_link,0.000987882779278,-0.376408674673,0.00140235679322,0.926452139678,0.0,0.0,0.0,0.0,0.0,0.0,0.0,0.0,0.0,0.00307572174091,-0.00878162699987,-0.00153291990689,0.0,0.0,0.0,0.0,0.0,0.0,0.0,0.0,0.0,6.60801528806,0.00114869517473,7.00582995105,0.0,0.0,0.0,0.0,0.0,0.0,0.0,0.0,0.0
31688000000,158,31688000000,imu_link,0.000994007914204,-0.376425029367,0.00140197091931,0.926445488786,0.0,0.0,0.0,0.0,0.0,0.0,0.0,0.0,0.0,0.00275651662896,-0.00883213269781,-0.00131878209151,0.0,0.0,0.0,0.0,0.0,0.0,0.0,0.0,0.0,6.60787822931,0.00111017316475,7.0028349117,0.0,0.0,0.0,0.0,0.0,0.0,0.0,0.0,0.0
31692000000,159,31692000000,imu_link,0.000999388283112,-0.3764414886,0.00140176449457,0.926438795572,0.0,0.0,0.0,0.0,0.0,0.0,0.0,0.0,0.0,0.00244524640317,-0.00888791201345,-0.00109540124759,0.0,0.0,0.0,0.0,0.0,0.0,0.0,0.0,0.0,6.60692233219,0.00101136652504,6.99938793198,0.0,0.0,0.0,0.0,0.0,0.0,0.0,0.0,0.0
31696000000,160,31696000000,imu_link,0.00100427818178,-0.376458167804,0.00140176380916,0.92643201282,0.0,0.0,0.0,0.0,0.0,0.0,0.0,0.0,0.0,0.00225666605237,-0.00900621328945,-0.000907609453979,0.0,0.0,0.0,0.0,0.0,0.0,0.0,0.0,0.0,6.60860409731,0.00087793245671,7.00190926761,0.0,0.0,0.0,0.0,0.0,0.0,0.0,0.0,0.0
31700000000,161,31700000000,imu_link,0.00100899673714,-0.376475050349,0.00140196270966,0.926425146944,0.0,0.0,0.0,0.0,0.0,0.0,0.0,0.0,0.0,0.00221476418406,-0.00911582959634,-0.00078274590187,0.0,0.0,0.0,0.0,0.0,0.0,0.0,0.0,0.0,6.60971360928,0.000747101551861,7.00200268514,0.0,0.0,0.0,0.0,0.0,0.0,0.0,0.0,0.0
31704000000,162,31704000000,imu_link,0.00101377160727,-0.376491976572,0.00140235472304,0.926418262582,0.0,0.0,0.0,0.0,0.0,0.0,0.0,0.0,0.0,0.00227717969337,-0.0091394840108,-0.00070385914834,0.0,0.0,0.0,0.0,0.0,0.0,0.0,0.0,0.0,6.61011296464,0.000688394312714,6.99958829725,0.0,0.0,0.0,0.0,0.0,0.0,0.0,0.0,0.0
31708000000,163,31708000000,imu_link,0.00101860461741,-0.376508570368,0.00140293381073,0.926411512591,0.0,0.0,0.0,0.0,0.0,0.0,0.0,0.0,0.0,0.00233949164159,-0.00896015189835,-0.000628411964141,0.0,0.0,0.0,0.0,0.0,0.0,0.0,0.0,0.0,6.61094868788,0.000705865502125,6.99591757627,0.0,0.0,0.0,0.0,0.0,0.0,0.0,0.0,0.0
31712000000,164,31712000000,imu_link,0.00102336351577,-0.376524418181,0.00140367605334,0.926405065257,0.0,0.0,0.0,0.0,0.0,0.0,0.0,0.0,0.0,0.00233624639129,-0.0085574963928,-0.000539478041295,0.0,0.0,0.0,0.0,0.0,0.0,0.0,0.0,0.0,6.61145018579,0.000751218074816,6.99129450264,0.0,0.0,0.0,0.0,0.0,0.0,0.0,0.0,0.0
31716000000,165,31716000000,imu_link,0.00102781433875,-0.376539415035,0.0014045165809,0.926398963652,0.0,0.0,0.0,0.0,0.0,0.0,0.0,0.0,0.0,0.00221246877043,-0.00809797616865,-0.00043663131683,0.0,0.0,0.0,0.0,0.0,0.0,0.0,0.0,0.0,6.61219204447,0.000798785415177,6.98979302177,0.0,0.0,0.0,0.0,0.0,0.0,0.0,0.0,0.0
31720000000,166,31720000000,imu_link,0.00103173143293,-0.376553850224,0.00140535832093,0.926393090637,0.0,0.0,0.0,0.0,0.0,0.0,0.0,0.0,0.0,0.00196575109795,-0.00779440127744,-0.000336033907491,0.0,0.0,0.0,0.0,0.0,0.0,0.0,0.0,0.0,6.61373062339,0.000834374153309,6.99348011337,0.0,0.0,0.0,0.0,0.0,0.0,0.0,0.0,0.0
31724000000,167,31724000000,imu_link,0.00103515243345,-0.376568179926,0.00140618195966,0.926387260803,0.0,0.0,0.0,0.0,0.0,0.0,0.0,0.0,0.0,0.00173260601901,-0.00773707062711,-0.000251100139822,0.0,0.0,0.0,0.0,0.0,0.0,0.0,0.0,0.0,6.61441283484,0.000758828188662,6.9972158277,0.0,0.0,0.0,0.0,0.0,0.0,0.0,0.0,0.0
31728000000,168,31728000000,imu_link,0.00103821070336,-0.376582917113,0.00140700877476,0.926381265453,0.0,0.0,0.0,0.0,0.0,0.0,0.0,0.0,0.0,0.00156498873767,-0.00795672241095,-0.000181005183551,0.0,0.0,0.0,0.0,0.0,0.0,0.0,0.0,0.0,6.61515074685,0.000629935858744,7.00138314587,0.0,0.0,0.0,0.0,0.0,0.0,0.0,0.0,0.0
31732000000,169,31732000000,imu_link,0.00104127862161,-0.37659830201,0.00140788534378,0.926375006421,0.0,0.0,0.0,0.0,0.0,0.0,0.0,0.0,0.0,0.00157850721154,-0.00830636563372,-0.000159254606795,0.0,0.0,0.0,0.0,0.0,0.0,0.0,0.0,0.0,6.61565276283,0.000507784099058,7.00278893396,0.0,0.0,0.0,0.0,0.0,0.0,0.0,0.0,0.0
31736000000,170,31736000000,imu_link,0.00104456399385,-0.376614343668,0.00140881229436,0.926368479752,0.0,0.0,0.0,0.0,0.0,0.0,0.0,0.0,0.0,0.00168839300338,-0.00866109194034,-0.000176334557409,0.0,0.0,0.0,0.0,0.0,0.0,0.0,0.0,0.0,6.61613907649,0.000488382046235,7.00192976428,0.0,0.0,0.0,0.0,0.0,0.0,0.0,0.0,0.0
31740000000,171,31740000000,imu_link,0.00104820186406,-0.376630890823,0.00140978482953,0.926361746758,0.0,0.0,0.0,0.0,0.0,0.0,0.0,0.0,0.0,0.00186000009868,-0.00893430692331,-0.000221189045939,0.0,0.0,0.0,0.0,0.0,0.0,0.0,0.0,0.0,6.61623727597,0.000517002256516,6.99892750443,0.0,0.0,0.0,0.0,0.0,0.0,0.0,0.0,0.0
31744000000,172,31744000000,imu_link,0.00105225514852,-0.376647898198,0.00141078574378,0.926354825769,0.0,0.0,0.0,0.0,0.0,0.0,0.0,0.0,0.0,0.00205753037769,-0.00918315253691,-0.000285899598182,0.0,0.0,0.0,0.0,0.0,0.0,0.0,0.0,0.0,6.6166033393,0.00057742288904,6.99712860081,0.0,0.0,0.0,0.0,0.0,0.0,0.0,0.0,0.0
31748000000,173,31748000000,imu_link,0.00105649147952,-0.376665388055,0.00141181746651,0.926347707958,0.0,0.0,0.0,0.0,0.0,0.0,0.0,0.0,0.0,0.00214787858597,-0.00944380671443,-0.000305709167293,0.0,0.0,0.0,0.0,0.0,0.0,0.0,0.0,0.0,6.61784477738,0.000683623073024,6.99766283853,0.0,0.0,0.0,0.0,0.0,0.0,0.0,0.0,0.0
31752000000,174,31752000000,imu_link,0.0010605032309,-0.376683303981,0.00141286452591,0.92634041672,0.0,0.0,0.0,0.0,0.0,0.0,0.0,0.0,0.0,0.00204653842385,-0.00967364551615,-0.000255962448248,0.0,0.0,0.0,0.0,0.0,0.0,0.0,0.0,0.0,6.61875481631,0.000798827618157,6.99701448257,0.0,0.0,0.0,0.0,0.0,0.0,0.0,0.0,0.0
31756000000,175,31756000000,imu_link,0.00106397072464,-0.376701601991,0.00141391348959,0.926332970304,0.0,0.0,0.0,0.0,0.0,0.0,0.0,0.0,0.0,0.00179462552276,-0.00987945657998,-0.000152261837475,0.0,0.0,0.0,0.0,0.0,0.0,0.0,0.0,0.0,6.61944911816,0.00084813811081,6.99606004442,0.0,0.0,0.0,0.0,0.0,0.0,0.0,0.0,0.0
31760000000,176,31760000000,imu_link,0.00106687815728,-0.376720153364,0.0014149697515,0.926325421048,0.0,0.0,0.0,0.0,0.0,0.0,0.0,0.0,0.0,0.00153647420584,-0.010015776466,-4.31860947511e-05,0.0,0.0,0.0,0.0,0.0,0.0,0.0,0.0,0.0,6.61981902546,0.000797147775387,6.99357119786,0.0,0.0,0.0,0.0,0.0,0.0,0.0,0.0,0.0
31764000000,177,31764000000,imu_link,0.00106935299903,-0.376738630518,0.00141603707983,0.926317902018,0.0,0.0,0.0,0.0,0.0,0.0,0.0,0.0,0.0,0.00133823509892,-0.0099753953269,4.33613393859e-05,0.0,0.0,0.0,0.0,0.0,0.0,0.0,0.0,0.0,6.62124616065,0.000703634130701,6.99098101893,0.0,0.0,0.0,0.0,0.0,0.0,0.0,0.0,0.0
31768000000,178,31768000000,imu_link,0.00107142555678,-0.376756339671,0.00141709876944,0.926310695391,0.0,0.0,0.0,0.0,0.0,0.0,0.0,0.0,0.0,0.00115122822501,-0.00956055952426,0.000115895852194,0.0,0.0,0.0,0.0,0.0,0.0,0.0,0.0,0.0,6.62366251411,0.000636768543158,6.98741099337,0.0,0.0,0.0,0.0,0.0,0.0,0.0,0.0,0.0
31772000000,179,31772000000,imu_link,0.00107312568793,-0.376772490434,0.00141814206838,0.926304122698,0.0,0.0,0.0,0.0,0.0,0.0,0.0,0.0,0.0,0.000976037042654,-0.00871911011365,0.000176251138792,0.0,0.0,0.0,0.0,0.0,0.0,0.0,0.0,0.0,6.62596673452,0.000554567932351,6.98314300718,0.0,0.0,0.0,0.0,0.0,0.0,0.0,0.0,0.0
31776000000,180,31776000000,imu_link,0.00107439926029,-0.376786588951,0.00141917603998,0.926298384967,0.0,0.0,0.0,0.0,0.0,0.0,0.0,0.0,0.0,0.000777725492059,-0.00761101487584,0.000250595763697,0.0,0.0,0.0,0.0,0.0,0.0,0.0,0.0,0.0,6.62683890789,0.000516040682856,6.97935258719,0.0,0.0,0.0,0.0,0.0,0.0,0.0,0.0,0.0
31780000000,181,31780000000,imu_link,0.00107526244738,-0.376798593556,0.00142022711745,0.9262934992,0.0,0.0,0.0,0.0,0.0,0.0,0.0,0.0,0.0,0.000591906659171,-0.00648041718086,0.000334102773853,0.0,0.0,0.0,0.0,0.0,0.0,0.0,0.0,0.0,6.62637341325,0.000471972118826,6.97736516061,0.0,0.0,0.0,0.0,0.0,0.0,0.0,0.0,0.0
31784000000,182,31784000000,imu_link,0.00107582990628,-0.376808799551,0.00142132902931,0.92628934518,0.0,0.0,0.0,0.0,0.0,0.0,0.0,0.0,0.0,0.000465402076663,-0.00550929807078,0.000411874922589,0.0,0.0,0.0,0.0,0.0,0.0,0.0,0.0,0.0,6.6247134692,0.000420695745237,6.97603952782,0.0,0.0,0.0,0.0,0.0,0.0,0.0,0.0,0.0
31788000000,183,31788000000,imu_link,0.00107619349125,-0.376817739758,0.00142247945873,0.92628570612,0.0,0.0,0.0,0.0,0.0,0.0,0.0,0.0,0.0,0.000380742428291,-0.00482586383788,0.000471709473217,0.0,0.0,0.0,0.0,0.0,0.0,0.0,0.0,0.0,6.62642914431,0.000403360046495,6.98267222814,0.0,0.0,0.0,0.0,0.0,0.0,0.0,0.0,0.0
31792000000,184,31792000000,imu_link,0.00107654389767,-0.3768257123,0.00142364954114,0.926282460605,0.0,0.0,0.0,0.0,0.0,0.0,0.0,0.0,0.0,0.0003788181446,-0.00430352933709,0.000482493964828,0.0,0.0,0.0,0.0,0.0,0.0,0.0,0.0,0.0,6.62718152254,0.000362908984446,6.98537077635,0.0,0.0,0.0,0.0,0.0,0.0,0.0,0.0,0.0
31796000000,185,31796000000,imu_link,0.00107708331142,-0.37683309332,0.00142484692006,0.926279455392,0.0,0.0,0.0,0.0,0.0,0.0,0.0,0.0,0.0,0.000471789960648,-0.00398441454631,0.000459035241895,0.0,0.0,0.0,0.0,0.0,0.0,0.0,0.0,0.0,6.62801190725,0.000355665262307,6.98881776502,0.0,0.0,0.0,0.0,0.0,0.0,0.0,0.0,0.0
31800000000,186,31800000000,imu_link,0.00107796949801,-0.376840411915,0.00142607088703,0.926276475061,0.0,0.0,0.0,0.0,0.0,0.0,0.0,0.0,0.0,0.000637434938132,-0.00395104831275,0.000405960138111,0.0,0.0,0.0,0.0,0.0,0.0,0.0,0.0,0.0,6.62992440327,0.000390125343771,6.99525502538,0.0,0.0,0.0,0.0,0.0,0.0,0.0,0.0,0.0
31808000000,187,31808000000,imu_link,0.00108109306424,-0.376857373821,0.00142856579599,0.926269566721,0.0,0.0,0.0,0.0,0.0,0.0,0.0,0.0,0.0,0.00105009057348,-0.00487065628323,0.000251292196722,0.0,0.0,0.0,0.0,0.0,0.0,0.0,0.0,0.0,6.63216363403,0.000520137388218,7.00403969298,0.0,0.0,0.0,0.0,0.0,0.0,0.0,0.0,0.0
31812000000,188,31812000000,imu_link,0.00108292225332,-0.376867772315,0.00142973510142,0.926265332034,0.0,0.0,0.0,0.0,0.0,0.0,0.0,0.0,0.0,0.00106235335463,-0.00561451556468,0.000205519954909,0.0,0.0,0.0,0.0,0.0,0.0,0.0,0.0,0.0,6.63289751066,0.00073242054081,7.00677799789,0.0,0.0,0.0,0.0,0.0,0.0,0.0,0.0,0.0
31816000000,189,31816000000,imu_link,0.00108417859098,-0.376879603432,0.00143075706073,0.926260515194,0.0,0.0,0.0,0.0,0.0,0.0,0.0,0.0,0.0,0.000768573223962,-0.00638737740763,0.000246415644453,0.0,0.0,0.0,0.0,0.0,0.0,0.0,0.0,0.0,6.63519342176,0.000892671328631,7.0097183445,0.0,0.0,0.0,0.0,0.0,0.0,0.0,0.0,0.0
31820000000,190,31820000000,imu_link,0.00108412196034,-0.376892779475,0.001431557032,0.926255152808,0.0,0.0,0.0,0.0,0.0,0.0,0.0,0.0,0.0,0.000118000099636,-0.00711223689575,0.000392141093741,0.0,0.0,0.0,0.0,0.0,0.0,0.0,0.0,0.0,6.6375903266,0.00094010729793,7.01163719058,0.0,0.0,0.0,0.0,0.0,0.0,0.0,0.0,0.0
31824000000,191,31824000000,imu_link,0.00108242933147,-0.376906886286,0.00143210322584,0.926249413763,0.0,0.0,0.0,0.0,0.0,0.0,0.0,0.0,0.0,-0.000687961290855,-0.00761324786569,0.000583681867491,0.0,0.0,0.0,0.0,0.0,0.0,0.0,0.0,0.0,6.63883335412,0.000827914668147,7.00838262289,0.0,0.0,0.0,0.0,0.0,0.0,0.0,0.0,0.0
31828000000,192,31828000000,imu_link,0.00107911802462,-0.376921557026,0.00143239185692,0.926243447268,0.0,0.0,0.0,0.0,0.0,0.0,0.0,0.0,0.0,-0.00148643034897,-0.00791626156542,0.000769911697917,0.0,0.0,0.0,0.0,0.0,0.0,0.0,0.0,0.0,6.63881709752,0.000614870987712,7.00325544176,0.0,0.0,0.0,0.0,0.0,0.0,0.0,0.0,0.0
31832000000,193,31832000000,imu_link,0.00107473289394,-0.376936439685,0.00143247905096,0.926237395807,0.0,0.0,0.0,0.0,0.0,0.0,0.0,0.0,0.0,-0.00202181040079,-0.00802975775114,0.000879170700603,0.0,0.0,0.0,0.0,0.0,0.0,0.0,0.0,0.0,6.63982089127,0.000336468525777,7.00030034778,0.0,0.0,0.0,0.0,0.0,0.0,0.0,0.0,0.0
31836000000,194,31836000000,imu_link,0.00106991146851,-0.376951273666,0.00143241666087,0.926231364592,0.0,0.0,0.0,0.0,0.0,0.0,0.0,0.0,0.0,-0.0022520345266,-0.00800316678244,0.000892082530858,0.0,0.0,0.0,0.0,0.0,0.0,0.0,0.0,0.0,6.64038711929,0.000135986350998,6.99742997005,0.0,0.0,0.0,0.0,0.0,0.0,0.0,0.0,0.0
31840000000,195,31840000000,imu_link,0.00106524636938,-0.376966022459,0.00143225944076,0.926225367713,0.0,0.0,0.0,0.0,0.0,0.0,0.0,0.0,0.0,-0.00219746786957,-0.00795740556187,0.000818631394889,0.0,0.0,0.0,0.0,0.0,0.0,0.0,0.0,0.0,6.64135887823,3.93582312544e-05,6.9971993997,0.0,0.0,0.0,0.0,0.0,0.0,0.0,0.0,0.0
31844000000,196,31844000000,imu_link,0.00106099494611,-0.376980729583,0.00143204844858,0.926219387106,0.0,0.0,0.0,0.0,0.0,0.0,0.0,0.0,0.0,-0.00201600328369,-0.00793536646104,0.000715724151199,0.0,0.0,0.0,0.0,0.0,0.0,0.0,0.0,0.0,6.64066856689,8.12034470981e-05,6.99459397498,0.0,0.0,0.0,0.0,0.0,0.0,0.0,0.0,0.0
31848000000,197,31848000000,imu_link,0.00105712694869,-0.376995649384,0.00143177288348,0.926213319303,0.0,0.0,0.0,0.0,0.0,0.0,0.0,0.0,0.0,-0.00185071245028,-0.00805060354663,0.000613722984776,0.0,0.0,0.0,0.0,0.0,0.0,0.0,0.0,0.0,6.64034128177,0.000203884371959,6.9945349842,0.0,0.0,0.0,0.0,0.0,0.0,0.0,0.0,0.0
31852000000,198,31852000000,imu_link,0.0010536164341,-0.377011264072,0.001431485081,0.926206967964,0.0,0.0,0.0,0.0,0.0,0.0,0.0,0.0,0.0,-0.00168781408335,-0.00842611874677,0.000541241312168,0.0,0.0,0.0,0.0,0.0,0.0,0.0,0.0,0.0,6.6410669217,0.000311991657274,6.99827825314,0.0,0.0,0.0,0.0,0.0,0.0,0.0,0.0,0.0
31856000000,199,31856000000,imu_link,0.00105033486487,-0.377027805257,0.00143125706297,0.926200238805,0.0,0.0,0.0,0.0,0.0,0.0,0.0,0.0,0.0,-0.00157098308096,-0.00892653601939,0.00052652871488,0.0,0.0,0.0,0.0,0.0,0.0,0.0,0.0,0.0,6.64184648694,0.000490666547755,6.99991961347,0.0,0.0,0.0,0.0,0.0,0.0,0.0,0.0,0.0
31860000000,200,31860000000,imu_link,0.00104732664892,-0.377045201805,0.00143113034092,0.926193160614,0.0,0.0,0.0,0.0,0.0,0.0,0.0,0.0,0.0,-0.00142572626365,-0.00938859438574,0.000522606987596,0.0,0.0,0.0,0.0,0.0,0.0,0.0,0.0,0.0,6.64168847943,0.000605597514344,6.99712082241,0.0,0.0,0.0,0.0,0.0,0.0,0.0,0.0,0.0
31864000000,201,31864000000,imu_link,0.00104467058192,-0.377063157388,0.00143109760909,0.9261858539,0.0,0.0,0.0,0.0,0.0,0.0,0.0,0.0,0.0,-0.0012452083656,-0.00969076646588,0.000500201770243,0.0,0.0,0.0,0.0,0.0,0.0,0.0,0.0,0.0,6.64214173792,0.000693251009876,6.99338979824,0.0,0.0,0.0,0.0,0.0,0.0,0.0,0.0,0.0
31868000000,202,31868000000,imu_link,0.00104236035418,-0.377081310147,0.0014311346409,0.926178465997,0.0,0.0,0.0,0.0,0.0,0.0,0.0,0.0,0.0,-0.001071998685,-0.0097975951305,0.000467468284528,0.0,0.0,0.0,0.0,0.0,0.0,0.0,0.0,0.0,6.64288283358,0.000803024046244,6.98970108226,0.0,0.0,0.0,0.0,0.0,0.0,0.0,0.0,0.0
31872000000,203,31872000000,imu_link,0.00104033386366,-0.377099474448,0.00143123746558,0.926171072554,0.0,0.0,0.0,0.0,0.0,0.0,0.0,0.0,0.0,-0.000928203772627,-0.00980415319288,0.000444450235607,0.0,0.0,0.0,0.0,0.0,0.0,0.0,0.0,0.0,6.64360504522,0.000916834255614,6.98796497472,0.0,0.0,0.0,0.0,0.0,0.0,0.0,0.0,0.0
31876000000,204,31876000000,imu_link,0.00103834890495,-0.37711769724,0.00143139553436,0.926163654743,0.0,0.0,0.0,0.0,0.0,0.0,0.0,0.0,0.0,-0.000898583914474,-0.00983583465311,0.000462250026746,0.0,0.0,0.0,0.0,0.0,0.0,0.0,0.0,0.0,6.64440435999,0.00104965042979,6.98868460826,0.0,0.0,0.0,0.0,0.0,0.0,0.0,0.0,0.0
31880000000,205,31880000000,imu_link,0.00103618045578,-0.377136056883,0.00143160495936,0.926156180909,0.0,0.0,0.0,0.0,0.0,0.0,0.0,0.0,0.0,-0.000973940197324,-0.009909613983,0.000520742050176,0.0,0.0,0.0,0.0,0.0,0.0,0.0,0.0,0.0,6.64417979097,0.00114329250665,6.98743635053,0.0,0.0,0.0,0.0,0.0,0.0,0.0,0.0,0.0
31884000000,206,31884000000,imu_link,0.00103360060018,-0.377154527084,0.00143184408644,0.926148662037,0.0,0.0,0.0,0.0,0.0,0.0,0.0,0.0,0.0,-0.00115890844687,-0.00996899382641,0.000612164054038,0.0,0.0,0.0,0.0,0.0,0.0,0.0,0.0,0.0,6.64404740237,0.00119678945795,6.98533723251,0.0,0.0,0.0,0.0,0.0,0.0,0.0,0.0,0.0
31888000000,207,31888000000,imu_link,0.00103056711597,-0.377172865242,0.00143209469052,0.926141196989,0.0,0.0,0.0,0.0,0.0,0.0,0.0,0.0,0.0,-0.00136674119326,-0.00989736737104,0.000702916028882,0.0,0.0,0.0,0.0,0.0,0.0,0.0,0.0,0.0,6.64425270556,0.00118806372042,6.98181647645,0.0,0.0,0.0,0.0,0.0,0.0,0.0,0.0,0.0
31892000000,208,31892000000,imu_link,0.00102704402892,-0.377190629175,0.0014323404256,0.926133965927,0.0,0.0,0.0,0.0,0.0,0.0,0.0,0.0,0.0,-0.00159408949432,-0.00958698562467,0.0007925303535,0.0,0.0,0.0,0.0,0.0,0.0,0.0,0.0,0.0,6.64528883488,0.00116077601495,6.97801193848,0.0,0.0,0.0,0.0,0.0,0.0,0.0,0.0,0.0
31896000000,209,31896000000,imu_link,0.00102314018553,-0.377207390064,0.00143256996259,0.926127143436,0.0,0.0,0.0,0.0,0.0,0.0,0.0,0.0,0.0,-0.00177295153023,-0.00904519082384,0.000856030722006,0.0,0.0,0.0,0.0,0.0,0.0,0.0,0.0,0.0,6.64766921471,0.00109832965937,6.97700230986,0.0,0.0,0.0,0.0,0.0,0.0,0.0,0.0,0.0
31900000000,210,31900000000,imu_link,0.00101887941643,-0.377222815034,0.00143277380939,0.926120865148,0.0,0.0,0.0,0.0,0.0,0.0,0.0,0.0,0.0,-0.00194239758756,-0.00832369358313,0.000910378821813,0.0,0.0,0.0,0.0,0.0,0.0,0.0,0.0,0.0,6.64932594182,0.00110271301212,6.9756447485,0.0,0.0,0.0,0.0,0.0,0.0,0.0,0.0,0.0
31904000000,211,31904000000,imu_link,0.00101430664828,-0.377236781468,0.00143292535629,0.926115181073,0.0,0.0,0.0,0.0,0.0,0.0,0.0,0.0,0.0,-0.00209599419969,-0.00753603118585,0.000943838664179,0.0,0.0,0.0,0.0,0.0,0.0,0.0,0.0,0.0,6.64893929654,0.00111593202647,6.97285861392,0.0,0.0,0.0,0.0,0.0,0.0,0.0,0.0,0.0
31908000000,212,31908000000,imu_link,0.00100956708505,-0.377249376068,0.00143299208158,0.92611005586,0.0,0.0,0.0,0.0,0.0,0.0,0.0,0.0,0.0,-0.00218852940883,-0.0067953050759,0.000934925857077,0.0,0.0,0.0,0.0,0.0,0.0,0.0,0.0,0.0,6.6502019205,0.00113168009103,6.97523166038,0.0,0.0,0.0,0.0,0.0,0.0,0.0,0.0,0.0
31912000000,213,31912000000,imu_link,0.0010048230578,-0.37726095396,0.00143300595111,0.926105344678,0.0,0.0,0.0,0.0,0.0,0.0,0.0,0.0,0.0,-0.00220004692154,-0.00624644010825,0.000910482890256,0.0,0.0,0.0,0.0,0.0,0.0,0.0,0.0,0.0,6.65085990186,0.0011451738127,6.97851338739,0.0,0.0,0.0,0.0,0.0,0.0,0.0,0.0,0.0
31916000000,214,31916000000,imu_link,0.00100028344105,-0.377272004673,0.00143304891513,0.926100847799,0.0,0.0,0.0,0.0,0.0,0.0,0.0,0.0,0.0,-0.00209963592864,-0.00596203681512,0.000884978711106,0.0,0.0,0.0,0.0,0.0,0.0,0.0,0.0,0.0,6.65322520201,0.00116818863839,6.98609387939,0.0,0.0,0.0,0.0,0.0,0.0,0.0,0.0,0.0
31920000000,215,31920000000,imu_link,0.00099595723552,-0.377282845684,0.00143315453421,0.926096435848,0.0,0.0,0.0,0.0,0.0,0.0,0.0,0.0,0.0,-0.00198888899022,-0.00584903474554,0.000873568388085,0.0,0.0,0.0,0.0,0.0,0.0,0.0,0.0,0.0,6.65307463942,0.00124898311253,6.98735718742,0.0,0.0,0.0,0.0,0.0,0.0,0.0,0.0,0.0
31924000000,216,31924000000,imu_link,0.000991583004132,-0.377293856833,0.00143325854731,0.926091954467,0.0,0.0,0.0,0.0,0.0,0.0,0.0,0.0,0.0,-0.00201151757898,-0.00594088085242,0.000882018883283,0.0,0.0,0.0,0.0,0.0,0.0,0.0,0.0,0.0,6.65341623186,0.00137956704218,6.98987882896,0.0,0.0,0.0,0.0,0.0,0.0,0.0,0.0,0.0
31928000000,217,31928000000,imu_link,0.000986959401916,-0.377305324661,0.00143330777723,0.926087287205,0.0,0.0,0.0,0.0,0.0,0.0,0.0,0.0,0.0,-0.00213755752544,-0.00618725859033,0.000904054422005,0.0,0.0,0.0,0.0,0.0,0.0,0.0,0.0,0.0,6.65370368799,0.00144459654896,6.99124410641,0.0,0.0,0.0,0.0,0.0,0.0,0.0,0.0,0.0
31932000000,218,31932000000,imu_link,0.000982074269216,-0.377317468894,0.00143326119203,0.926082344589,0.0,0.0,0.0,0.0,0.0,0.0,0.0,0.0,0.0,-0.00227708219714,-0.0065522693216,0.000909557387999,0.0,0.0,0.0,0.0,0.0,0.0,0.0,0.0,0.0,6.65405359951,0.00145680626715,6.99210901818,0.0,0.0,0.0,0.0,0.0,0.0,0.0,0.0,0.0
31936000000,219,31936000000,imu_link,0.000977159800022,-0.377330161365,0.00143313271519,0.92607717854,0.0,0.0,0.0,0.0,0.0,0.0,0.0,0.0,0.0,-0.00230639894782,-0.00684829830012,0.000877602093344,0.0,0.0,0.0,0.0,0.0,0.0,0.0,0.0,0.0,6.65557612537,0.00141993296153,6.99209751125,0.0,0.0,0.0,0.0,0.0,0.0,0.0,0.0,0.0
31940000000,220,31940000000,imu_link,0.000972528067131,-0.377343191475,0.00143295307697,0.926071874469,0.0,0.0,0.0,0.0,0.0,0.0,0.0,0.0,0.0,-0.00218530799705,-0.00703090517801,0.000800833802497,0.0,0.0,0.0,0.0,0.0,0.0,0.0,0.0,0.0,6.65676740512,0.00139495273429,6.99047448125,0.0,0.0,0.0,0.0,0.0,0.0,0.0,0.0,0.0
31944000000,221,31944000000,imu_link,0.000968357875797,-0.377356399421,0.00143272137523,0.926066497293,0.0,0.0,0.0,0.0,0.0,0.0,0.0,0.0,0.0,-0.00198151244734,-0.00712739932575,0.000689785590297,0.0,0.0,0.0,0.0,0.0,0.0,0.0,0.0,0.0,6.65766280148,0.0014430346992,6.98876630672,0.0,0.0,0.0,0.0,0.0,0.0,0.0,0.0,0.0
31948000000,222,31948000000,imu_link,0.000964555674982,-0.377369769397,0.00143241542046,0.926061053583,0.0,0.0,0.0,0.0,0.0,0.0,0.0,0.0,0.0,-0.00182521438674,-0.00721527681019,0.000586098291945,0.0,0.0,0.0,0.0,0.0,0.0,0.0,0.0,0.0,6.65811231395,0.00163207994447,6.987733547,0.0,0.0,0.0,0.0,0.0,0.0,0.0,0.0,0.0
31952000000,223,31952000000,imu_link,0.000960956106476,-0.377383193693,0.00143199659664,0.926055587461,0.0,0.0,0.0,0.0,0.0,0.0,0.0,0.0,0.0,-0.00175271421953,-0.00724485766755,0.000495645076835,0.0,0.0,0.0,0.0,0.0,0.0,0.0,0.0,0.0,6.65846191253,0.00182459391033,6.98586608343,0.0,0.0,0.0,0.0,0.0,0.0,0.0,0.0,0.0
31956000000,224,31956000000,imu_link,0.000957421430569,-0.377396815255,0.00143142099407,0.92605004088,0.0,0.0,0.0,0.0,0.0,0.0,0.0,0.0,0.0,-0.00175235256134,-0.007351500733,0.000410959854246,0.0,0.0,0.0,0.0,0.0,0.0,0.0,0.0,0.0,6.65923237987,0.00193275939815,6.98702327953,0.0,0.0,0.0,0.0,0.0,0.0,0.0,0.0,0.0
31960000000,225,31960000000,imu_link,0.000954086190621,-0.377410846276,0.00143068165497,0.926044327223,0.0,0.0,0.0,0.0,0.0,0.0,0.0,0.0,0.0,-0.00169111861577,-0.0075728384894,0.00029782809132,0.0,0.0,0.0,0.0,0.0,0.0,0.0,0.0,0.0,6.66040563852,0.00197637877605,6.98964568225,0.0,0.0,0.0,0.0,0.0,0.0,0.0,0.0,0.0
31964000000,226,31964000000,imu_link,0.000951056574687,-0.377425440843,0.00142977464841,0.926038383567,0.0,0.0,0.0,0.0,0.0,0.0,0.0,0.0,0.0,-0.00158154109209,-0.00787747359072,0.000162954792275,0.0,0.0,0.0,0.0,0.0,0.0,0.0,0.0,0.0,6.66129832462,0.0020387123248,6.99125376305,0.0,0.0,0.0,0.0,0.0,0.0,0.0,0.0,0.0
31968000000,227,31968000000,imu_link,0.000948233445062,-0.377440383409,0.00142867337175,0.92603229788,0.0,0.0,0.0,0.0,0.0,0.0,0.0,0.0,0.0,-0.00152277644476,-0.00806564690314,3.43044403077e-05,0.0,0.0,0.0,0.0,0.0,0.0,0.0,0.0,0.0,6.66238666251,0.00217006729636,6.98989289396,0.0,0.0,0.0,0.0,0.0,0.0,0.0,0.0,0.0
31972000000,228,31972000000,imu_link,0.000945218498744,-0.377455245762,0.00142734328028,0.926026245146,0.0,0.0,0.0,0.0,0.0,0.0,0.0,0.0,0.0,-0.00165473097336,-0.00802225945714,-3.55024064226e-05,0.0,0.0,0.0,0.0,0.0,0.0,0.0,0.0,0.0,6.66515873331,0.00232395976794,6.98948900348,0.0,0.0,0.0,0.0,0.0,0.0,0.0,0.0,0.0
31976000000,229,31976000000,imu_link,0.000941545735611,-0.377469620215,0.001425739504,0.926020392094,0.0,0.0,0.0,0.0,0.0,0.0,0.0,0.0,0.0,-0.00201070684348,-0.00775832992859,-3.84469472527e-05,0.0,0.0,0.0,0.0,0.0,0.0,0.0,0.0,0.0,6.66747641651,0.00242864600858,6.98893644979,0.0,0.0,0.0,0.0,0.0,0.0,0.0,0.0,0.0
31980000000,230,31980000000,imu_link,0.000936997818071,-0.377483523004,0.00142383055988,0.92601473239,0.0,0.0,0.0,0.0,0.0,0.0,0.0,0.0,0.0,-0.00247326284117,-0.00750297262492,-1.49305523651e-05,0.0,0.0,0.0,0.0,0.0,0.0,0.0,0.0,0.0,6.66826739268,0.00242962590539,6.98923697404,0.0,0.0,0.0,0.0,0.0,0.0,0.0,0.0,0.0
31984000000,231,31984000000,imu_link,0.000931688923517,-0.377497187411,0.00142161959358,0.926009170824,0.0,0.0,0.0,0.0,0.0,0.0,0.0,0.0,0.0,-0.00288248127316,-0.00737367731865,-1.1322452328e-05,0.0,0.0,0.0,0.0,0.0,0.0,0.0,0.0,0.0,6.66728260616,0.00234319344087,6.98810382272,0.0,0.0,0.0,0.0,0.0,0.0,0.0,0.0,0.0
31988000000,232,31988000000,imu_link,0.000926015891045,-0.377511064607,0.00141917429156,0.926003522962,0.0,0.0,0.0,0.0,0.0,0.0,0.0,0.0,0.0,-0.00309542038596,-0.00748833778436,-5.09299738787e-05,0.0,0.0,0.0,0.0,0.0,0.0,0.0,0.0,0.0,6.66821351346,0.00222268138602,6.99239881039,0.0,0.0,0.0,0.0,0.0,0.0,0.0,0.0,0.0
31992000000,233,31992000000,imu_link,0.000920552789926,-0.377525311047,0.00141657709695,0.925997724301,0.0,0.0,0.0,0.0,0.0,0.0,0.0,0.0,0.0,-0.00302708455739,-0.007687982354,-0.000160604249271,0.0,0.0,0.0,0.0,0.0,0.0,0.0,0.0,0.0,6.66874166031,0.00220563134087,6.99326764652,0.0,0.0,0.0,0.0,0.0,0.0,0.0,0.0,0.0
31996000000,234,31996000000,imu_link,0.000915748521087,-0.377539705235,0.0014138793689,0.925991864608,0.0,0.0,0.0,0.0,0.0,0.0,0.0,0.0,0.0,-0.0027410994771,-0.0077684230169,-0.00033140281356,0.0,0.0,0.0,0.0,0.0,0.0,0.0,0.0,0.0,6.66985087474,0.00230876528716,6.99168504248,0.0,0.0,0.0,0.0,0.0,0.0,0.0,0.0,0.0
32000000000,235,32000000000,imu_link,0.000912049197906,-0.377554217867,0.00141115527743,0.925985955281,0.0,0.0,0.0,0.0,0.0,0.0,0.0,0.0,0.0,-0.00223455175724,-0.00783342402467,-0.000552100081035,0.0,0.0,0.0,0.0,0.0,0.0,0.0,0.0,0.0,6.67087019548,0.00242955624671,6.9917356714,0.0,0.0,0.0,0.0,0.0,0.0,0.0,0.0,0.0
32004000000,236,32004000000,imu_link,0.000909795217237,-0.377568980713,0.00140849591458,0.925979942123,0.0,0.0,0.0,0.0,0.0,0.0,0.0,0.0,0.0,-0.00155327823853,-0.00796986332386,-0.000794791399729,0.0,0.0,0.0,0.0,0.0,0.0,0.0,0.0,0.0,6.67103739433,0.0026145849875,6.99154574152,0.0,0.0,0.0,0.0,0.0,0.0,0.0,0.0,0.0
32008000000,237,32008000000,imu_link,0.000909326186993,-0.377583960189,0.00140599235931,0.925973838356,0.0,0.0,0.0,0.0,0.0,0.0,0.0,0.0,0.0,-0.000697561382146,-0.00808845245191,-0.00105946265453,0.0,0.0,0.0,0.0,0.0,0.0,0.0,0.0,0.0,6.67142100514,0.00283348389553,6.99032767831,0.0,0.0,0.0,0.0,0.0,0.0,0.0,0.0,0.0
32012000000,238,32012000000,imu_link,0.000910699322797,-0.377598917515,0.0014036651662,0.925967741253,0.0,0.0,0.0,0.0,0.0,0.0,0.0,0.0,0.0,0.00018864570532,-0.00807815366761,-0.00132561021041,0.0,0.0,0.0,0.0,0.0,0.0,0.0,0.0,0.0,6.6711564053,0.00314657447558,6.9863277305,0.0,0.0,0.0,0.0,0.0,0.0,0.0,0.0,0.0
32016000000,239,32016000000,imu_link,0.000913598860946,-0.377613442118,0.00140150181224,0.925961818577,0.0,0.0,0.0,0.0,0.0,0.0,0.0,0.0,0.0,0.000926502387795,-0.00784587486585,-0.00153825872471,0.0,0.0,0.0,0.0,0.0,0.0,0.0,0.0,0.0,6.67129531409,0.00353208713877,6.98148263724,0.0,0.0,0.0,0.0,0.0,0.0,0.0,0.0,0.0
32020000000,240,32020000000,imu_link,0.000917567471074,-0.377627219814,0.00139947170764,0.925956198966,0.0,0.0,0.0,0.0,0.0,0.0,0.0,0.0,0.0,0.00144700563514,-0.00744353888185,-0.00167896834682,0.0,0.0,0.0,0.0,0.0,0.0,0.0,0.0,0.0,6.67279752232,0.00385403814516,6.98017308737,0.0,0.0,0.0,0.0,0.0,0.0,0.0,0.0,0.0
32024000000,241,32024000000,imu_link,0.0009222632054,-0.377640116377,0.0013975507317,0.925950937569,0.0,0.0,0.0,0.0,0.0,0.0,0.0,0.0,0.0,0.00180470540848,-0.00696841692528,-0.00176639001678,0.0,0.0,0.0,0.0,0.0,0.0,0.0,0.0,0.0,6.67224862904,0.00409045036806,6.97694675664,0.0,0.0,0.0,0.0,0.0,0.0,0.0,0.0,0.0
32028000000,242,32028000000,imu_link,0.000927498500961,-0.377652174415,0.0013957059429,0.925946017277,0.0,0.0,0.0,0.0,0.0,0.0,0.0,0.0,0.0,0.00206932332996,-0.00651613416209,-0.00183362225356,0.0,0.0,0.0,0.0,0.0,0.0,0.0,0.0,0.0,6.67203603228,0.00424528850176,6.975621033,0.0,0.0,0.0,0.0,0.0,0.0,0.0,0.0,0.0
32032000000,243,32032000000,imu_link,0.000933188552023,-0.377663516048,0.00139391285045,0.925941388433,0.0,0.0,0.0,0.0,0.0,0.0,0.0,0.0,0.0,0.0022899892588,-0.00612971909443,-0.00189609355883,0.0,0.0,0.0,0.0,0.0,0.0,0.0,0.0,0.0,6.67126560167,0.00436176964674,6.97410730272,0.0,0.0,0.0,0.0,0.0,0.0,0.0,0.0,0.0
32036000000,244,32036000000,imu_link,0.000939384540486,-0.377674323183,0.00139217708903,0.925936976801,0.0,0.0,0.0,0.0,0.0,0.0,0.0,0.0,0.0,0.00253532053919,-0.0058415710223,-0.00196548880254,0.0,0.0,0.0,0.0,0.0,0.0,0.0,0.0,0.0,6.67090215242,0.00447982434105,6.97358059548,0.0,0.0,0.0,0.0,0.0,0.0,0.0,0.0,0.0
32040000000,245,32040000000,imu_link,0.000946135219614,-0.377684757601,0.0013904989471,0.925932716355,0.0,0.0,0.0,0.0,0.0,0.0,0.0,0.0,0.0,0.00280319397404,-0.00564082448787,-0.0020438393023,0.0,0.0,0.0,0.0,0.0,0.0,0.0,0.0,0.0,6.67017371789,0.0045914193145,6.97234755291,0.0,0.0,0.0,0.0,0.0,0.0,0.0,0.0,0.0
32044000000,246,32044000000,imu_link,0.000953482489165,-0.377694927125,0.00138887786307,0.925928563072,0.0,0.0,0.0,0.0,0.0,0.0,0.0,0.0,0.0,0.00309030368894,-0.00549833878635,-0.00213028479051,0.0,0.0,0.0,0.0,0.0,0.0,0.0,0.0,0.0,6.66961468888,0.00467502676677,6.97114531594,0.0,0.0,0.0,0.0,0.0,0.0,0.0,0.0,0.0
32048000000,247,32048000000,imu_link,0.000961231386073,-0.377705110859,0.00138723695384,0.925924403415,0.0,0.0,0.0,0.0,0.0,0.0,0.0,0.0,0.0,0.00327249204387,-0.00550640913293,-0.00221529825274,0.0,0.0,0.0,0.0,0.0,0.0,0.0,0.0,0.0,6.66993932802,0.0047656608153,6.97298351224,0.0,0.0,0.0,0.0,0.0,0.0,0.0,0.0,0.0
32052000000,248,32052000000,imu_link,0.000969092883884,-0.377715599784,0.00138549759145,0.92592011909,0.0,0.0,0.0,0.0,0.0,0.0,0.0,0.0,0.0,0.00330587710474,-0.00567137043908,-0.0022819101655,0.0,0.0,0.0,0.0,0.0,0.0,0.0,0.0,0.0,6.67174137401,0.00486083830481,6.97767849721,0.0,0.0,0.0,0.0,0.0,0.0,0.0,0.0,0.0
32056000000,249,32056000000,imu_link,0.000976913729666,-0.377726625895,0.0013836479365,0.92591561562,0.0,0.0,0.0,0.0,0.0,0.0,0.0,0.0,0.0,0.00326596128055,-0.00596147840446,-0.00232488165748,0.0,0.0,0.0,0.0,0.0,0.0,0.0,0.0,0.0,6.67186312416,0.00490071655873,6.97853708408,0.0,0.0,0.0,0.0,0.0,0.0,0.0,0.0,0.0
32060000000,250,32060000000,imu_link,0.000984696637913,-0.377738144621,0.00138171933853,0.925910911115,0.0,0.0,0.0,0.0,0.0,0.0,0.0,0.0,0.0,0.00323324575536,-0.00622751876573,-0.00235388423439,0.0,0.0,0.0,0.0,0.0,0.0,0.0,0.0,0.0,6.67183712389,0.00490466052942,6.9764708699,0.0,0.0,0.0,0.0,0.0,0.0,0.0,0.0,0.0
32064000000,251,32064000000,imu_link,0.00099260642768,-0.377749872913,0.00137973489134,0.925906120823,0.0,0.0,0.0,0.0,0.0,0.0,0.0,0.0,0.0,0.00328133551397,-0.00634085679201,-0.00240354148269,0.0,0.0,0.0,0.0,0.0,0.0,0.0,0.0,0.0,6.67245919104,0.00487434891917,6.97324259823,0.0,0.0,0.0,0.0,0.0,0.0,0.0,0.0,0.0
32068000000,252,32068000000,imu_link,0.00100081084852,-0.377761530429,0.00137773054941,0.925901358873,0.0,0.0,0.0,0.0,0.0,0.0,0.0,0.0,0.0,0.00341401301328,-0.00630295036788,-0.00246845491958,0.0,0.0,0.0,0.0,0.0,0.0,0.0,0.0,0.0,6.67239068336,0.00488125862203,6.96895251603,0.0,0.0,0.0,0.0,0.0,0.0,0.0,0.0,0.0
32072000000,253,32072000000,imu_link,0.0010096569181,-0.377772803982,0.00137573881028,0.925896752617,0.0,0.0,0.0,0.0,0.0,0.0,0.0,0.0,0.0,0.00371363174797,-0.00609622266626,-0.00258411494198,0.0,0.0,0.0,0.0,0.0,0.0,0.0,0.0,0.0,6.67366510074,0.00489204950491,6.96697035096,0.0,0.0,0.0,0.0,0.0,0.0,0.0,0.0,0.0
32076000000,254,32076000000,imu_link,0.00101947724572,-0.377783392662,0.00137382857573,0.925892424362,0.0,0.0,0.0,0.0,0.0,0.0,0.0,0.0,0.0,0.00418038879488,-0.00572727990387,-0.00273094359124,0.0,0.0,0.0,0.0,0.0,0.0,0.0,0.0,0.0,6.67615510092,0.00495336894232,6.96735195005,0.0,0.0,0.0,0.0,0.0,0.0,0.0,0.0,0.0
32080000000,255,32080000000,imu_link,0.00103021970359,-0.377793251558,0.00137204176788,0.925888392424,0.0,0.0,0.0,0.0,0.0,0.0,0.0,0.0,0.0,0.0046309500291,-0.00533402838179,-0.00284856195755,0.0,0.0,0.0,0.0,0.0,0.0,0.0,0.0,0.0,6.67646840505,0.00512034344463,6.96600552399,0.0,0.0,0.0,0.0,0.0,0.0,0.0,0.0,0.0
32084000000,256,32084000000,imu_link,0.00104145096881,-0.377802438011,0.00137034690586,0.925884633938,0.0,0.0,0.0,0.0,0.0,0.0,0.0,0.0,0.0,0.00487492927027,-0.00497135809785,-0.00289886420937,0.0,0.0,0.0,0.0,0.0,0.0,0.0,0.0,0.0,6.67716757917,0.00537473465519,6.96647249407,0.0,0.0,0.0,0.0,0.0,0.0,0.0,0.0,0.0
32088000000,257,32088000000,imu_link,0.00105235560062,-0.377810931063,0.00136862196879,0.925881158568,0.0,0.0,0.0,0.0,0.0,0.0,0.0,0.0,0.0,0.00471836329906,-0.00459666495812,-0.00285164082704,0.0,0.0,0.0,0.0,0.0,0.0,0.0,0.0,0.0,6.68031826348,0.00555902157097,6.97094290242,0.0,0.0,0.0,0.0,0.0,0.0,0.0,0.0,0.0
32092000000,258,32092000000,imu_link,0.00106248244051,-0.377818671733,0.0013668178803,0.925877991006,0.0,0.0,0.0,0.0,0.0,0.0,0.0,0.0,0.0,0.00434369262292,-0.00418971861421,-0.00274196060871,0.0,0.0,0.0,0.0,0.0,0.0,0.0,0.0,0.0,6.6822902122,0.00549969291168,6.97308005294,0.0,0.0,0.0,0.0,0.0,0.0,0.0,0.0,0.0
32096000000,259,32096000000,imu_link,0.00107195958185,-0.377825592078,0.00136495867107,0.925875158842,0.0,0.0,0.0,0.0,0.0,0.0,0.0,0.0,0.0,0.00403289144983,-0.00374618449511,-0.00264540902645,0.0,0.0,0.0,0.0,0.0,0.0,0.0,0.0,0.0,6.68149383016,0.0053265614212,6.96987961071,0.0,0.0,0.0,0.0,0.0,0.0,0.0,0.0,0.0
32100000000,260,32100000000,imu_link,0.00108133572818,-0.377831608903,0.00136311146098,0.925872695328,0.0,0.0,0.0,0.0,0.0,0.0,0.0,0.0,0.0,0.00398882289827,-0.00325819299655,-0.00262151079588,0.0,0.0,0.0,0.0,0.0,0.0,0.0,0.0,0.0,6.68302740725,0.0051337608966,6.97105082011,0.0,0.0,0.0,0.0,0.0,0.0,0.0,0.0,0.0
32104000000,261,32104000000,imu_link,0.00109126753255,-0.377836651392,0.00136132595314,0.925870628539,0.0,0.0,0.0,0.0,0.0,0.0,0.0,0.0,0.0,0.00425816330413,-0.00273253480829,-0.00269871634759,0.0,0.0,0.0,0.0,0.0,0.0,0.0,0.0,0.0,6.68393281878,0.00502809155645,6.97108248803,0.0,0.0,0.0,0.0,0.0,0.0,0.0,0.0,0.0
32108000000,262,32108000000,imu_link,0.00110207275028,-0.377840773012,0.00135958041819,0.925868936311,0.0,0.0,0.0,0.0,0.0,0.0,0.0,0.0,0.0,0.00467047122355,-0.00223604340052,-0.00284597268088,0.0,0.0,0.0,0.0,0.0,0.0,0.0,0.0,0.0,6.68402711767,0.00507120547188,6.97072212994,0.0,0.0,0.0,0.0,0.0,0.0,0.0,0.0,0.0
32112000000,263,32112000000,imu_link,0.00111379005077,-0.377843958569,0.00135785756756,0.925867624808,0.0,0.0,0.0,0.0,0.0,0.0,0.0,0.0,0.0,0.00509741784122,-0.00173138881407,-0.00300855697067,0.0,0.0,0.0,0.0,0.0,0.0,0.0,0.0,0.0,6.68448446316,0.00520322873428,6.96999940762,0.0,0.0,0.0,0.0,0.0,0.0,0.0,0.0,0.0
32116000000,264,32116000000,imu_link,0.00112628765087,-0.377846152492,0.00135613529866,0.925866716877,0.0,0.0,0.0,0.0,0.0,0.0,0.0,0.0,0.0,0.00545920331594,-0.00119661306508,-0.00315652965264,0.0,0.0,0.0,0.0,0.0,0.0,0.0,0.0,0.0,6.68422792318,0.00537916024098,6.96770581,0.0,0.0,0.0,0.0,0.0,0.0,0.0,0.0,0.0
32120000000,265,32120000000,imu_link,0.00113928827128,-0.377847302611,0.00135439531569,0.925866234153,0.0,0.0,0.0,0.0,0.0,0.0,0.0,0.0,0.0,0.0056891899168,-0.000633421071802,-0.00326063835977,0.0,0.0,0.0,0.0,0.0,0.0,0.0,0.0,0.0,6.68434697222,0.00556061784032,6.96621655803,0.0,0.0,0.0,0.0,0.0,0.0,0.0,0.0,0.0
32124000000,266,32124000000,imu_link,0.00115257486627,-0.377847553671,0.00135268472579,0.925866117751,0.0,0.0,0.0,0.0,0.0,0.0,0.0,0.0,0.0,0.0058275302345,-0.000148187274079,-0.00330181891253,0.0,0.0,0.0,0.0,0.0,0.0,0.0,0.0,0.0,6.68457882488,0.00569323511651,6.96663096635,0.0,0.0,0.0,0.0,0.0,0.0,0.0,0.0,0.0
32128000000,267,32128000000,imu_link,0.00116592803992,-0.377847353945,0.00135108173577,0.925866184881,0.0,0.0,0.0,0.0,0.0,0.0,0.0,0.0,0.0,0.00587887899315,9.51870389084e-05,-0.00326496957145,0.0,0.0,0.0,0.0,0.0,0.0,0.0,0.0,0.0,6.68653374856,0.0058310434641,6.97263505119,0.0,0.0,0.0,0.0,0.0,0.0,0.0,0.0,0.0
32132000000,268,32132000000,imu_link,0.00117907862835,-0.377847148869,0.00134960732916,0.92586625407,0.0,0.0,0.0,0.0,0.0,0.0,0.0,0.0,0.0,0.00580939045487,9.82646271319e-05,-0.00316717542551,0.0,0.0,0.0,0.0,0.0,0.0,0.0,0.0,0.0,6.68825345071,0.0058712124004,6.97831990005,0.0,0.0,0.0,0.0,0.0,0.0,0.0,0.0,0.0
32136000000,269,32136000000,imu_link,0.00119147035691,-0.377847267772,0.00134821941332,0.925866191704,0.0,0.0,0.0,0.0,0.0,0.0,0.0,0.0,0.0,0.00547428816458,-7.60070808409e-05,-0.00298348969115,0.0,0.0,0.0,0.0,0.0,0.0,0.0,0.0,0.0,6.68976703425,0.00586462082292,6.98267450304,0.0,0.0,0.0,0.0,0.0,0.0,0.0,0.0,0.0
32140000000,270,32140000000,imu_link,0.00120267918796,-0.37784777086,0.0013468951441,0.925865973828,0.0,0.0,0.0,0.0,0.0,0.0,0.0,0.0,0.0,0.00493854376502,-0.000282402783852,-0.00273021456207,0.0,0.0,0.0,0.0,0.0,0.0,0.0,0.0,0.0,6.68964602597,0.00578669221877,6.9815162602,0.0,0.0,0.0,0.0,0.0,0.0,0.0,0.0,0.0
32144000000,271,32144000000,imu_link,0.00121227350141,-0.377848527439,0.00134558509201,0.925865654459,0.0,0.0,0.0,0.0,0.0,0.0,0.0,0.0,0.0,0.00419370658378,-0.000417830592896,-0.00241839126547,0.0,0.0,0.0,0.0,0.0,0.0,0.0,0.0,0.0,6.68932843777,0.00567628563954,6.97829511279,0.0,0.0,0.0,0.0,0.0,0.0,0.0,0.0,0.0
32148000000,272,32148000000,imu_link,0.00121987735738,-0.377849340408,0.00134424513171,0.925865314642,0.0,0.0,0.0,0.0,0.0,0.0,0.0,0.0,0.0,0.00326658254395,-0.000446478087391,-0.002056143102,0.0,0.0,0.0,0.0,0.0,0.0,0.0,0.0,0.0,6.68992805846,0.00550263363274,6.97613915793,0.0,0.0,0.0,0.0,0.0,0.0,0.0,0.0,0.0
32152000000,273,32152000000,imu_link,0.00122535522198,-0.377850178241,0.001342811023,0.925864967566,0.0,0.0,0.0,0.0,0.0,0.0,0.0,0.0,0.0,0.00226459246921,-0.000457987611402,-0.00169805521788,0.0,0.0,0.0,0.0,0.0,0.0,0.0,0.0,0.0,6.69039604393,0.00523183980338,6.97497420525,0.0,0.0,0.0,0.0,0.0,0.0,0.0,0.0,0.0
32156000000,274,32156000000,imu_link,0.00122913537532,-0.377851103291,0.00134129091468,0.925864587241,0.0,0.0,0.0,0.0,0.0,0.0,0.0,0.0,0.0,0.00146238110984,-0.000503558020232,-0.00141705121594,0.0,0.0,0.0,0.0,0.0,0.0,0.0,0.0,0.0,6.690695303,0.00486095318779,6.97449876869,0.0,0.0,0.0,0.0,0.0,0.0,0.0,0.0,0.0
32160000000,275,32160000000,imu_link,0.00123210945233,-0.377852321191,0.00133976753083,0.92586408846,0.0,0.0,0.0,0.0,0.0,0.0,0.0,0.0,0.0,0.00108847991207,-0.000660968874632,-0.00126601973202,0.0,0.0,0.0,0.0,0.0,0.0,0.0,0.0,0.0,6.69296099272,0.00450921265033,6.9791820248,0.0,0.0,0.0,0.0,0.0,0.0,0.0,0.0,0.0
32164000000,276,32164000000,imu_link,0.00123515306495,-0.377854088082,0.00133834883634,0.925863365373,0.0,0.0,0.0,0.0,0.0,0.0,0.0,0.0,0.0,0.00114021915786,-0.000957473283101,-0.0012302042988,0.0,0.0,0.0,0.0,0.0,0.0,0.0,0.0,0.0,6.69370058889,0.00429863565376,6.98133669384,0.0,0.0,0.0,0.0,0.0,0.0,0.0,0.0,0.0
32168000000,277,32168000000,imu_link,0.00123890973304,-0.377856660098,0.00133710096198,0.925862312487,0.0,0.0,0.0,0.0,0.0,0.0,0.0,0.0,0.0,0.00150225257941,-0.00139287052746,-0.0012851237946,0.0,0.0,0.0,0.0,0.0,0.0,0.0,0.0,0.0,6.69434561541,0.00425229174888,6.98313649031,0.0,0.0,0.0,0.0,0.0,0.0,0.0,0.0,0.0
32172000000,278,32172000000,imu_link,0.00124359320798,-0.377860368976,0.00133605012771,0.925860794074,0.0,0.0,0.0,0.0,0.0,0.0,0.0,0.0,0.0,0.00196805512198,-0.00200760885173,-0.00136799240374,0.0,0.0,0.0,0.0,0.0,0.0,0.0,0.0,0.0,6.69417675121,0.00439311123327,6.98397319094,0.0,0.0,0.0,0.0,0.0,0.0,0.0,0.0,0.0
32176000000,279,32176000000,imu_link,0.00124916797755,-0.377865377369,0.00133518618411,0.925858743785,0.0,0.0,0.0,0.0,0.0,0.0,0.0,0.0,0.0,0.00241543439584,-0.00271016022805,-0.0014487041526,0.0,0.0,0.0,0.0,0.0,0.0,0.0,0.0,0.0,6.69303618789,0.00459741788824,6.98146263894,0.0,0.0,0.0,0.0,0.0,0.0,0.0,0.0,0.0
32180000000,280,32180000000,imu_link,0.00125569238355,-0.377871696267,0.00133450595851,0.925856157019,0.0,0.0,0.0,0.0,0.0,0.0,0.0,0.0,0.0,0.00288921951935,-0.00341870851198,-0.0015418963863,0.0,0.0,0.0,0.0,0.0,0.0,0.0,0.0,0.0,6.69387448957,0.00474317860903,6.98140529022,0.0,0.0,0.0,0.0,0.0,0.0,0.0,0.0,0.0
32184000000,281,32184000000,imu_link,0.00126340839742,-0.377879094199,0.00133401272478,0.925853127865,0.0,0.0,0.0,0.0,0.0,0.0,0.0,0.0,0.0,0.00347573549568,-0.00400248431171,-0.0016794973929,0.0,0.0,0.0,0.0,0.0,0.0,0.0,0.0,0.0,6.69558203356,0.00483536691704,6.9808151222,0.0,0.0,0.0,0.0,0.0,0.0,0.0,0.0,0.0
32188000000,282,32188000000,imu_link,0.00127249149606,-0.377887405951,0.00133368819769,0.925849723478,0.0,0.0,0.0,0.0,0.0,0.0,0.0,0.0,0.0,0.00414009821067,-0.00449721762634,-0.00185886743751,0.0,0.0,0.0,0.0,0.0,0.0,0.0,0.0,0.0,6.69506294452,0.0049903830849,6.97679584768,0.0,0.0,0.0,0.0,0.0,0.0,0.0,0.0,0.0
32192000000,283,32192000000,imu_link,0.00128300923396,-0.377896601955,0.00133349476154,0.925845955821,0.0,0.0,0.0,0.0,0.0,0.0,0.0,0.0,0.0,0.00482863868008,-0.00497607089947,-0.00206844338962,0.0,0.0,0.0,0.0,0.0,0.0,0.0,0.0,0.0,6.69476309541,0.00520043455882,6.9744131548,0.0,0.0,0.0,0.0,0.0,0.0,0.0,0.0,0.0
32196000000,284,32196000000,imu_link,0.00129476039713,-0.377906992503,0.00133335967892,0.925841698545,0.0,0.0,0.0,0.0,0.0,0.0,0.0,0.0,0.0,0.00541016300618,-0.00562234970815,-0.0022733910552,0.0,0.0,0.0,0.0,0.0,0.0,0.0,0.0,0.0,6.69547443234,0.00546124957066,6.97695696723,0.0,0.0,0.0,0.0,0.0,0.0,0.0,0.0,0.0
32200000000,285,32200000000,imu_link,0.00130745491104,-0.377918793663,0.0013332322348,0.925836863843,0.0,0.0,0.0,0.0,0.0,0.0,0.0,0.0,0.0,0.00584773644509,-0.00638508266126,-0.00244680628885,0.0,0.0,0.0,0.0,0.0,0.0,0.0,0.0,0.0,6.69626856888,0.00570205854567,6.97867574458,0.0,0.0,0.0,0.0,0.0,0.0,0.0,0.0,0.0
32204000000,286,32204000000,imu_link,0.00132057684861,-0.377932043084,0.00133310691047,0.925831436987,0.0,0.0,0.0,0.0,0.0,0.0,0.0,0.0,0.0,0.00604542096391,-0.00716768578253,-0.00252524921202,0.0,0.0,0.0,0.0,0.0,0.0,0.0,0.0,0.0,6.69682465926,0.00594212565967,6.97855971484,0.0,0.0,0.0,0.0,0.0,0.0,0.0,0.0,0.0
32208000000,287,32208000000,imu_link,0.00133353721051,-0.377946664717,0.00133298019793,0.925825449786,0.0,0.0,0.0,0.0,0.0,0.0,0.0,0.0,0.0,0.00596981805573,-0.00790868383092,-0.00249407997024,0.0,0.0,0.0,0.0,0.0,0.0,0.0,0.0,0.0,6.69880225747,0.00613104958869,6.97997311066,0.0,0.0,0.0,0.0,0.0,0.0,0.0,0.0,0.0
32212000000,288,32212000000,imu_link,0.00134569751968,-0.377962467587,0.001332849311,0.925818981068,0.0,0.0,0.0,0.0,0.0,0.0,0.0,0.0,0.0,0.00559820839527,-0.00854595706772,-0.00234371517644,0.0,0.0,0.0,0.0,0.0,0.0,0.0,0.0,0.0,6.69955737906,0.00623155842087,6.97846483346,0.0,0.0,0.0,0.0,0.0,0.0,0.0,0.0,0.0
32216000000,289,32216000000,imu_link,0.00135677078082,-0.377979163601,0.0013327221911,0.925812148823,0.0,0.0,0.0,0.0,0.0,0.0,0.0,0.0,0.0,0.00509536483223,-0.00902737443707,-0.00213569649103,0.0,0.0,0.0,0.0,0.0,0.0,0.0,0.0,0.0,6.70070829586,0.00613665770273,6.97621315419,0.0,0.0,0.0,0.0,0.0,0.0,0.0,0.0,0.0
32220000000,290,32220000000,imu_link,0.00136673952239,-0.377996386517,0.0013326085032,0.925805102577,0.0,0.0,0.0,0.0,0.0,0.0,0.0,0.0,0.0,0.00458640859132,-0.00931097931285,-0.00192023600247,0.0,0.0,0.0,0.0,0.0,0.0,0.0,0.0,0.0,6.70098251671,0.00598650590429,6.97140158041,0.0,0.0,0.0,0.0,0.0,0.0,0.0,0.0,0.0
32224000000,291,32224000000,imu_link,0.00137558924405,-0.378013796092,0.0013325137784,0.925797981271,0.0,0.0,0.0,0.0,0.0,0.0,0.0,0.0,0.0,0.00407192233023,-0.00941081211509,-0.00169978762406,0.0,0.0,0.0,0.0,0.0,0.0,0.0,0.0,0.0,6.70104862852,0.00577464119919,6.96699781765,0.0,0.0,0.0,0.0,0.0,0.0,0.0,0.0,0.0
32228000000,292,32228000000,imu_link,0.00138331358073,-0.378031128653,0.001332443694,0.925790892592,0.0,0.0,0.0,0.0,0.0,0.0,0.0,0.0,0.0,0.00355566883413,-0.00936822869813,-0.00147575079004,0.0,0.0,0.0,0.0,0.0,0.0,0.0,0.0,0.0,6.70084488887,0.00553410922385,6.96307474884,0.0,0.0,0.0,0.0,0.0,0.0,0.0,0.0,0.0
32232000000,293,32232000000,imu_link,0.00138967494333,-0.378048275158,0.00133238897997,0.925783881472,0.0,0.0,0.0,0.0,0.0,0.0,0.0,0.0,0.0,0.00292772988936,-0.00926652573848,-0.00121119295886,0.0,0.0,0.0,0.0,0.0,0.0,0.0,0.0,0.0,6.70061092698,0.00538427285761,6.96090067203,0.0,0.0,0.0,0.0,0.0,0.0,0.0,0.0,0.0
32236000000,294,32236000000,imu_link,0.00139455835599,-0.378065030362,0.00133236148468,0.925777031923,0.0,0.0,0.0,0.0,0.0,0.0,0.0,0.0,0.0,0.00224889218976,-0.00905385153353,-0.000919604942302,0.0,0.0,0.0,0.0,0.0,0.0,0.0,0.0,0.0,6.70058674229,0.00520731363424,6.95830872593,0.0,0.0,0.0,0.0,0.0,0.0,0.0,0.0,0.0
32240000000,295,32240000000,imu_link,0.00139804633191,-0.378081022201,0.00133238141874,0.925770495791,0.0,0.0,0.0,0.0,0.0,0.0,0.0,0.0,0.0,0.00161221623447,-0.00864028992298,-0.000634608591832,0.0,0.0,0.0,0.0,0.0,0.0,0.0,0.0,0.0,6.70173203691,0.00501188438823,6.95608041247,0.0,0.0,0.0,0.0,0.0,0.0,0.0,0.0,0.0
32244000000,296,32244000000,imu_link,0.00140057123083,-0.37809582801,0.00133247094176,0.925764445074,0.0,0.0,0.0,0.0,0.0,0.0,0.0,0.0,0.0,0.00118002804083,-0.0079988405219,-0.000421488763293,0.0,0.0,0.0,0.0,0.0,0.0,0.0,0.0,0.0,6.70222651445,0.00477454852614,6.95258429371,0.0,0.0,0.0,0.0,0.0,0.0,0.0,0.0,0.0
32248000000,297,32248000000,imu_link,0.00140243771196,-0.378108908797,0.00133263390843,0.92575909952,0.0,0.0,0.0,0.0,0.0,0.0,0.0,0.0,0.0,0.000889797974638,-0.00706655885489,-0.000264698303014,0.0,0.0,0.0,0.0,0.0,0.0,0.0,0.0,0.0,6.70376122339,0.00462117559135,6.9496293396,0.0,0.0,0.0,0.0,0.0,0.0,0.0,0.0,0.0
32252000000,298,32252000000,imu_link,0.00140392989176,-0.378119973218,0.00133287995232,0.925754577772,0.0,0.0,0.0,0.0,0.0,0.0,0.0,0.0,0.0,0.000733013527648,-0.00597717284059,-0.000157443051932,0.0,0.0,0.0,0.0,0.0,0.0,0.0,0.0,0.0,6.70407330531,0.0045326266872,6.94677818895,0.0,0.0,0.0,0.0,0.0,0.0,0.0,0.0,0.0
32256000000,299,32256000000,imu_link,0.00140534932601,-0.378129166301,0.00133324599194,0.925750820168,0.0,0.0,0.0,0.0,0.0,0.0,0.0,0.0,0.0,0.000722738393136,-0.00496637059137,-8.99693555924e-05,0.0,0.0,0.0,0.0,0.0,0.0,0.0,0.0,0.0,6.70402187389,0.00447950125025,6.94715066131,0.0,0.0,0.0,0.0,0.0,0.0,0.0,0.0,0.0
32260000000,300,32260000000,imu_link,0.00140747336273,-0.378136866266,0.0013338211968,0.925747670972,0.0,0.0,0.0,0.0,0.0,0.0,0.0,0.0,0.0,0.00108899512119,-0.00416053753463,-0.000127822034517,0.0,0.0,0.0,0.0,0.0,0.0,0.0,0.0,0.0,6.70555910877,0.00438889295051,6.95251245208,0.0,0.0,0.0,0.0,0.0,0.0,0.0,0.0,0.0
32264000000,301,32264000000,imu_link,0.00141092077034,-0.378143603558,0.00133468402404,0.925744912495,0.0,0.0,0.0,0.0,0.0,0.0,0.0,0.0,0.0,0.00175629624894,-0.00364174916341,-0.000245834867446,0.0,0.0,0.0,0.0,0.0,0.0,0.0,0.0,0.0,6.70698790187,0.00449623705027,6.95892129535,0.0,0.0,0.0,0.0,0.0,0.0,0.0,0.0,0.0
32268000000,302,32268000000,imu_link,0.00141588764036,-0.378149927477,0.00133585692717,0.925742320032,0.0,0.0,0.0,0.0,0.0,0.0,0.0,0.0,0.0,0.00251839889521,-0.00341981678123,-0.000389999174198,0.0,0.0,0.0,0.0,0.0,0.0,0.0,0.0,0.0,6.70772877346,0.00472852886084,6.96407674133,0.0,0.0,0.0,0.0,0.0,0.0,0.0,0.0,0.0
32272000000,303,32272000000,imu_link,0.00142244872198,-0.37815610426,0.00133732917641,0.925739784713,0.0,0.0,0.0,0.0,0.0,0.0,0.0,0.0,0.0,0.00331297014835,-0.00334176037266,-0.000553008328551,0.0,0.0,0.0,0.0,0.0,0.0,0.0,0.0,0.0,6.70768921177,0.004947169584,6.96533422943,0.0,0.0,0.0,0.0,0.0,0.0,0.0,0.0,0.0
32276000000,304,32276000000,imu_link,0.00143066393723,-0.378162350432,0.00133909340335,0.925737217976,0.0,0.0,0.0,0.0,0.0,0.0,0.0,0.0,0.0,0.00413380132058,-0.00338071683646,-0.000730550647687,0.0,0.0,0.0,0.0,0.0,0.0,0.0,0.0,0.0,6.70754382759,0.00514293398678,6.9658874348,0.0,0.0,0.0,0.0,0.0,0.0,0.0,0.0,0.0
32280000000,305,32280000000,imu_link,0.00144058045711,-0.378168828382,0.00134114508285,0.925734553367,0.0,0.0,0.0,0.0,0.0,0.0,0.0,0.0,0.0,0.00497554852641,-0.00350743885175,-0.000918951236059,0.0,0.0,0.0,0.0,0.0,0.0,0.0,0.0,0.0,6.70741669773,0.00535691631645,6.96596684948,0.0,0.0,0.0,0.0,0.0,0.0,0.0,0.0,0.0
32284000000,306,32284000000,imu_link,0.0014518470593,-0.378175546917,0.00134346335809,0.925731787809,0.0,0.0,0.0,0.0,0.0,0.0,0.0,0.0,0.0,0.00565077792832,-0.00363859960247,-0.00105059132149,0.0,0.0,0.0,0.0,0.0,0.0,0.0,0.0,0.0,6.70779426821,0.00563797878508,6.96559545829,0.0,0.0,0.0,0.0,0.0,0.0,0.0,0.0,0.0
32288000000,307,32288000000,imu_link,0.00146377069813,-0.378182657488,0.00134595489735,0.925728860605,0.0,0.0,0.0,0.0,0.0,0.0,0.0,0.0,0.0,0.00598751388658,-0.00385093998746,-0.00109423774501,0.0,0.0,0.0,0.0,0.0,0.0,0.0,0.0,0.0,6.70963484786,0.00592238813831,6.96922777295,0.0,0.0,0.0,0.0,0.0,0.0,0.0,0.0,0.0
32296000000,308,32296000000,imu_link,0.00148711566301,-0.378197494193,0.00135103116757,0.92572275471,0.0,0.0,0.0,0.0,0.0,0.0,0.0,0.0,0.0,0.00577326144686,-0.00402937668101,-0.000991675524563,0.0,0.0,0.0,0.0,0.0,0.0,0.0,0.0,0.0,6.71197649474,0.00621055392035,6.96914454418,0.0,0.0,0.0,0.0,0.0,0.0,0.0,0.0,0.0
32300000000,309,32300000000,imu_link,0.00149806957401,-0.378204549565,0.00135347248667,0.925719851028,0.0,0.0,0.0,0.0,0.0,0.0,0.0,0.0,0.0,0.00552918576116,-0.00382032616213,-0.000934170963488,0.0,0.0,0.0,0.0,0.0,0.0,0.0,0.0,0.0,6.71316226153,0.00607851651914,6.96449942226,0.0,0.0,0.0,0.0,0.0,0.0,0.0,0.0,0.0
32304000000,310,32304000000,imu_link,0.00150877345673,-0.378210951894,0.0013558353037,0.925717214478,0.0,0.0,0.0,0.0,0.0,0.0,0.0,0.0,0.0,0.00539885461345,-0.00346743308195,-0.000923895441845,0.0,0.0,0.0,0.0,0.0,0.0,0.0,0.0,0.0,6.7128345932,0.00595830281481,6.96049824855,0.0,0.0,0.0,0.0,0.0,0.0,0.0,0.0,0.0
32308000000,311,32308000000,imu_link,0.00151927915898,-0.378216753132,0.00135812787015,0.92571482376,0.0,0.0,0.0,0.0,0.0,0.0,0.0,0.0,0.0,0.00529406234413,-0.00314264296859,-0.000919554624245,0.0,0.0,0.0,0.0,0.0,0.0,0.0,0.0,0.0,6.71124284004,0.00593101257036,6.95689851914,0.0,0.0,0.0,0.0,0.0,0.0,0.0,0.0,0.0
32312000000,312,32312000000,imu_link,0.00152932946506,-0.378222363817,0.00136032825631,0.925712511619,0.0,0.0,0.0,0.0,0.0,0.0,0.0,0.0,0.0,0.00506591649656,-0.00303934569777,-0.000876299833552,0.0,0.0,0.0,0.0,0.0,0.0,0.0,0.0,0.0,6.71053863725,0.0059460176603,6.95799894339,0.0,0.0,0.0,0.0,0.0,0.0,0.0,0.0,0.0
32316000000,313,32316000000,imu_link,0.00153851361036,-0.378228364754,0.00136238429244,0.925710041525,0.0,0.0,0.0,0.0,0.0,0.0,0.0,0.0,0.0,0.00463756570083,-0.00324936839177,-0.000778906615166,0.0,0.0,0.0,0.0,0.0,0.0,0.0,0.0,0.0,6.71312012682,0.00590643504911,6.96691370494,0.0,0.0,0.0,0.0,0.0,0.0,0.0,0.0,0.0
32320000000,314,32320000000,imu_link,0.00154654734154,-0.37823518211,0.00136428814004,0.925707239857,0.0,0.0,0.0,0.0,0.0,0.0,0.0,0.0,0.0,0.00407600866487,-0.00368929065649,-0.0006309343101,0.0,0.0,0.0,0.0,0.0,0.0,0.0,0.0,0.0,6.71276319996,0.00573568067487,6.96882615936,0.0,0.0,0.0,0.0,0.0,0.0,0.0,0.0,0.0
32324000000,315,32324000000,imu_link,0.00155339934849,-0.378242867985,0.00136608126877,0.925704085327,0.0,0.0,0.0,0.0,0.0,0.0,0.0,0.0,0.0,0.00350778485217,-0.00415729922844,-0.000457783797963,0.0,0.0,0.0,0.0,0.0,0.0,0.0,0.0,0.0,6.71295489103,0.00553876578555,6.96831705607,0.0,0.0,0.0,0.0,0.0,0.0,0.0,0.0,0.0
32328000000,316,32328000000,imu_link,0.00155923863204,-0.378251191158,0.00136779116516,0.925700672091,0.0,0.0,0.0,0.0,0.0,0.0,0.0,0.0,0.0,0.00302306836731,-0.00450057435782,-0.000304108655382,0.0,0.0,0.0,0.0,0.0,0.0,0.0,0.0,0.0,6.71340843889,0.00533647813271,6.96553974321,0.0,0.0,0.0,0.0,0.0,0.0,0.0,0.0,0.0
32332000000,317,32332000000,imu_link,0.00156424444878,-0.378259835507,0.00136943832,0.92569712899,0.0,0.0,0.0,0.0,0.0,0.0,0.0,0.0,0.0,0.0026253135407,-0.00467327029705,-0.000175179485025,0.0,0.0,0.0,0.0,0.0,0.0,0.0,0.0,0.0,6.71269861912,0.00518037653883,6.95989659911,0.0,0.0,0.0,0.0,0.0,0.0,0.0,0.0,0.0
32336000000,318,32336000000,imu_link,0.00156846921784,-0.378268328828,0.00137102599945,0.925693648891,0.0,0.0,0.0,0.0,0.0,0.0,0.0,0.0,0.0,0.00225261229944,-0.00459096300415,-5.51493654197e-05,0.0,0.0,0.0,0.0,0.0,0.0,0.0,0.0,0.0,6.71401723408,0.00508051860127,6.95650293265,0.0,0.0,0.0,0.0,0.0,0.0,0.0,0.0,0.0
32340000000,319,32340000000,imu_link,0.00157168095404,-0.378276367384,0.00137255291102,0.925690356327,0.0,0.0,0.0,0.0,0.0,0.0,0.0,0.0,0.0,0.0017724046533,-0.00434436090115,0.000107838338967,0.0,0.0,0.0,0.0,0.0,0.0,0.0,0.0,0.0,6.71374473175,0.00503281890413,6.95203433454,0.0,0.0,0.0,0.0,0.0,0.0,0.0,0.0,0.0
32344000000,320,32344000000,imu_link,0.00157375881493,-0.378283816335,0.00137403532913,0.925687306605,0.0,0.0,0.0,0.0,0.0,0.0,0.0,0.0,0.0,0.00123939431785,-0.00402479079627,0.000301073876091,0.0,0.0,0.0,0.0,0.0,0.0,0.0,0.0,0.0,6.71302203026,0.00494083640499,6.94851616946,0.0,0.0,0.0,0.0,0.0,0.0,0.0,0.0,0.0
32348000000,321,32348000000,imu_link,0.00157491806014,-0.378290837002,0.00137553809404,0.925684433362,0.0,0.0,0.0,0.0,0.0,0.0,0.0,0.0,0.0,0.000818222686786,-0.00379253583266,0.000483781735124,0.0,0.0,0.0,0.0,0.0,0.0,0.0,0.0,0.0,6.71276990812,0.00476189480705,6.94834600018,0.0,0.0,0.0,0.0,0.0,0.0,0.0,0.0,0.0
32352000000,322,32352000000,imu_link,0.00157573742008,-0.378297688116,0.00137719039221,0.9256816297,0.0,0.0,0.0,0.0,0.0,0.0,0.0,0.0,0.0,0.000689254784978,-0.00370054687544,0.000617098413106,0.0,0.0,0.0,0.0,0.0,0.0,0.0,0.0,0.0,6.71405123651,0.00458107346901,6.95172682551,0.0,0.0,0.0,0.0,0.0,0.0,0.0,0.0,0.0
32360000000,323,32360000000,imu_link,0.00157832594762,-0.378312206122,0.00138126620857,0.925675686021,0.0,0.0,0.0,0.0,0.0,0.0,0.0,0.0,0.0,0.000843219825459,-0.00382098966734,0.000693657746935,0.0,0.0,0.0,0.0,0.0,0.0,0.0,0.0,0.0,6.71633237941,0.00451843880175,6.95795247673,0.0,0.0,0.0,0.0,0.0,0.0,0.0,0.0,0.0
32364000000,324,32364000000,imu_link,0.00158025667477,-0.378320191067,0.00138363629795,0.925672415799,0.0,0.0,0.0,0.0,0.0,0.0,0.0,0.0,0.0,0.00133899653435,-0.004313780462,0.000740318179168,0.0,0.0,0.0,0.0,0.0,0.0,0.0,0.0,0.0,6.71582822731,0.00456332057016,6.95759770999,0.0,0.0,0.0,0.0,0.0,0.0,0.0,0.0,0.0
32368000000,325,32368000000,imu_link,0.00158211442224,-0.378328723378,0.0013861589905,0.925668921669,0.0,0.0,0.0,0.0,0.0,0.0,0.0,0.0,0.0,0.00133388356074,-0.00460930418487,0.000825340687533,0.0,0.0,0.0,0.0,0.0,0.0,0.0,0.0,0.0,6.7160545469,0.00472778756986,6.9572927959,0.0,0.0,0.0,0.0,0.0,0.0,0.0,0.0,0.0
32372000000,326,32372000000,imu_link,0.00158352918876,-0.378337840686,0.00138879664865,0.925665188923,0.0,0.0,0.0,0.0,0.0,0.0,0.0,0.0,0.0,0.00115038741678,-0.00492480086989,0.000962975083478,0.0,0.0,0.0,0.0,0.0,0.0,0.0,0.0,0.0,6.71571268372,0.00479395398311,6.95599753004,0.0,0.0,0.0,0.0,0.0,0.0,0.0,0.0,0.0
32376000000,327,32376000000,imu_link,0.00158432747217,-0.378347408823,0.00139150642395,0.925661272741,0.0,0.0,0.0,0.0,0.0,0.0,0.0,0.0,0.0,0.000878533442594,-0.00516767438976,0.00111345702598,0.0,0.0,0.0,0.0,0.0,0.0,0.0,0.0,0.0,6.71598651976,0.00478278754615,6.95403753614,0.0,0.0,0.0,0.0,0.0,0.0,0.0,0.0,0.0
32380000000,328,32380000000,imu_link,0.00158457149364,-0.378357195909,0.00139426296181,0.92565726782,0.0,0.0,0.0,0.0,0.0,0.0,0.0,0.0,0.0,0.00063076824834,-0.0052853749785,0.00124018713721,0.0,0.0,0.0,0.0,0.0,0.0,0.0,0.0,0.0,6.71626587619,0.00470972535129,6.95127997949,0.0,0.0,0.0,0.0,0.0,0.0,0.0,0.0,0.0
32384000000,329,32384000000,imu_link,0.00158462370467,-0.378366748968,0.00139707672964,0.925653358671,0.0,0.0,0.0,0.0,0.0,0.0,0.0,0.0,0.0,0.000552906839937,-0.00515876389381,0.00130270905357,0.0,0.0,0.0,0.0,0.0,0.0,0.0,0.0,0.0,6.71784560501,0.00459819613546,6.94871746654,0.0,0.0,0.0,0.0,0.0,0.0,0.0,0.0,0.0
32388000000,330,32388000000,imu_link,0.00158479169768,-0.378375770651,0.00139995901665,0.925649666307,0.0,0.0,0.0,0.0,0.0,0.0,0.0,0.0,0.0,0.000619655940374,-0.00487184305259,0.0013119450882,0.0,0.0,0.0,0.0,0.0,0.0,0.0,0.0,0.0,6.71799760836,0.00455624357116,6.94518954785,0.0,0.0,0.0,0.0,0.0,0.0,0.0,0.0,0.0
32392000000,331,32392000000,imu_link,0.00158528329293,-0.378384212283,0.00140291691039,0.925646210275,0.0,0.0,0.0,0.0,0.0,0.0,0.0,0.0,0.0,0.000783949727565,-0.00455883671779,0.00128509107504,0.0,0.0,0.0,0.0,0.0,0.0,0.0,0.0,0.0,6.71790805068,0.00456761443376,6.9435486434,0.0,0.0,0.0,0.0,0.0,0.0,0.0,0.0,0.0
32396000000,332,32396000000,imu_link,0.00158628774223,-0.378392278349,0.00140596709018,0.925642906651,0.0,0.0,0.0,0.0,0.0,0.0,0.0,0.0,0.0,0.00103891286004,-0.00435646817187,0.00123037065928,0.0,0.0,0.0,0.0,0.0,0.0,0.0,0.0,0.0,6.71825279861,0.00460981312609,6.94490210779,0.0,0.0,0.0,0.0,0.0,0.0,0.0,0.0,0.0
32400000000,333,32400000000,imu_link,0.0015879527791,-0.378400122672,0.00140912420799,0.925639692287,0.0,0.0,0.0,0.0,0.0,0.0,0.0,0.0,0.0,0.00136496430893,-0.00423733276384,0.00115464462682,0.0,0.0,0.0,0.0,0.0,0.0,0.0,0.0,0.0,6.71849618485,0.00472923960002,6.94558290178,0.0,0.0,0.0,0.0,0.0,0.0,0.0,0.0,0.0
32404000000,334,32404000000,imu_link,0.00159023712727,-0.378407646774,0.0014123936651,0.925636607505,0.0,0.0,0.0,0.0,0.0,0.0,0.0,0.0,0.0,0.00167297120219,-0.00406495827227,0.00108911820289,0.0,0.0,0.0,0.0,0.0,0.0,0.0,0.0,0.0,6.71852500701,0.00489374239783,6.94347504353,0.0,0.0,0.0,0.0,0.0,0.0,0.0,0.0,0.0
32408000000,335,32408000000,imu_link,0.0015931095374,-0.378414742744,0.00141578067564,0.92563369647,0.0,0.0,0.0,0.0,0.0,0.0,0.0,0.0,0.0,0.00196754279404,-0.00383425873733,0.001031797396,0.0,0.0,0.0,0.0,0.0,0.0,0.0,0.0,0.0,6.71860122629,0.00499919773524,6.94164242738,0.0,0.0,0.0,0.0,0.0,0.0,0.0,0.0,0.0
32412000000,336,32412000000,imu_link,0.00159631703985,-0.378421463471,0.00141921998106,0.925630938102,0.0,0.0,0.0,0.0,0.0,0.0,0.0,0.0,0.0,0.00213266776836,-0.00363190038159,0.000992191434855,0.0,0.0,0.0,0.0,0.0,0.0,0.0,0.0,0.0,6.71958533627,0.00509386811053,6.9428932845,0.0,0.0,0.0,0.0,0.0,0.0,0.0,0.0,0.0
32416000000,337,32416000000,imu_link,0.00159954940546,-0.378427947289,0.00142268063718,0.925628276433,0.0,0.0,0.0,0.0,0.0,0.0,0.0,0.0,0.0,0.0021483055325,-0.00350395922862,0.000997110785808,0.0,0.0,0.0,0.0,0.0,0.0,0.0,0.0,0.0,6.72033453788,0.00517314054866,6.9446798961,0.0,0.0,0.0,0.0,0.0,0.0,0.0,0.0,0.0
32420000000,338,32420000000,imu_link,0.0016024696367,-0.378434419674,0.00142616897157,0.925625619859,0.0,0.0,0.0,0.0,0.0,0.0,0.0,0.0,0.0,0.00200908650814,-0.0034974595265,0.00106896809542,0.0,0.0,0.0,0.0,0.0,0.0,0.0,0.0,0.0,6.7216590149,0.00522680339939,6.94822953072,0.0,0.0,0.0,0.0,0.0,0.0,0.0,0.0,0.0
32424000000,339,32424000000,imu_link,0.00160481464622,-0.378441330568,0.00142968610002,0.925622784878,0.0,0.0,0.0,0.0,0.0,0.0,0.0,0.0,0.0,0.00174814511393,-0.00373373175614,0.0011916147708,0.0,0.0,0.0,0.0,0.0,0.0,0.0,0.0,0.0,6.72330354197,0.00521820227542,6.95433869287,0.0,0.0,0.0,0.0,0.0,0.0,0.0,0.0,0.0
32428000000,340,32428000000,imu_link,0.00160648169054,-0.378449080855,0.00143323192608,0.925619607756,0.0,0.0,0.0,0.0,0.0,0.0,0.0,0.0,0.0,0.00143947977458,-0.00418644450582,0.001334099492,0.0,0.0,0.0,0.0,0.0,0.0,0.0,0.0,0.0,6.72301362819,0.00514834895798,6.95602849452,0.0,0.0,0.0,0.0,0.0,0.0,0.0,0.0,0.0
32432000000,341,32432000000,imu_link,0.00160743718268,-0.378457811056,0.00143677671795,0.925616031122,0.0,0.0,0.0,0.0,0.0,0.0,0.0,0.0,0.0,0.00110958944069,-0.00471504700941,0.00146933739759,0.0,0.0,0.0,0.0,0.0,0.0,0.0,0.0,0.0,6.72281866558,0.00506472448686,6.9554762962,0.0,0.0,0.0,0.0,0.0,0.0,0.0,0.0,0.0
32436000000,342,32436000000,imu_link,0.00160758674194,-0.378467421989,0.00144030598033,0.925612095684,0.0,0.0,0.0,0.0,0.0,0.0,0.0,0.0,0.0,0.000733314283758,-0.00518998671346,0.00161562164146,0.0,0.0,0.0,0.0,0.0,0.0,0.0,0.0,0.0,6.72275227109,0.00498709172095,6.95317789289,0.0,0.0,0.0,0.0,0.0,0.0,0.0,0.0,0.0
32440000000,343,32440000000,imu_link,0.00160670513127,-0.378477688902,0.00144381581509,0.92560789371,0.0,0.0,0.0,0.0,0.0,0.0,0.0,0.0,0.0,0.000252148074724,-0.00554328834632,0.00180248175457,0.0,0.0,0.0,0.0,0.0,0.0,0.0,0.0,0.0,6.72264811202,0.00490417671764,6.94975704735,0.0,0.0,0.0,0.0,0.0,0.0,0.0,0.0,0.0
32444000000,344,32444000000,imu_link,0.00160462280423,-0.378488299505,0.0014473196819,0.925603553142,0.0,0.0,0.0,0.0,0.0,0.0,0.0,0.0,0.0,-0.000304814337567,-0.0057277147138,0.00202731809556,0.0,0.0,0.0,0.0,0.0,0.0,0.0,0.0,0.0,6.72245496337,0.00481903861281,6.94521557742,0.0,0.0,0.0,0.0,0.0,0.0,0.0,0.0,0.0
32448000000,345,32448000000,imu_link,0.00160128535266,-0.378499040595,0.00145084185596,0.925599161199,0.0,0.0,0.0,0.0,0.0,0.0,0.0,0.0,0.0,-0.000882276866368,-0.00579690426576,0.00227345757083,0.0,0.0,0.0,0.0,0.0,0.0,0.0,0.0,0.0,6.72295191478,0.00472595431196,6.94270995735,0.0,0.0,0.0,0.0,0.0,0.0,0.0,0.0,0.0
32452000000,346,32452000000,imu_link,0.00159679997099,-0.378509883175,0.00145437995806,0.925594729537,0.0,0.0,0.0,0.0,0.0,0.0,0.0,0.0,0.0,-0.0014105658904,-0.00585054480923,0.00249818434872,0.0,0.0,0.0,0.0,0.0,0.0,0.0,0.0,0.0,6.72267525753,0.00456047174866,6.94099382017,0.0,0.0,0.0,0.0,0.0,0.0,0.0,0.0,0.0
32456000000,347,32456000000,imu_link,0.00159135307401,-0.37852103366,0.00145787755331,0.925590173492,0.0,0.0,0.0,0.0,0.0,0.0,0.0,0.0,0.0,-0.0018633433602,-0.00601591573142,0.00266174569425,0.0,0.0,0.0,0.0,0.0,0.0,0.0,0.0,0.0,6.72346129444,0.00436969464198,6.94325711104,0.0,0.0,0.0,0.0,0.0,0.0,0.0,0.0,0.0
32460000000,348,32460000000,imu_link,0.00158545893526,-0.378532705628,0.00146138105606,0.925585404733,0.0,0.0,0.0,0.0,0.0,0.0,0.0,0.0,0.0,-0.00206941747308,-0.00629718278145,0.00274969484916,0.0,0.0,0.0,0.0,0.0,0.0,0.0,0.0,0.0,6.72567717473,0.00417447904934,6.94830149923,0.0,0.0,0.0,0.0,0.0,0.0,0.0,0.0,0.0
32464000000,349,32464000000,imu_link,0.00157958835184,-0.37854508314,0.00146498685907,0.925580346996,0.0,0.0,0.0,0.0,0.0,0.0,0.0,0.0,0.0,-0.00203944069439,-0.00667833393451,0.00279335089146,0.0,0.0,0.0,0.0,0.0,0.0,0.0,0.0,0.0,6.72601724519,0.00406777833632,6.94926071889,0.0,0.0,0.0,0.0,0.0,0.0,0.0,0.0,0.0
32468000000,350,32468000000,imu_link,0.00157428703296,-0.378558289726,0.00146876698911,0.92557494868,0.0,0.0,0.0,0.0,0.0,0.0,0.0,0.0,0.0,-0.00174333363966,-0.00712676248624,0.00276718584872,0.0,0.0,0.0,0.0,0.0,0.0,0.0,0.0,0.0,6.72644190792,0.00402396156982,6.95000918466,0.0,0.0,0.0,0.0,0.0,0.0,0.0,0.0,0.0
32472000000,351,32472000000,imu_link,0.00156977315779,-0.378572282063,0.0014727107978,0.925569227118,0.0,0.0,0.0,0.0,0.0,0.0,0.0,0.0,0.0,-0.00134825620668,-0.00755203133766,0.00269474349233,0.0,0.0,0.0,0.0,0.0,0.0,0.0,0.0,0.0,6.72585316487,0.00410781342198,6.94745483125,0.0,0.0,0.0,0.0,0.0,0.0,0.0,0.0,0.0
32476000000,352,32476000000,imu_link,0.00156594626049,-0.378586740982,0.00147677869913,0.925563313064,0.0,0.0,0.0,0.0,0.0,0.0,0.0,0.0,0.0,-0.00100703688441,-0.00780480284308,0.00262264422783,0.0,0.0,0.0,0.0,0.0,0.0,0.0,0.0,0.0,6.72658968294,0.00425911573183,6.94433442547,0.0,0.0,0.0,0.0,0.0,0.0,0.0,0.0,0.0
32480000000,353,32480000000,imu_link,0.00156255320299,-0.378601317307,0.00148091790738,0.92555734984,0.0,0.0,0.0,0.0,0.0,0.0,0.0,0.0,0.0,-0.000792814049597,-0.0078687084643,0.0025736489929,0.0,0.0,0.0,0.0,0.0,0.0,0.0,0.0,0.0,6.7274441021,0.00441664569739,6.94156256342,0.0,0.0,0.0,0.0,0.0,0.0,0.0,0.0,0.0
32484000000,354,32484000000,imu_link,0.00155925155766,-0.37861589355,0.00148505776449,0.925551386196,0.0,0.0,0.0,0.0,0.0,0.0,0.0,0.0,0.0,-0.000750387227967,-0.00786881668754,0.00255664513594,0.0,0.0,0.0,0.0,0.0,0.0,0.0,0.0,0.0,6.72767198722,0.00454290978223,6.9396686249,0.0,0.0,0.0,0.0,0.0,0.0,0.0,0.0,0.0
32488000000,355,32488000000,imu_link,0.00155584208541,-0.378630480752,0.00148916278009,0.925545418008,0.0,0.0,0.0,0.0,0.0,0.0,0.0,0.0,0.0,-0.000806887272918,-0.00787469634105,0.00256094574165,0.0,0.0,0.0,0.0,0.0,0.0,0.0,0.0,0.0,6.72718602799,0.0046342503557,6.93794427255,0.0,0.0,0.0,0.0,0.0,0.0,0.0,0.0,0.0
32492000000,356,32492000000,imu_link,0.00155222074718,-0.378645192122,0.00149322226785,0.925539399151,0.0,0.0,0.0,0.0,0.0,0.0,0.0,0.0,0.0,-0.000913605218109,-0.00794162762991,0.00258012047832,0.0,0.0,0.0,0.0,0.0,0.0,0.0,0.0,0.0,6.72664674321,0.00471522377685,6.93702234946,0.0,0.0,0.0,0.0,0.0,0.0,0.0,0.0,0.0
32496000000,357,32496000000,imu_link,0.00154811751326,-0.378660092681,0.00149722420452,0.925533303487,0.0,0.0,0.0,0.0,0.0,0.0,0.0,0.0,0.0,-0.00114758930538,-0.00804340445001,0.00264492549913,0.0,0.0,0.0,0.0,0.0,0.0,0.0,0.0,0.0,6.72665600134,0.00476378521146,6.93689975784,0.0,0.0,0.0,0.0,0.0,0.0,0.0,0.0,0.0
32500000000,358,32500000000,imu_link,0.00154301820557,-0.378675219669,0.00150111589036,0.925527116704,0.0,0.0,0.0,0.0,0.0,0.0,0.0,0.0,0.0,-0.00162951179767,-0.00816477965635,0.00278273526168,0.0,0.0,0.0,0.0,0.0,0.0,0.0,0.0,0.0,6.72810646399,0.00478223601065,6.93915451813,0.0,0.0,0.0,0.0,0.0,0.0,0.0,0.0,0.0
32504000000,359,32504000000,imu_link,0.00153661646197,-0.378690505965,0.00150489498735,0.925520866752,0.0,0.0,0.0,0.0,0.0,0.0,0.0,0.0,0.0,-0.00225361981493,-0.00824957133544,0.00297740367443,0.0,0.0,0.0,0.0,0.0,0.0,0.0,0.0,0.0,6.72812385677,0.00469090908516,6.93789176563,0.0,0.0,0.0,0.0,0.0,0.0,0.0,0.0,0.0
32508000000,360,32508000000,imu_link,0.00152889435518,-0.378705794423,0.00150856862827,0.925514617914,0.0,0.0,0.0,0.0,0.0,0.0,0.0,0.0,0.0,-0.00288460174262,-0.00824944829865,0.00317860809895,0.0,0.0,0.0,0.0,0.0,0.0,0.0,0.0,0.0,6.72785256324,0.00451351750035,6.9350742595,0.0,0.0,0.0,0.0,0.0,0.0,0.0,0.0,0.0
32512000000,361,32512000000,imu_link,0.00152013334523,-0.378720936051,0.0015121300035,0.925508430677,0.0,0.0,0.0,0.0,0.0,0.0,0.0,0.0,0.0,-0.0033865559447,-0.0081691394495,0.00332321694447,0.0,0.0,0.0,0.0,0.0,0.0,0.0,0.0,0.0,6.72832222056,0.00431526343102,6.9336109572,0.0,0.0,0.0,0.0,0.0,0.0,0.0,0.0,0.0
32516000000,362,32516000000,imu_link,0.00151090493345,-0.378735791338,0.00151556687237,0.925502361198,0.0,0.0,0.0,0.0,0.0,0.0,0.0,0.0,0.0,-0.00362629771177,-0.00801407649512,0.0033538018591,0.0,0.0,0.0,0.0,0.0,0.0,0.0,0.0,0.0,6.7294160425,0.00411162581662,6.9336463013,0.0,0.0,0.0,0.0,0.0,0.0,0.0,0.0,0.0
32520000000,363,32520000000,imu_link,0.00150155582651,-0.378750135319,0.00151889415205,0.925496500959,0.0,0.0,0.0,0.0,0.0,0.0,0.0,0.0,0.0,-0.00370267282506,-0.00773783696245,0.00332540029505,0.0,0.0,0.0,0.0,0.0,0.0,0.0,0.0,0.0,6.73012124565,0.004018645675,6.93179415821,0.0,0.0,0.0,0.0,0.0,0.0,0.0,0.0,0.0
32524000000,364,32524000000,imu_link,0.00149226111671,-0.378763681792,0.00152214530464,0.925490966777,0.0,0.0,0.0,0.0,0.0,0.0,0.0,0.0,0.0,-0.00369155634225,-0.00730714292423,0.00327902478335,0.0,0.0,0.0,0.0,0.0,0.0,0.0,0.0,0.0,6.73056021072,0.0039965906669,6.92879406663,0.0,0.0,0.0,0.0,0.0,0.0,0.0,0.0,0.0
32528000000,365,32528000000,imu_link,0.00148310014369,-0.378776347404,0.00152537459149,0.925485792594,0.0,0.0,0.0,0.0,0.0,0.0,0.0,0.0,0.0,-0.00363340943404,-0.00683146987011,0.00324264797098,0.0,0.0,0.0,0.0,0.0,0.0,0.0,0.0,0.0,6.73108939961,0.00399664401741,6.92775604067,0.0,0.0,0.0,0.0,0.0,0.0,0.0,0.0,0.0
32532000000,366,32532000000,imu_link,0.00147416318654,-0.378788310651,0.00152864477961,0.925480905152,0.0,0.0,0.0,0.0,0.0,0.0,0.0,0.0,0.0,-0.00352167841524,-0.00645229009135,0.00321840924732,0.0,0.0,0.0,0.0,0.0,0.0,0.0,0.0,0.0,6.7313539849,0.00404895336067,6.92881462274,0.0,0.0,0.0,0.0,0.0,0.0,0.0,0.0,0.0
32536000000,367,32536000000,imu_link,0.00146535499051,-0.378799929389,0.00153195047435,0.925476158179,0.0,0.0,0.0,0.0,0.0,0.0,0.0,0.0,0.0,-0.003455210911,-0.00626633983481,0.00321009170581,0.0,0.0,0.0,0.0,0.0,0.0,0.0,0.0,0.0,6.73203522489,0.00418367170514,6.93244383108,0.0,0.0,0.0,0.0,0.0,0.0,0.0,0.0,0.0
32540000000,368,32540000000,imu_link,0.00145675209481,-0.378811320077,0.00153529014004,0.925471503904,0.0,0.0,0.0,0.0,0.0,0.0,0.0,0.0,0.0,-0.00335366976795,-0.00614338814187,0.00318668938644,0.0,0.0,0.0,0.0,0.0,0.0,0.0,0.0,0.0,6.73070109291,0.00432154387355,6.93021589293,0.0,0.0,0.0,0.0,0.0,0.0,0.0,0.0,0.0
32544000000,369,32544000000,imu_link,0.00144837788947,-0.378822423347,0.00153864548152,0.92546696664,0.0,0.0,0.0,0.0,0.0,0.0,0.0,0.0,0.0,-0.00324474207458,-0.0059883912355,0.00315032872242,0.0,0.0,0.0,0.0,0.0,0.0,0.0,0.0,0.0,6.73019966205,0.00442011750687,6.92797123754,0.0,0.0,0.0,0.0,0.0,0.0,0.0,0.0,0.0
32548000000,370,32548000000,imu_link,0.0014402590104,-0.378833070311,0.00154201557216,0.925462615496,0.0,0.0,0.0,0.0,0.0,0.0,0.0,0.0,0.0,-0.00312358414514,-0.00574217573361,0.00310831834981,0.0,0.0,0.0,0.0,0.0,0.0,0.0,0.0,0.0,6.73020020808,0.00449329147768,6.92562512634,0.0,0.0,0.0,0.0,0.0,0.0,0.0,0.0,0.0
32552000000,371,32552000000,imu_link,0.0014322816134,-0.37884331723,0.00154535022495,0.925458427728,0.0,0.0,0.0,0.0,0.0,0.0,0.0,0.0,0.0,-0.00306463768602,-0.00552625057726,0.0030647070577,0.0,0.0,0.0,0.0,0.0,0.0,0.0,0.0,0.0,6.73112130269,0.00459056000731,6.92700259523,0.0,0.0,0.0,0.0,0.0,0.0,0.0,0.0,0.0
32556000000,372,32556000000,imu_link,0.00142410725581,-0.378853332416,0.00154858134692,0.925454335087,0.0,0.0,0.0,0.0,0.0,0.0,0.0,0.0,0.0,-0.00317527715747,-0.00540092376829,0.00305386946626,0.0,0.0,0.0,0.0,0.0,0.0,0.0,0.0,0.0,6.73244063672,0.00471150161856,6.93004557402,0.0,0.0,0.0,0.0,0.0,0.0,0.0,0.0,0.0
32560000000,373,32560000000,imu_link,0.00141555632158,-0.378863106696,0.00155168370355,0.925450341651,0.0,0.0,0.0,0.0,0.0,0.0,0.0,0.0,0.0,-0.00337380509582,-0.00527045846565,0.00306537155321,0.0,0.0,0.0,0.0,0.0,0.0,0.0,0.0,0.0,6.73281927743,0.00474131480101,6.92993667212,0.0,0.0,0.0,0.0,0.0,0.0,0.0,0.0,0.0
32564000000,374,32564000000,imu_link,0.0014067218306,-0.378872515398,0.00155465887253,0.925446498316,0.0,0.0,0.0,0.0,0.0,0.0,0.0,0.0,0.0,-0.00352892990108,-0.00507273187733,0.00305985801603,0.0,0.0,0.0,0.0,0.0,0.0,0.0,0.0,0.0,6.73324789988,0.00469872604256,6.92867776058,0.0,0.0,0.0,0.0,0.0,0.0,0.0,0.0,0.0
32568000000,375,32568000000,imu_link,0.00139801232781,-0.378881382885,0.00155752741994,0.925442876343,0.0,0.0,0.0,0.0,0.0,0.0,0.0,0.0,0.0,-0.00349102794729,-0.00478053794425,0.00298629170292,0.0,0.0,0.0,0.0,0.0,0.0,0.0,0.0,0.0,6.73336526643,0.00461382601045,6.92634501016,0.0,0.0,0.0,0.0,0.0,0.0,0.0,0.0,0.0
32572000000,376,32572000000,imu_link,0.00138992677528,-0.37888964541,0.00156033054004,0.925439501034,0.0,0.0,0.0,0.0,0.0,0.0,0.0,0.0,0.0,-0.00321440868079,-0.00445441219166,0.00283720054991,0.0,0.0,0.0,0.0,0.0,0.0,0.0,0.0,0.0,6.73497218645,0.00455879124301,6.92774243427,0.0,0.0,0.0,0.0,0.0,0.0,0.0,0.0,0.0
32576000000,377,32576000000,imu_link,0.00138272341261,-0.378897373901,0.001563100705,0.925436342945,0.0,0.0,0.0,0.0,0.0,0.0,0.0,0.0,0.0,-0.0028121795121,-0.00416686425948,0.00265428465214,0.0,0.0,0.0,0.0,0.0,0.0,0.0,0.0,0.0,6.73383576333,0.0046279556663,6.92510636371,0.0,0.0,0.0,0.0,0.0,0.0,0.0,0.0,0.0
32580000000,378,32580000000,imu_link,0.00137642279103,-0.378904756187,0.00156582169555,0.925433325206,0.0,0.0,0.0,0.0,0.0,0.0,0.0,0.0,0.0,-0.00240360728862,-0.00398081885088,0.00246015860185,0.0,0.0,0.0,0.0,0.0,0.0,0.0,0.0,0.0,6.73435858351,0.00483335483828,6.92689110675,0.0,0.0,0.0,0.0,0.0,0.0,0.0,0.0,0.0
32584000000,379,32584000000,imu_link,0.00137086545027,-0.378912164141,0.0015684535282,0.925430295888,0.0,0.0,0.0,0.0,0.0,0.0,0.0,0.0,0.0,-0.00207658217037,-0.00399553326381,0.00227811416931,0.0,0.0,0.0,0.0,0.0,0.0,0.0,0.0,0.0,6.73391230308,0.00512427361201,6.92834524596,0.0,0.0,0.0,0.0,0.0,0.0,0.0,0.0,0.0
32588000000,380,32588000000,imu_link,0.00136577518066,-0.37891986502,0.00157096776964,0.925427146031,0.0,0.0,0.0,0.0,0.0,0.0,0.0,0.0,0.0,-0.00188288674583,-0.00415435744919,0.00213550877394,0.0,0.0,0.0,0.0,0.0,0.0,0.0,0.0,0.0,6.73371301431,0.00533411534651,6.92939565597,0.0,0.0,0.0,0.0,0.0,0.0,0.0,0.0,0.0
32592000000,381,32592000000,imu_link,0.00136101918056,-0.378927854353,0.00157337311842,0.925423877647,0.0,0.0,0.0,0.0,0.0,0.0,0.0,0.0,0.0,-0.00174899213687,-0.00431062252495,0.00202208206436,0.0,0.0,0.0,0.0,0.0,0.0,0.0,0.0,0.0,6.73417650639,0.00543834204076,6.92896231059,0.0,0.0,0.0,0.0,0.0,0.0,0.0,0.0,0.0
32596000000,382,32596000000,imu_link,0.00135679366977,-0.378935874234,0.00157568956123,0.925420596017,0.0,0.0,0.0,0.0,0.0,0.0,0.0,0.0,0.0,-0.00152038788633,-0.0043277447781,0.00188046683255,0.0,0.0,0.0,0.0,0.0,0.0,0.0,0.0,0.0,6.73465412996,0.0054710131625,6.92649460859,0.0,0.0,0.0,0.0,0.0,0.0,0.0,0.0,0.0
32600000000,383,32600000000,imu_link,0.00135346630604,-0.378943769792,0.00157794983159,0.925417363971,0.0,0.0,0.0,0.0,0.0,0.0,0.0,0.0,0.0,-0.00111538456512,-0.00426157017755,0.00168418178775,0.0,0.0,0.0,0.0,0.0,0.0,0.0,0.0,0.0,6.73601595763,0.00551385464304,6.92653722939,0.0,0.0,0.0,0.0,0.0,0.0,0.0,0.0,0.0
32604000000,384,32604000000,imu_link,0.0013511859455,-0.378951544215,0.00158016787505,0.925414179978,0.0,0.0,0.0,0.0,0.0,0.0,0.0,0.0,0.0,-0.000638864857953,-0.00419726972438,0.00146614547391,0.0,0.0,0.0,0.0,0.0,0.0,0.0,0.0,0.0,6.73586753083,0.00563379811353,6.92517637452,0.0,0.0,0.0,0.0,0.0,0.0,0.0,0.0,0.0
