%time,field.header.seq,field.header.stamp,field.header.frame_id,field.orientation.x,field.orientation.y,field.orientation.z,field.orientation.w,field.orientation_covariance0,field.orientation_covariance1,field.orientation_covariance2,field.orientation_covariance3,field.orientation_covariance4,field.orientation_covariance5,field.orientation_covariance6,field.orientation_covariance7,field.orientation_covariance8,field.angular_velocity.x,field.angular_velocity.y,field.angular_velocity.z,field.angular_velocity_covariance0,field.angular_velocity_covariance1,field.angular_velocity_covariance2,field.angular_velocity_covariance3,field.angular_velocity_covariance4,field.angular_velocity_covariance5,field.angular_velocity_covariance6,field.angular_velocity_covariance7,field.angular_velocity_covariance8,field.linear_acceleration.x,field.linear_acceleration.y,field.linear_acceleration.z,field.linear_acceleration_covariance0,field.linear_acceleration_covariance1,field.linear_acceleration_covariance2,field.linear_acceleration_covariance3,field.linear_acceleration_covariance4,field.linear_acceleration_covariance5,field.linear_acceleration_covariance6,field.linear_acceleration_covariance7,field.linear_acceleration_covariance8
23820000000,0,23820000000,imu_link,-0.000863714642213,-0.317378014217,-0.00159301506579,0.948297375506,0.0,0.0,0.0,0.0,0.0,0.0,0.0,0.0,0.0,-0.00427503952806,-0.203625785009,8.20039145649e-05,0.0,0.0,0.0,0.0,0.0,0.0,0.0,0.0,0.0,4.47938800792,-0.00749109560819,8.89159417126,0.0,0.0,0.0,0.0,0.0,0.0,0.0,0.0,0.0
23824000000,1,23824000000,imu_link,-0.000872058361806,-0.317763475823,-0.00159489926495,0.948168270532,0.0,0.0,0.0,0.0,0.0,0.0,0.0,0.0,0.0,-0.00400389757526,-0.203259503926,0.000161368532614,0.0,0.0,0.0,0.0,0.0,0.0,0.0,0.0,0.0,4.48680685569,-0.00750453223494,8.88713678743,0.0,0.0,0.0,0.0,0.0,0.0,0.0,0.0,0.0
23828000000,2,23828000000,imu_link,-0.000879728800991,-0.318148232954,-0.00159651556442,0.948039228663,0.0,0.0,0.0,0.0,0.0,0.0,0.0,0.0,0.0,-0.00364267588469,-0.202915076763,0.000181761060575,0.0,0.0,0.0,0.0,0.0,0.0,0.0,0.0,0.0,4.49498030568,-0.00726706606559,8.8847061298,0.0,0.0,0.0,0.0,0.0,0.0,0.0,0.0,0.0
23832000000,3,23832000000,imu_link,-0.000886905204733,-0.318532194023,-0.00159798336709,0.947910281208,0.0,0.0,0.0,0.0,0.0,0.0,0.0,0.0,0.0,-0.00338546530831,-0.20252237997,0.000173988728186,0.0,0.0,0.0,0.0,0.0,0.0,0.0,0.0,0.0,4.50286655098,-0.00712463219628,8.88113785572,0.0,0.0,0.0,0.0,0.0,0.0,0.0,0.0,0.0
23836000000,4,23836000000,imu_link,-0.000893759686515,-0.3189152906,-0.0015994146943,0.947781451859,0.0,0.0,0.0,0.0,0.0,0.0,0.0,0.0,0.0,-0.00322771777003,-0.202093598139,0.000140482929389,0.0,0.0,0.0,0.0,0.0,0.0,0.0,0.0,0.0,4.51004933139,-0.00723603417246,8.87650098143,0.0,0.0,0.0,0.0,0.0,0.0,0.0,0.0,0.0
23840000000,5,23840000000,imu_link,-0.000900257150434,-0.319297308611,-0.00160082891785,0.94765281385,0.0,0.0,0.0,0.0,0.0,0.0,0.0,0.0,0.0,-0.00305658002186,-0.201551686943,9.22939717301e-05,0.0,0.0,0.0,0.0,0.0,0.0,0.0,0.0,0.0,4.51656501513,-0.00751444513884,8.87126083142,0.0,0.0,0.0,0.0,0.0,0.0,0.0,0.0,0.0
23844000000,6,23844000000,imu_link,-0.000906195510658,-0.319677887028,-0.00160222797823,0.947524490565,0.0,0.0,0.0,0.0,0.0,0.0,0.0,0.0,0.0,-0.00279025172974,-0.200818883326,1.11184325484e-05,0.0,0.0,0.0,0.0,0.0,0.0,0.0,0.0,0.0,4.52263690989,-0.00764043742353,8.86752107016,0.0,0.0,0.0,0.0,0.0,0.0,0.0,0.0,0.0
23848000000,7,23848000000,imu_link,-0.000911310058504,-0.320057657389,-0.00160359612164,0.947396270807,0.0,0.0,0.0,0.0,0.0,0.0,0.0,0.0,0.0,-0.00239561919586,-0.200418863003,-0.000105462517623,0.0,0.0,0.0,0.0,0.0,0.0,0.0,0.0,0.0,4.52861203794,-0.00735797117081,8.87303431949,0.0,0.0,0.0,0.0,0.0,0.0,0.0,0.0,0.0
23852000000,8,23852000000,imu_link,-0.000915836894197,-0.320437301742,-0.00160504523576,0.947267924467,0.0,0.0,0.0,0.0,0.0,0.0,0.0,0.0,0.0,-0.00213033738345,-0.200378921947,-0.000237913168722,0.0,0.0,0.0,0.0,0.0,0.0,0.0,0.0,0.0,4.53291934945,-0.00697587734312,8.87539609114,0.0,0.0,0.0,0.0,0.0,0.0,0.0,0.0,0.0
23856000000,9,23856000000,imu_link,-0.000919924336061,-0.320817237699,-0.00160668052451,0.947139309876,0.0,0.0,0.0,0.0,0.0,0.0,0.0,0.0,0.0,-0.00195194299574,-0.200559576295,-0.000396839703264,0.0,0.0,0.0,0.0,0.0,0.0,0.0,0.0,0.0,4.53824747415,-0.00681165120962,8.87428561209,0.0,0.0,0.0,0.0,0.0,0.0,0.0,0.0,0.0
23860000000,10,23860000000,imu_link,-0.000923628059807,-0.3211970928,-0.00160855214077,0.947010552765,0.0,0.0,0.0,0.0,0.0,0.0,0.0,0.0,0.0,-0.00180826520385,-0.200543730014,-0.000570386247168,0.0,0.0,0.0,0.0,0.0,0.0,0.0,0.0,0.0,4.54245966731,-0.00668880218549,8.86770696867,0.0,0.0,0.0,0.0,0.0,0.0,0.0,0.0,0.0
23864000000,11,23864000000,imu_link,-0.000927186579652,-0.321575945589,-0.00161065822981,0.946881965888,0.0,0.0,0.0,0.0,0.0,0.0,0.0,0.0,0.0,-0.00177789389629,-0.200041565692,-0.000704130099883,0.0,0.0,0.0,0.0,0.0,0.0,0.0,0.0,0.0,4.55062050604,-0.00652204707658,8.86404869909,0.0,0.0,0.0,0.0,0.0,0.0,0.0,0.0,0.0
23868000000,12,23868000000,imu_link,-0.000930476600885,-0.32195368407,-0.00161290964926,0.946753588876,0.0,0.0,0.0,0.0,0.0,0.0,0.0,0.0,0.0,-0.00167494311204,-0.199479979096,-0.000815421224646,0.0,0.0,0.0,0.0,0.0,0.0,0.0,0.0,0.0,4.55763553864,-0.00633734867304,8.8607934083,0.0,0.0,0.0,0.0,0.0,0.0,0.0,0.0,0.0
23872000000,13,23872000000,imu_link,-0.000933491363058,-0.32233044481,-0.00161519349231,0.946625376848,0.0,0.0,0.0,0.0,0.0,0.0,0.0,0.0,0.0,-0.00155057304902,-0.198990342977,-0.000874492214871,0.0,0.0,0.0,0.0,0.0,0.0,0.0,0.0,0.0,4.56439233376,-0.00610783662294,8.85990520345,0.0,0.0,0.0,0.0,0.0,0.0,0.0,0.0,0.0
23876000000,14,23876000000,imu_link,-0.000936190867645,-0.322706776731,-0.00161736958387,0.946497144166,0.0,0.0,0.0,0.0,0.0,0.0,0.0,0.0,0.0,-0.00138434777863,-0.198790502543,-0.000874117155444,0.0,0.0,0.0,0.0,0.0,0.0,0.0,0.0,0.0,4.56961863867,-0.00583253562279,8.85691005724,0.0,0.0,0.0,0.0,0.0,0.0,0.0,0.0,0.0
23880000000,15,23880000000,imu_link,-0.000938522203424,-0.323082687277,-0.00161934402109,0.946368889009,0.0,0.0,0.0,0.0,0.0,0.0,0.0,0.0,0.0,-0.00117792606895,-0.198594509613,-0.000837910736495,0.0,0.0,0.0,0.0,0.0,0.0,0.0,0.0,0.0,4.57514854288,-0.00589791124288,8.85232681124,0.0,0.0,0.0,0.0,0.0,0.0,0.0,0.0,0.0
23884000000,16,23884000000,imu_link,-0.000940319849388,-0.323457789903,-0.00162112975415,0.946240744149,0.0,0.0,0.0,0.0,0.0,0.0,0.0,0.0,0.0,-0.000895511194817,-0.198194053677,-0.000834363402893,0.0,0.0,0.0,0.0,0.0,0.0,0.0,0.0,0.0,4.58262688046,-0.00618519681907,8.84887787487,0.0,0.0,0.0,0.0,0.0,0.0,0.0,0.0,0.0
23888000000,17,23888000000,imu_link,-0.000941116009001,-0.323832110249,-0.00162266297808,0.946112702397,0.0,0.0,0.0,0.0,0.0,0.0,0.0,0.0,0.0,-0.000381435149813,-0.197806572428,-0.0008764141047,0.0,0.0,0.0,0.0,0.0,0.0,0.0,0.0,0.0,4.58954933073,-0.00634407309062,8.84768799936,0.0,0.0,0.0,0.0,0.0,0.0,0.0,0.0,0.0
23892000000,18,23892000000,imu_link,-0.000940828763601,-0.324205414057,-0.00162394949044,0.945984845082,0.0,0.0,0.0,0.0,0.0,0.0,0.0,0.0,0.0,0.000170285120525,-0.197295066515,-0.000934498316961,0.0,0.0,0.0,0.0,0.0,0.0,0.0,0.0,0.0,4.59514736768,-0.00624124369749,8.84175024155,0.0,0.0,0.0,0.0,0.0,0.0,0.0,0.0,0.0
23896000000,19,23896000000,imu_link,-0.00094008553225,-0.324577732221,-0.00162513156134,0.945857162014,0.0,0.0,0.0,0.0,0.0,0.0,0.0,0.0,0.0,0.000402174929724,-0.196800296973,-0.000958409712861,0.0,0.0,0.0,0.0,0.0,0.0,0.0,0.0,0.0,4.60033976815,-0.00568830699419,8.8379428892,0.0,0.0,0.0,0.0,0.0,0.0,0.0,0.0,0.0
23900000000,20,23900000000,imu_link,-0.000939468551773,-0.324949043175,-0.00162635502346,0.945729661007,0.0,0.0,0.0,0.0,0.0,0.0,0.0,0.0,0.0,0.000335017096809,-0.196294495274,-0.000956874322971,0.0,0.0,0.0,0.0,0.0,0.0,0.0,0.0,0.0,4.60467202558,-0.00536100434431,8.83398360796,0.0,0.0,0.0,0.0,0.0,0.0,0.0,0.0,0.0
23904000000,21,23904000000,imu_link,-0.000939038033237,-0.325318927974,-0.00162764936178,0.945602487342,0.0,0.0,0.0,0.0,0.0,0.0,0.0,0.0,0.0,0.000234324263478,-0.1955670498,-0.000959157769362,0.0,0.0,0.0,0.0,0.0,0.0,0.0,0.0,0.0,4.61050242817,-0.00546567747309,8.82821974582,0.0,0.0,0.0,0.0,0.0,0.0,0.0,0.0,0.0
23908000000,22,23908000000,imu_link,-0.000938699929421,-0.325688075956,-0.00162900472528,0.945475405479,0.0,0.0,0.0,0.0,0.0,0.0,0.0,0.0,0.0,0.000180147604402,-0.195203795859,-0.000972557765434,0.0,0.0,0.0,0.0,0.0,0.0,0.0,0.0,0.0,4.61636741925,-0.00572154064309,8.83092255327,0.0,0.0,0.0,0.0,0.0,0.0,0.0,0.0,0.0
23912000000,23,23912000000,imu_link,-0.000938970111034,-0.326057072018,-0.00163053659077,0.945348213873,0.0,0.0,0.0,0.0,0.0,0.0,0.0,0.0,0.0,-0.000136329417658,-0.195150261546,-0.000956959330011,0.0,0.0,0.0,0.0,0.0,0.0,0.0,0.0,0.0,4.62525015973,-0.00564935559956,8.83706072704,0.0,0.0,0.0,0.0,0.0,0.0,0.0,0.0,0.0
23916000000,24,23916000000,imu_link,-0.000940617257846,-0.32642677706,-0.0016324175717,0.945220614285,0.0,0.0,0.0,0.0,0.0,0.0,0.0,0.0,0.0,-0.000843714580466,-0.19555284945,-0.000898158007925,0.0,0.0,0.0,0.0,0.0,0.0,0.0,0.0,0.0,4.6329729068,-0.00552219617038,8.8425625549,0.0,0.0,0.0,0.0,0.0,0.0,0.0,0.0,0.0
23920000000,25,23920000000,imu_link,-0.000943856189831,-0.326797502824,-0.0016347230951,0.94509249757,0.0,0.0,0.0,0.0,0.0,0.0,0.0,0.0,0.0,-0.00166470982505,-0.196120754808,-0.00083990263541,0.0,0.0,0.0,0.0,0.0,0.0,0.0,0.0,0.0,4.63980536252,-0.00538648566382,8.8396295366,0.0,0.0,0.0,0.0,0.0,0.0,0.0,0.0,0.0
23924000000,26,23924000000,imu_link,-0.000948320459975,-0.327169444805,-0.00163733699079,0.94496379518,0.0,0.0,0.0,0.0,0.0,0.0,0.0,0.0,0.0,-0.00229340878068,-0.19679202831,-0.000786456751852,0.0,0.0,0.0,0.0,0.0,0.0,0.0,0.0,0.0,4.64649609186,-0.00536444896147,8.83531650584,0.0,0.0,0.0,0.0,0.0,0.0,0.0,0.0,0.0
23928000000,27,23928000000,imu_link,-0.000953102889477,-0.32754313402,-0.00164002482078,0.944834322657,0.0,0.0,0.0,0.0,0.0,0.0,0.0,0.0,0.0,-0.00245476261665,-0.1977437722,-0.000770802314408,0.0,0.0,0.0,0.0,0.0,0.0,0.0,0.0,0.0,4.65446179093,-0.0058061063532,8.83896320116,0.0,0.0,0.0,0.0,0.0,0.0,0.0,0.0,0.0
23932000000,28,23932000000,imu_link,-0.000957291528681,-0.327919032492,-0.00164247614722,0.944703918693,0.0,0.0,0.0,0.0,0.0,0.0,0.0,0.0,0.0,-0.00213414556779,-0.198939633066,-0.000758136559421,0.0,0.0,0.0,0.0,0.0,0.0,0.0,0.0,0.0,4.66113179949,-0.00654140865254,8.83929005874,0.0,0.0,0.0,0.0,0.0,0.0,0.0,0.0,0.0
23936000000,29,23936000000,imu_link,-0.000960188907458,-0.328297478271,-0.00164439971766,0.944572464,0.0,0.0,0.0,0.0,0.0,0.0,0.0,0.0,0.0,-0.00143609648545,-0.20031432799,-0.000722646568276,0.0,0.0,0.0,0.0,0.0,0.0,0.0,0.0,0.0,4.66624732827,-0.00684179929403,8.83589676436,0.0,0.0,0.0,0.0,0.0,0.0,0.0,0.0,0.0
23940000000,30,23940000000,imu_link,-0.000961905854349,-0.328678131739,-0.00164581091649,0.944440073144,0.0,0.0,0.0,0.0,0.0,0.0,0.0,0.0,0.0,-0.000793123839077,-0.20150993451,-0.000676256527965,0.0,0.0,0.0,0.0,0.0,0.0,0.0,0.0,0.0,4.67101371435,-0.00654360161247,8.82810760251,0.0,0.0,0.0,0.0,0.0,0.0,0.0,0.0,0.0
23944000000,31,23944000000,imu_link,-0.000963012870982,-0.329060528216,-0.00164691308291,0.944306904059,0.0,0.0,0.0,0.0,0.0,0.0,0.0,0.0,0.0,-0.000453256385599,-0.20246055894,-0.000632039313522,0.0,0.0,0.0,0.0,0.0,0.0,0.0,0.0,0.0,4.67556386708,-0.00595438156028,8.82175422168,0.0,0.0,0.0,0.0,0.0,0.0,0.0,0.0,0.0
23948000000,32,23948000000,imu_link,-0.000963945872325,-0.3294446685,-0.00164793453581,0.94417295318,0.0,0.0,0.0,0.0,0.0,0.0,0.0,0.0,0.0,-0.000356755130312,-0.20341242796,-0.000624044353604,0.0,0.0,0.0,0.0,0.0,0.0,0.0,0.0,0.0,4.68068875507,-0.00537359890182,8.82124413618,0.0,0.0,0.0,0.0,0.0,0.0,0.0,0.0,0.0
23952000000,33,23952000000,imu_link,-0.00096474373683,-0.329830209153,-0.0016490055099,0.94403833777,0.0,0.0,0.0,0.0,0.0,0.0,0.0,0.0,0.0,-0.000300282524532,-0.204182851388,-0.000670905185955,0.0,0.0,0.0,0.0,0.0,0.0,0.0,0.0,0.0,4.68734521844,-0.00523342056996,8.81922410387,0.0,0.0,0.0,0.0,0.0,0.0,0.0,0.0,0.0
23956000000,34,23956000000,imu_link,-0.000965133611329,-0.330217154987,-0.00165016277658,0.943903054361,0.0,0.0,0.0,0.0,0.0,0.0,0.0,0.0,0.0,-0.000121098009763,-0.204955908494,-0.000780149260248,0.0,0.0,0.0,0.0,0.0,0.0,0.0,0.0,0.0,4.69284646399,-0.00539091045754,8.81523586994,0.0,0.0,0.0,0.0,0.0,0.0,0.0,0.0,0.0
23960000000,35,23960000000,imu_link,-0.00096517910077,-0.330605231276,-0.00165141858113,0.943767197088,0.0,0.0,0.0,0.0,0.0,0.0,0.0,0.0,0.0,2.5821402414e-05,-0.205583847657,-0.000884534294512,0.0,0.0,0.0,0.0,0.0,0.0,0.0,0.0,0.0,4.69951097959,-0.00533587599014,8.80814657242,0.0,0.0,0.0,0.0,0.0,0.0,0.0,0.0,0.0
23964000000,36,23964000000,imu_link,-0.000965071910296,-0.330993992157,-0.00165275732783,0.943630920533,0.0,0.0,0.0,0.0,0.0,0.0,0.0,0.0,0.0,8.45209326798e-05,-0.205976037314,-0.000949588311825,0.0,0.0,0.0,0.0,0.0,0.0,0.0,0.0,0.0,4.70606226778,-0.00534712279579,8.80188763873,0.0,0.0,0.0,0.0,0.0,0.0,0.0,0.0,0.0
23968000000,37,23968000000,imu_link,-0.000965319482427,-0.331383232029,-0.0016541907049,0.943494295341,0.0,0.0,0.0,0.0,0.0,0.0,0.0,0.0,0.0,-9.82950091459e-05,-0.206259978822,-0.000936043476809,0.0,0.0,0.0,0.0,0.0,0.0,0.0,0.0,0.0,4.71412690958,-0.00525359256084,8.80177862582,0.0,0.0,0.0,0.0,0.0,0.0,0.0,0.0,0.0
23972000000,38,23972000000,imu_link,-0.000966352231381,-0.331772686962,-0.00165581532718,0.94335741298,0.0,0.0,0.0,0.0,0.0,0.0,0.0,0.0,0.0,-0.000500333945685,-0.206404600938,-0.000896482138238,0.0,0.0,0.0,0.0,0.0,0.0,0.0,0.0,0.0,4.72081853993,-0.00513408261533,8.7978883476,0.0,0.0,0.0,0.0,0.0,0.0,0.0,0.0,0.0
23976000000,39,23976000000,imu_link,-0.00096814580274,-0.332162235937,-0.00165768036695,0.943220315624,0.0,0.0,0.0,0.0,0.0,0.0,0.0,0.0,0.0,-0.000899105709904,-0.206485136998,-0.000883895340131,0.0,0.0,0.0,0.0,0.0,0.0,0.0,0.0,0.0,4.72693217658,-0.0053522860459,8.79361876894,0.0,0.0,0.0,0.0,0.0,0.0,0.0,0.0,0.0
23980000000,40,23980000000,imu_link,-0.000970238121877,-0.332552037423,-0.00165971174287,0.943082947784,0.0,0.0,0.0,0.0,0.0,0.0,0.0,0.0,0.0,-0.00106754514911,-0.206649313074,-0.000913071220096,0.0,0.0,0.0,0.0,0.0,0.0,0.0,0.0,0.0,4.73330680727,-0.00605166415654,8.79018431956,0.0,0.0,0.0,0.0,0.0,0.0,0.0,0.0,0.0
23984000000,41,23984000000,imu_link,-0.00097198198716,-0.332942038875,-0.00166177551386,0.94294532848,0.0,0.0,0.0,0.0,0.0,0.0,0.0,0.0,0.0,-0.000908577259028,-0.206785113126,-0.00098659204689,0.0,0.0,0.0,0.0,0.0,0.0,0.0,0.0,0.0,4.73897148279,-0.0062818360183,8.78637175469,0.0,0.0,0.0,0.0,0.0,0.0,0.0,0.0,0.0
23988000000,42,23988000000,imu_link,-0.000972868105004,-0.333332684774,-0.00166370940956,0.942807301022,0.0,0.0,0.0,0.0,0.0,0.0,0.0,0.0,0.0,-0.000482215176784,-0.207156248666,-0.00106880182044,0.0,0.0,0.0,0.0,0.0,0.0,0.0,0.0,0.0,4.74496280638,-0.00596991829595,8.7902583955,0.0,0.0,0.0,0.0,0.0,0.0,0.0,0.0,0.0
23992000000,43,23992000000,imu_link,-0.000972577837246,-0.333723675214,-0.00166533324968,0.942668971251,0.0,0.0,0.0,0.0,0.0,0.0,0.0,0.0,0.0,0.000124152724107,-0.207368224489,-0.00111912345716,0.0,0.0,0.0,0.0,0.0,0.0,0.0,0.0,0.0,4.74882828516,-0.00555292516641,8.78647758764,0.0,0.0,0.0,0.0,0.0,0.0,0.0,0.0,0.0
23996000000,44,23996000000,imu_link,-0.000970727214188,-0.334114608031,-0.00166647124587,0.942530481875,0.0,0.0,0.0,0.0,0.0,0.0,0.0,0.0,0.0,0.000940545272616,-0.207366633193,-0.0011505970897,0.0,0.0,0.0,0.0,0.0,0.0,0.0,0.0,0.0,4.75275566218,-0.00521177969631,8.78008043786,0.0,0.0,0.0,0.0,0.0,0.0,0.0,0.0,0.0
24000000000,45,24000000000,imu_link,-0.000967010044945,-0.334505120928,-0.00166706399079,0.942391961904,0.0,0.0,0.0,0.0,0.0,0.0,0.0,0.0,0.0,0.00191090715895,-0.2071725603,-0.00120528097761,0.0,0.0,0.0,0.0,0.0,0.0,0.0,0.0,0.0,4.75796905783,-0.00499798125932,8.772371946,0.0,0.0,0.0,0.0,0.0,0.0,0.0,0.0,0.0
24004000000,46,24004000000,imu_link,-0.000961672616919,-0.334894999781,-0.00166724021249,0.942253487453,0.0,0.0,0.0,0.0,0.0,0.0,0.0,0.0,0.0,0.0027435247442,-0.206865038832,-0.00127966483951,0.0,0.0,0.0,0.0,0.0,0.0,0.0,0.0,0.0,4.76471195873,-0.0047436384123,8.76891759553,0.0,0.0,0.0,0.0,0.0,0.0,0.0,0.0,0.0
24008000000,47,24008000000,imu_link,-0.000955287989877,-0.335284493683,-0.00166718438728,0.942114969745,0.0,0.0,0.0,0.0,0.0,0.0,0.0,0.0,0.0,0.00327540222503,-0.206690159863,-0.00134554315774,0.0,0.0,0.0,0.0,0.0,0.0,0.0,0.0,0.0,4.77307547714,-0.00436787184807,8.76954213271,0.0,0.0,0.0,0.0,0.0,0.0,0.0,0.0,0.0
24012000000,48,24012000000,imu_link,-0.000948219912103,-0.335673399995,-0.00166697594668,0.94197648092,0.0,0.0,0.0,0.0,0.0,0.0,0.0,0.0,0.0,0.00362245560847,-0.206408032053,-0.00138792301897,0.0,0.0,0.0,0.0,0.0,0.0,0.0,0.0,0.0,4.77975349555,-0.00415630310474,8.76433846185,0.0,0.0,0.0,0.0,0.0,0.0,0.0,0.0,0.0
24016000000,49,24016000000,imu_link,-0.000940708524179,-0.336061739649,-0.0016666619576,0.941838013912,0.0,0.0,0.0,0.0,0.0,0.0,0.0,0.0,0.0,0.00384850244321,-0.206137161767,-0.00141232780171,0.0,0.0,0.0,0.0,0.0,0.0,0.0,0.0,0.0,4.78558917129,-0.00400186390636,8.75944681227,0.0,0.0,0.0,0.0,0.0,0.0,0.0,0.0,0.0
24020000000,50,24020000000,imu_link,-0.00093305832201,-0.336449244021,-0.00166633697022,0.941699664925,0.0,0.0,0.0,0.0,0.0,0.0,0.0,0.0,0.0,0.00391508021448,-0.205723869963,-0.00142998234187,0.0,0.0,0.0,0.0,0.0,0.0,0.0,0.0,0.0,4.79139593913,-0.00406467137772,8.75474701255,0.0,0.0,0.0,0.0,0.0,0.0,0.0,0.0,0.0
24024000000,51,24024000000,imu_link,-0.000925546758601,-0.336835736759,-0.00166612853146,0.941561497631,0.0,0.0,0.0,0.0,0.0,0.0,0.0,0.0,0.0,0.00382943772542,-0.205217037901,-0.00146091344764,0.0,0.0,0.0,0.0,0.0,0.0,0.0,0.0,0.0,4.79641707048,-0.00440496323971,8.75006851246,0.0,0.0,0.0,0.0,0.0,0.0,0.0,0.0,0.0
24028000000,52,24028000000,imu_link,-0.000918344222819,-0.33722161072,-0.00166611508992,0.941423372329,0.0,0.0,0.0,0.0,0.0,0.0,0.0,0.0,0.0,0.00365061638505,-0.204918824338,-0.00150034728363,0.0,0.0,0.0,0.0,0.0,0.0,0.0,0.0,0.0,4.80158940779,-0.00489221116503,8.75012314582,0.0,0.0,0.0,0.0,0.0,0.0,0.0,0.0,0.0
24032000000,53,24032000000,imu_link,-0.000912057717542,-0.337606621782,-0.0016664353849,0.941285376532,0.0,0.0,0.0,0.0,0.0,0.0,0.0,0.0,0.0,0.00316249911735,-0.204491421732,-0.00150248421717,0.0,0.0,0.0,0.0,0.0,0.0,0.0,0.0,0.0,4.8071869751,-0.00494569115411,8.75084909266,0.0,0.0,0.0,0.0,0.0,0.0,0.0,0.0,0.0
24036000000,54,24036000000,imu_link,-0.000907223512108,-0.337990852129,-0.00166709243031,0.941147481336,0.0,0.0,0.0,0.0,0.0,0.0,0.0,0.0,0.0,0.00242153553643,-0.204108058465,-0.00141538046181,0.0,0.0,0.0,0.0,0.0,0.0,0.0,0.0,0.0,4.81213871369,-0.00464605268791,8.75069216059,0.0,0.0,0.0,0.0,0.0,0.0,0.0,0.0,0.0
24040000000,55,24040000000,imu_link,-0.000904678168377,-0.338374328354,-0.001668169655,0.94100967725,0.0,0.0,0.0,0.0,0.0,0.0,0.0,0.0,0.0,0.00127286158354,-0.203739508546,-0.00122588060012,0.0,0.0,0.0,0.0,0.0,0.0,0.0,0.0,0.0,4.81643882371,-0.00437245650745,8.75009390739,0.0,0.0,0.0,0.0,0.0,0.0,0.0,0.0,0.0
24044000000,56,24044000000,imu_link,-0.000904399571382,-0.338756694862,-0.00166957634776,0.940872093466,0.0,0.0,0.0,0.0,0.0,0.0,0.0,0.0,0.0,0.000149778467347,-0.203181850542,-0.000996706730932,0.0,0.0,0.0,0.0,0.0,0.0,0.0,0.0,0.0,4.82158363001,-0.00459426585396,8.74366060616,0.0,0.0,0.0,0.0,0.0,0.0,0.0,0.0,0.0
24048000000,57,24048000000,imu_link,-0.000905695656619,-0.339138099055,-0.00167108940273,0.940734679357,0.0,0.0,0.0,0.0,0.0,0.0,0.0,0.0,0.0,-0.000609750935393,-0.202701669709,-0.000779449452349,0.0,0.0,0.0,0.0,0.0,0.0,0.0,0.0,0.0,4.8265112735,-0.00513542058353,8.74166786784,0.0,0.0,0.0,0.0,0.0,0.0,0.0,0.0,0.0
24052000000,58,24052000000,imu_link,-0.000907671079967,-0.339518298415,-0.00167246447991,0.940597525001,0.0,0.0,0.0,0.0,0.0,0.0,0.0,0.0,0.0,-0.00090678172209,-0.202091539808,-0.000598591836566,0.0,0.0,0.0,0.0,0.0,0.0,0.0,0.0,0.0,4.83434339496,-0.00556214376907,8.74049894179,0.0,0.0,0.0,0.0,0.0,0.0,0.0,0.0,0.0
24056000000,59,24056000000,imu_link,-0.000909298102228,-0.339897421879,-0.0016735339509,0.94046058666,0.0,0.0,0.0,0.0,0.0,0.0,0.0,0.0,0.0,-0.000691851319803,-0.201548723697,-0.000513340967937,0.0,0.0,0.0,0.0,0.0,0.0,0.0,0.0,0.0,4.84327475037,-0.00576004421368,8.74204943186,0.0,0.0,0.0,0.0,0.0,0.0,0.0,0.0,0.0
24060000000,60,24060000000,imu_link,-0.000909782008055,-0.340275943859,-0.00167416140527,0.940323695071,0.0,0.0,0.0,0.0,0.0,0.0,0.0,0.0,0.0,-7.96851856625e-05,-0.201257186524,-0.000499449940078,0.0,0.0,0.0,0.0,0.0,0.0,0.0,0.0,0.0,4.85146790022,-0.00565112570821,8.74396044883,0.0,0.0,0.0,0.0,0.0,0.0,0.0,0.0,0.0
24064000000,61,24064000000,imu_link,-0.000908933305486,-0.340654120989,-0.00167435153278,0.940186758171,0.0,0.0,0.0,0.0,0.0,0.0,0.0,0.0,0.0,0.000620953124318,-0.201101843886,-0.000520443885432,0.0,0.0,0.0,0.0,0.0,0.0,0.0,0.0,0.0,4.85801412302,-0.00523165631877,8.73906045449,0.0,0.0,0.0,0.0,0.0,0.0,0.0,0.0,0.0
24068000000,62,24068000000,imu_link,-0.000906951902132,-0.341032149925,-0.00167420752472,0.940049704635,0.0,0.0,0.0,0.0,0.0,0.0,0.0,0.0,0.0,0.00121016356801,-0.201051248887,-0.00055632886274,0.0,0.0,0.0,0.0,0.0,0.0,0.0,0.0,0.0,4.86456472995,-0.00507460350335,8.73525471619,0.0,0.0,0.0,0.0,0.0,0.0,0.0,0.0,0.0
24072000000,63,24072000000,imu_link,-0.000904109851818,-0.341410089993,-0.00167384837737,0.93991251256,0.0,0.0,0.0,0.0,0.0,0.0,0.0,0.0,0.0,0.00165123655472,-0.201032478966,-0.000602037869442,0.0,0.0,0.0,0.0,0.0,0.0,0.0,0.0,0.0,4.87076533422,-0.00540204518949,8.7317680347,0.0,0.0,0.0,0.0,0.0,0.0,0.0,0.0,0.0
24076000000,64,24076000000,imu_link,-0.000900681879433,-0.341788199239,-0.00167335726572,0.939775087725,0.0,0.0,0.0,0.0,0.0,0.0,0.0,0.0,0.0,0.00194915766363,-0.201151287402,-0.000640311551952,0.0,0.0,0.0,0.0,0.0,0.0,0.0,0.0,0.0,4.87626488893,-0.00563721366544,8.72979653813,0.0,0.0,0.0,0.0,0.0,0.0,0.0,0.0,0.0
24080000000,65,24080000000,imu_link,-0.000896552510752,-0.342166552593,-0.00167269438917,0.939637402711,0.0,0.0,0.0,0.0,0.0,0.0,0.0,0.0,0.0,0.002308175753,-0.20130994489,-0.00067979348151,0.0,0.0,0.0,0.0,0.0,0.0,0.0,0.0,0.0,4.88074044127,-0.00571199306098,8.72671136635,0.0,0.0,0.0,0.0,0.0,0.0,0.0,0.0,0.0
24084000000,66,24084000000,imu_link,-0.000891275690513,-0.342545997492,-0.00167173642599,0.939499148764,0.0,0.0,0.0,0.0,0.0,0.0,0.0,0.0,0.0,0.00289841226268,-0.201919280337,-0.000738431175245,0.0,0.0,0.0,0.0,0.0,0.0,0.0,0.0,0.0,4.88555905276,-0.00558526279064,8.73288950044,0.0,0.0,0.0,0.0,0.0,0.0,0.0,0.0,0.0
24088000000,67,24088000000,imu_link,-0.000884786140231,-0.342927227868,-0.00167050579538,0.93936007098,0.0,0.0,0.0,0.0,0.0,0.0,0.0,0.0,0.0,0.00351591759639,-0.202898216708,-0.000819537983082,0.0,0.0,0.0,0.0,0.0,0.0,0.0,0.0,0.0,4.88915571996,-0.00517648217812,8.73692097324,0.0,0.0,0.0,0.0,0.0,0.0,0.0,0.0,0.0
24092000000,68,24092000000,imu_link,-0.000876753465506,-0.343310372624,-0.0016689344341,0.939220120105,0.0,0.0,0.0,0.0,0.0,0.0,0.0,0.0,0.0,0.00430032806338,-0.203945928624,-0.000925669450312,0.0,0.0,0.0,0.0,0.0,0.0,0.0,0.0,0.0,4.89509401327,-0.00491936293902,8.73706166133,0.0,0.0,0.0,0.0,0.0,0.0,0.0,0.0,0.0
24096000000,69,24096000000,imu_link,-0.000867469153963,-0.343695507805,-0.00166703073209,0.939079265249,0.0,0.0,0.0,0.0,0.0,0.0,0.0,0.0,0.0,0.00494642203202,-0.205034926296,-0.000986075756821,0.0,0.0,0.0,0.0,0.0,0.0,0.0,0.0,0.0,4.90071646362,-0.00462894375665,8.73681341714,0.0,0.0,0.0,0.0,0.0,0.0,0.0,0.0,0.0
24100000000,70,24100000000,imu_link,-0.000857938353047,-0.344082097246,-0.00166492366986,0.938937698852,0.0,0.0,0.0,0.0,0.0,0.0,0.0,0.0,0.0,0.00509800910103,-0.205839918291,-0.000934172561348,0.0,0.0,0.0,0.0,0.0,0.0,0.0,0.0,0.0,4.90868603616,-0.00411050851718,8.73456943848,0.0,0.0,0.0,0.0,0.0,0.0,0.0,0.0,0.0
24104000000,71,24104000000,imu_link,-0.000848837246086,-0.344469284626,-0.00166267616667,0.938795732272,0.0,0.0,0.0,0.0,0.0,0.0,0.0,0.0,0.0,0.00492076886818,-0.206189898677,-0.000794904527817,0.0,0.0,0.0,0.0,0.0,0.0,0.0,0.0,0.0,4.91624122355,-0.00389185243967,8.73018443035,0.0,0.0,0.0,0.0,0.0,0.0,0.0,0.0,0.0
24108000000,72,24108000000,imu_link,-0.000840268790927,-0.344856491016,-0.00166022691503,0.938653577311,0.0,0.0,0.0,0.0,0.0,0.0,0.0,0.0,0.0,0.00470542715399,-0.206231795806,-0.000608627801188,0.0,0.0,0.0,0.0,0.0,0.0,0.0,0.0,0.0,4.92223045797,-0.00386208171365,8.7240141842,0.0,0.0,0.0,0.0,0.0,0.0,0.0,0.0,0.0
24112000000,73,24112000000,imu_link,-0.00083216128658,-0.345243117562,-0.00165757484869,0.938511454235,0.0,0.0,0.0,0.0,0.0,0.0,0.0,0.0,0.0,0.00452359361529,-0.205954629473,-0.000433690395897,0.0,0.0,0.0,0.0,0.0,0.0,0.0,0.0,0.0,4.92908334879,-0.00386029090287,8.71830420101,0.0,0.0,0.0,0.0,0.0,0.0,0.0,0.0,0.0
24116000000,74,24116000000,imu_link,-0.000824524297924,-0.345628740971,-0.00165478931488,0.938369519564,0.0,0.0,0.0,0.0,0.0,0.0,0.0,0.0,0.0,0.00432508778073,-0.205451824519,-0.000289265327444,0.0,0.0,0.0,0.0,0.0,0.0,0.0,0.0,0.0,4.93537422388,-0.00418394032847,8.70991390829,0.0,0.0,0.0,0.0,0.0,0.0,0.0,0.0,0.0
24120000000,75,24120000000,imu_link,-0.000817325240917,-0.346013106212,-0.00165191824619,0.938227868631,0.0,0.0,0.0,0.0,0.0,0.0,0.0,0.0,0.0,0.00413347453559,-0.204812874078,-0.000172699311391,0.0,0.0,0.0,0.0,0.0,0.0,0.0,0.0,0.0,4.94120090383,-0.00491580502377,8.70192129939,0.0,0.0,0.0,0.0,0.0,0.0,0.0,0.0,0.0
24124000000,76,24124000000,imu_link,-0.000810744125093,-0.346395621125,-0.00164899514297,0.938086721564,0.0,0.0,0.0,0.0,0.0,0.0,0.0,0.0,0.0,0.0038512696222,-0.203858219196,-4.02089672066e-05,0.0,0.0,0.0,0.0,0.0,0.0,0.0,0.0,0.0,4.94699191411,-0.00523202647879,8.69502521366,0.0,0.0,0.0,0.0,0.0,0.0,0.0,0.0,0.0
24128000000,77,24128000000,imu_link,-0.000805221026178,-0.346776253141,-0.00164610867973,0.937946092376,0.0,0.0,0.0,0.0,0.0,0.0,0.0,0.0,0.0,0.00334732529436,-0.202886220336,0.000127041779858,0.0,0.0,0.0,0.0,0.0,0.0,0.0,0.0,0.0,4.95185024772,-0.00517343266493,8.69233055072,0.0,0.0,0.0,0.0,0.0,0.0,0.0,0.0,0.0
24132000000,78,24132000000,imu_link,-0.000801333080382,-0.347154869524,-0.00164341896159,0.937806031973,0.0,0.0,0.0,0.0,0.0,0.0,0.0,0.0,0.0,0.00254493924745,-0.201843588793,0.000319569441046,0.0,0.0,0.0,0.0,0.0,0.0,0.0,0.0,0.0,4.95552259688,-0.00514306310505,8.68912981742,0.0,0.0,0.0,0.0,0.0,0.0,0.0,0.0,0.0
24136000000,79,24136000000,imu_link,-0.000799225512466,-0.347531593553,-0.00164099738808,0.937666497135,0.0,0.0,0.0,0.0,0.0,0.0,0.0,0.0,0.0,0.00166222636883,-0.200866387223,0.000504059116304,0.0,0.0,0.0,0.0,0.0,0.0,0.0,0.0,0.0,4.95897976192,-0.00529070400211,8.68634959002,0.0,0.0,0.0,0.0,0.0,0.0,0.0,0.0,0.0
24140000000,80,24140000000,imu_link,-0.000798507265388,-0.347906788971,-0.001638780632,0.937527355853,0.0,0.0,0.0,0.0,0.0,0.0,0.0,0.0,0.0,0.000974179295772,-0.200082395352,0.000650384115477,0.0,0.0,0.0,0.0,0.0,0.0,0.0,0.0,0.0,4.96342188254,-0.00580575000098,8.68494763527,0.0,0.0,0.0,0.0,0.0,0.0,0.0,0.0,0.0
24144000000,81,24144000000,imu_link,-0.000799014447378,-0.34828066604,-0.0016368517528,0.937388532016,0.0,0.0,0.0,0.0,0.0,0.0,0.0,0.0,0.0,0.000348711944953,-0.199410069189,0.000729391908392,0.0,0.0,0.0,0.0,0.0,0.0,0.0,0.0,0.0,4.96911290677,-0.00611282407485,8.68492512659,0.0,0.0,0.0,0.0,0.0,0.0,0.0,0.0,0.0
24148000000,82,24148000000,imu_link,-0.000800377241864,-0.348653861443,-0.00163524071189,0.937249790763,0.0,0.0,0.0,0.0,0.0,0.0,0.0,0.0,0.0,-0.00010818212852,-0.199076767788,0.000729759487777,0.0,0.0,0.0,0.0,0.0,0.0,0.0,0.0,0.0,4.97782163789,-0.00612895499228,8.69298253847,0.0,0.0,0.0,0.0,0.0,0.0,0.0,0.0,0.0
24152000000,83,24152000000,imu_link,-0.000802348955812,-0.349026915774,-0.00163395210418,0.937110931802,0.0,0.0,0.0,0.0,0.0,0.0,0.0,0.0,0.0,-0.00044990821204,-0.199031547221,0.000684770536163,0.0,0.0,0.0,0.0,0.0,0.0,0.0,0.0,0.0,4.98586713543,-0.00615590043949,8.69671656928,0.0,0.0,0.0,0.0,0.0,0.0,0.0,0.0,0.0
24156000000,84,24156000000,imu_link,-0.000804810761066,-0.349400442597,-0.00163296181979,0.93697172659,0.0,0.0,0.0,0.0,0.0,0.0,0.0,0.0,0.0,-0.000731357521534,-0.199313641605,0.000630044610949,0.0,0.0,0.0,0.0,0.0,0.0,0.0,0.0,0.0,4.99208799058,-0.00605606836132,8.69560820766,0.0,0.0,0.0,0.0,0.0,0.0,0.0,0.0,0.0
24160000000,85,24160000000,imu_link,-0.000807748984691,-0.349774536463,-0.00163222592776,0.936832139192,0.0,0.0,0.0,0.0,0.0,0.0,0.0,0.0,0.0,-0.000998686030021,-0.19964634828,0.000593555547796,0.0,0.0,0.0,0.0,0.0,0.0,0.0,0.0,0.0,4.99656033697,-0.00618328995001,8.68688139245,0.0,0.0,0.0,0.0,0.0,0.0,0.0,0.0,0.0
24164000000,86,24164000000,imu_link,-0.000810972538053,-0.350149103706,-0.00163161051296,0.936692204166,0.0,0.0,0.0,0.0,0.0,0.0,0.0,0.0,0.0,-0.00115316307962,-0.199929065338,0.000586547727891,0.0,0.0,0.0,0.0,0.0,0.0,0.0,0.0,0.0,5.00210240945,-0.0066015971019,8.68305414055,0.0,0.0,0.0,0.0,0.0,0.0,0.0,0.0,0.0
24168000000,87,24168000000,imu_link,-0.000814181751642,-0.350524436845,-0.0016309399826,0.93655181187,0.0,0.0,0.0,0.0,0.0,0.0,0.0,0.0,0.0,-0.00113635836442,-0.200367837317,0.000609166751145,0.0,0.0,0.0,0.0,0.0,0.0,0.0,0.0,0.0,5.00760213145,-0.00710532764324,8.68304645629,0.0,0.0,0.0,0.0,0.0,0.0,0.0,0.0,0.0
24172000000,88,24172000000,imu_link,-0.000817373218287,-0.350900401939,-0.00163018700581,0.936411011421,0.0,0.0,0.0,0.0,0.0,0.0,0.0,0.0,0.0,-0.00111324896864,-0.200735319033,0.000644073962884,0.0,0.0,0.0,0.0,0.0,0.0,0.0,0.0,0.0,5.01343544419,-0.00712077435678,8.68132123836,0.0,0.0,0.0,0.0,0.0,0.0,0.0,0.0,0.0
24176000000,89,24176000000,imu_link,-0.000820820005231,-0.351277025222,-0.0016294383809,0.936269791639,0.0,0.0,0.0,0.0,0.0,0.0,0.0,0.0,0.0,-0.00123318977581,-0.201117265423,0.000686221603241,0.0,0.0,0.0,0.0,0.0,0.0,0.0,0.0,0.0,5.0175240586,-0.00665035247524,8.67789351368,0.0,0.0,0.0,0.0,0.0,0.0,0.0,0.0,0.0
24180000000,90,24180000000,imu_link,-0.000825167060165,-0.351654332239,-0.00162888345271,0.936128141045,0.0,0.0,0.0,0.0,0.0,0.0,0.0,0.0,0.0,-0.00168827703675,-0.201513666568,0.000753035545218,0.0,0.0,0.0,0.0,0.0,0.0,0.0,0.0,0.0,5.02158109383,-0.00621789497166,8.67554727085,0.0,0.0,0.0,0.0,0.0,0.0,0.0,0.0,0.0
24184000000,91,24184000000,imu_link,-0.000830600487437,-0.35203203697,-0.00162855638019,0.935986165952,0.0,0.0,0.0,0.0,0.0,0.0,0.0,0.0,0.0,-0.00223664212504,-0.20175766868,0.000836969891989,0.0,0.0,0.0,0.0,0.0,0.0,0.0,0.0,0.0,5.02720385426,-0.00626372089415,8.67169839362,0.0,0.0,0.0,0.0,0.0,0.0,0.0,0.0,0.0
24188000000,92,24188000000,imu_link,-0.000836818981107,-0.3524102048,-0.00162839040499,0.935843841478,0.0,0.0,0.0,0.0,0.0,0.0,0.0,0.0,0.0,-0.00263217151818,-0.202036464817,0.000899284909098,0.0,0.0,0.0,0.0,0.0,0.0,0.0,0.0,0.0,5.03276110603,-0.0066858417825,8.67158986307,0.0,0.0,0.0,0.0,0.0,0.0,0.0,0.0,0.0
24192000000,93,24192000000,imu_link,-0.000843539881257,-0.352788403699,-0.00162837188169,0.935701330052,0.0,0.0,0.0,0.0,0.0,0.0,0.0,0.0,0.0,-0.00289329324802,-0.202084292202,0.00091865030193,0.0,0.0,0.0,0.0,0.0,0.0,0.0,0.0,0.0,5.04094853952,-0.00691428410853,8.66840281105,0.0,0.0,0.0,0.0,0.0,0.0,0.0,0.0,0.0
24196000000,94,24196000000,imu_link,-0.00084995212043,-0.353166737975,-0.00162837910877,0.935558593115,0.0,0.0,0.0,0.0,0.0,0.0,0.0,0.0,0.0,-0.00275341310239,-0.202187145169,0.000851916253134,0.0,0.0,0.0,0.0,0.0,0.0,0.0,0.0,0.0,5.04831725837,-0.00725650955573,8.66797113195,0.0,0.0,0.0,0.0,0.0,0.0,0.0,0.0,0.0
24200000000,95,24200000000,imu_link,-0.000855582547338,-0.353545234124,-0.00162834448518,0.935415620941,0.0,0.0,0.0,0.0,0.0,0.0,0.0,0.0,0.0,-0.00238027552237,-0.202303785966,0.000733177760358,0.0,0.0,0.0,0.0,0.0,0.0,0.0,0.0,0.0,5.05473181078,-0.00721291885333,8.66517104933,0.0,0.0,0.0,0.0,0.0,0.0,0.0,0.0,0.0
24204000000,96,24204000000,imu_link,-0.000860638364977,-0.353923828221,-0.00162834023835,0.935272437115,0.0,0.0,0.0,0.0,0.0,0.0,0.0,0.0,0.0,-0.00211690683553,-0.202386530038,0.000617180894234,0.0,0.0,0.0,0.0,0.0,0.0,0.0,0.0,0.0,5.05971452895,-0.00677808008476,8.65818971723,0.0,0.0,0.0,0.0,0.0,0.0,0.0,0.0,0.0
24208000000,97,24208000000,imu_link,-0.00086565369818,-0.35430269148,-0.00162845404653,0.935128975912,0.0,0.0,0.0,0.0,0.0,0.0,0.0,0.0,0.0,-0.00211876630371,-0.202561402068,0.000554468227813,0.0,0.0,0.0,0.0,0.0,0.0,0.0,0.0,0.0,5.06707292374,-0.00665256899631,8.65795306413,0.0,0.0,0.0,0.0,0.0,0.0,0.0,0.0,0.0
24212000000,98,24212000000,imu_link,-0.000871103065665,-0.354681861167,-0.00162876148726,0.934985222169,0.0,0.0,0.0,0.0,0.0,0.0,0.0,0.0,0.0,-0.00235588472438,-0.202756770449,0.000540451458348,0.0,0.0,0.0,0.0,0.0,0.0,0.0,0.0,0.0,5.07278657589,-0.00695100137818,8.65355779158,0.0,0.0,0.0,0.0,0.0,0.0,0.0,0.0,0.0
24216000000,99,24216000000,imu_link,-0.000877055277191,-0.35506098269,-0.00162922404031,0.934841310049,0.0,0.0,0.0,0.0,0.0,0.0,0.0,0.0,0.0,-0.00261857658753,-0.202762682428,0.000557004425682,0.0,0.0,0.0,0.0,0.0,0.0,0.0,0.0,0.0,5.07699269475,-0.00703860761888,8.64477735996,0.0,0.0,0.0,0.0,0.0,0.0,0.0,0.0,0.0
24220000000,100,24220000000,imu_link,-0.000883271332537,-0.355439788951,-0.00162972752462,0.934697341523,0.0,0.0,0.0,0.0,0.0,0.0,0.0,0.0,0.0,-0.00274945074962,-0.202625533359,0.000584804931605,0.0,0.0,0.0,0.0,0.0,0.0,0.0,0.0,0.0,5.0800295824,-0.00678602711529,8.63682892107,0.0,0.0,0.0,0.0,0.0,0.0,0.0,0.0,0.0
24224000000,101,24224000000,imu_link,-0.000889367843381,-0.355817995242,-0.00163015383062,0.934553425913,0.0,0.0,0.0,0.0,0.0,0.0,0.0,0.0,0.0,-0.00268033118141,-0.202335670621,0.000599936767193,0.0,0.0,0.0,0.0,0.0,0.0,0.0,0.0,0.0,5.08206128274,-0.00660871472618,8.62937828887,0.0,0.0,0.0,0.0,0.0,0.0,0.0,0.0,0.0
24228000000,102,24228000000,imu_link,-0.00089524316793,-0.356195116804,-0.00163056541669,0.934409748751,0.0,0.0,0.0,0.0,0.0,0.0,0.0,0.0,0.0,-0.00257513526165,-0.201786205988,0.000568140729241,0.0,0.0,0.0,0.0,0.0,0.0,0.0,0.0,0.0,5.08413071859,-0.00630638235581,8.61824048027,0.0,0.0,0.0,0.0,0.0,0.0,0.0,0.0,0.0
24232000000,103,24232000000,imu_link,-0.000900567858742,-0.356570545953,-0.00163092465183,0.934266543777,0.0,0.0,0.0,0.0,0.0,0.0,0.0,0.0,0.0,-0.00230972133356,-0.200910980856,0.000495675337523,0.0,0.0,0.0,0.0,0.0,0.0,0.0,0.0,0.0,5.08773920152,-0.0063264529886,8.6061986145,0.0,0.0,0.0,0.0,0.0,0.0,0.0,0.0,0.0
24236000000,104,24236000000,imu_link,-0.000905306607108,-0.356943343829,-0.00163123369125,0.934124172042,0.0,0.0,0.0,0.0,0.0,0.0,0.0,0.0,0.0,-0.0020288294498,-0.199532816195,0.000416522803753,0.0,0.0,0.0,0.0,0.0,0.0,0.0,0.0,0.0,5.09076336292,-0.00632422731136,8.58892601673,0.0,0.0,0.0,0.0,0.0,0.0,0.0,0.0,0.0
24240000000,105,24240000000,imu_link,-0.000909732087951,-0.357312419201,-0.00163153777716,0.933983054213,0.0,0.0,0.0,0.0,0.0,0.0,0.0,0.0,0.0,-0.00188409854182,-0.197570135487,0.000365634730883,0.0,0.0,0.0,0.0,0.0,0.0,0.0,0.0,0.0,5.09512236869,-0.00605438116981,8.57203839571,0.0,0.0,0.0,0.0,0.0,0.0,0.0,0.0,0.0
24244000000,106,24244000000,imu_link,-0.000914243904557,-0.35767684763,-0.00163191162356,0.93384354883,0.0,0.0,0.0,0.0,0.0,0.0,0.0,0.0,0.0,-0.0019399371434,-0.195112016924,0.000351910705868,0.0,0.0,0.0,0.0,0.0,0.0,0.0,0.0,0.0,5.09974228771,-0.00594415311752,8.56041064437,0.0,0.0,0.0,0.0,0.0,0.0,0.0,0.0,0.0
24248000000,107,24248000000,imu_link,-0.000919046063697,-0.35803601195,-0.00163240254777,0.93370589843,0.0,0.0,0.0,0.0,0.0,0.0,0.0,0.0,0.0,-0.00209988973872,-0.192322530232,0.000353088857716,0.0,0.0,0.0,0.0,0.0,0.0,0.0,0.0,0.0,5.10157239778,-0.0058631173447,8.54376063535,0.0,0.0,0.0,0.0,0.0,0.0,0.0,0.0,0.0
24252000000,108,24252000000,imu_link,-0.000924108811507,-0.358389199293,-0.00163304868942,0.93357038353,0.0,0.0,0.0,0.0,0.0,0.0,0.0,0.0,0.0,-0.00225323015512,-0.189150008752,0.000331764754684,0.0,0.0,0.0,0.0,0.0,0.0,0.0,0.0,0.0,5.10468228399,-0.0059197193899,8.53139238051,0.0,0.0,0.0,0.0,0.0,0.0,0.0,0.0,0.0
24256000000,109,24256000000,imu_link,-0.000928798897283,-0.358735541749,-0.00163380711447,0.933437346099,0.0,0.0,0.0,0.0,0.0,0.0,0.0,0.0,0.0,-0.0021038418907,-0.185510610626,0.000217759118107,0.0,0.0,0.0,0.0,0.0,0.0,0.0,0.0,0.0,5.1069668408,-0.00642271157538,8.51564815011,0.0,0.0,0.0,0.0,0.0,0.0,0.0,0.0,0.0
24260000000,110,24260000000,imu_link,-0.000932393710155,-0.359074163994,-0.001634621904,0.933307132409,0.0,0.0,0.0,0.0,0.0,0.0,0.0,0.0,0.0,-0.00160776283184,-0.181400034467,8.88069247125e-07,0.0,0.0,0.0,0.0,0.0,0.0,0.0,0.0,0.0,5.10869211403,-0.00689746415397,8.50084907897,0.0,0.0,0.0,0.0,0.0,0.0,0.0,0.0,0.0
24264000000,111,24264000000,imu_link,-0.000934352671321,-0.359403989472,-0.00163540987104,0.933180167369,0.0,0.0,0.0,0.0,0.0,0.0,0.0,0.0,0.0,-0.000845246295659,-0.176710412986,-0.000273534990795,0.0,0.0,0.0,0.0,0.0,0.0,0.0,0.0,0.0,5.11101537607,-0.00681494358883,8.48693031202,0.0,0.0,0.0,0.0,0.0,0.0,0.0,0.0,0.0
24268000000,112,24268000000,imu_link,-0.000934668125645,-0.359724304482,-0.0016361516854,0.933056736843,0.0,0.0,0.0,0.0,0.0,0.0,0.0,0.0,0.0,-7.62340414967e-05,-0.171636440584,-0.000540008829756,0.0,0.0,0.0,0.0,0.0,0.0,0.0,0.0,0.0,5.11145240169,-0.00610465749714,8.46994314922,0.0,0.0,0.0,0.0,0.0,0.0,0.0,0.0,0.0
24272000000,113,24272000000,imu_link,-0.000933811585556,-0.360034684493,-0.00163692554977,0.932937015255,0.0,0.0,0.0,0.0,0.0,0.0,0.0,0.0,0.0,0.000458375778427,-0.166333409789,-0.000758081357182,0.0,0.0,0.0,0.0,0.0,0.0,0.0,0.0,0.0,5.11138540267,-0.00540067670713,8.45577010521,0.0,0.0,0.0,0.0,0.0,0.0,0.0,0.0,0.0
24276000000,114,24276000000,imu_link,-0.00093203127564,-0.360334752726,-0.00163768680181,0.932821159321,0.0,0.0,0.0,0.0,0.0,0.0,0.0,0.0,0.0,0.000884920857659,-0.160826653601,-0.00091051417561,0.0,0.0,0.0,0.0,0.0,0.0,0.0,0.0,0.0,5.11113006045,-0.0049655720497,8.43917729448,0.0,0.0,0.0,0.0,0.0,0.0,0.0,0.0,0.0
24280000000,115,24280000000,imu_link,-0.000929329803199,-0.360624221237,-0.00163828322996,0.932709292026,0.0,0.0,0.0,0.0,0.0,0.0,0.0,0.0,0.0,0.00133743596892,-0.155163530571,-0.000991396295368,0.0,0.0,0.0,0.0,0.0,0.0,0.0,0.0,0.0,5.1126029464,-0.0049075313492,8.42683007553,0.0,0.0,0.0,0.0,0.0,0.0,0.0,0.0,0.0
24284000000,116,24284000000,imu_link,-0.000926167331074,-0.360902735899,-0.00163875061785,0.932601561189,0.0,0.0,0.0,0.0,0.0,0.0,0.0,0.0,0.0,0.001568642151,-0.149308980264,-0.00100586338648,0.0,0.0,0.0,0.0,0.0,0.0,0.0,0.0,0.0,5.11628348263,-0.00462263698252,8.4142663892,0.0,0.0,0.0,0.0,0.0,0.0,0.0,0.0,0.0
24288000000,117,24288000000,imu_link,-0.000922795257057,-0.361170206086,-0.00163912201861,0.932498012847,0.0,0.0,0.0,0.0,0.0,0.0,0.0,0.0,0.0,0.00167658796233,-0.143404067666,-0.000990385901341,0.0,0.0,0.0,0.0,0.0,0.0,0.0,0.0,0.0,5.11937745156,-0.0043462799751,8.40026477961,0.0,0.0,0.0,0.0,0.0,0.0,0.0,0.0,0.0
24292000000,118,24292000000,imu_link,-0.000919302945413,-0.361426675093,-0.00163939327559,0.932398641034,0.0,0.0,0.0,0.0,0.0,0.0,0.0,0.0,0.0,0.00174364401053,-0.137520507047,-0.000956908246179,0.0,0.0,0.0,0.0,0.0,0.0,0.0,0.0,0.0,5.12155751408,-0.0041374288911,8.38481843298,0.0,0.0,0.0,0.0,0.0,0.0,0.0,0.0,0.0
24296000000,119,24296000000,imu_link,-0.000915615721956,-0.361672514676,-0.00163953900788,0.932303312065,0.0,0.0,0.0,0.0,0.0,0.0,0.0,0.0,0.0,0.00185034114477,-0.131834377716,-0.000925412144866,0.0,0.0,0.0,0.0,0.0,0.0,0.0,0.0,0.0,5.12425480253,-0.00404627370186,8.37315381358,0.0,0.0,0.0,0.0,0.0,0.0,0.0,0.0,0.0
24300000000,120,24300000000,imu_link,-0.00091154967519,-0.361908196825,-0.00163954861881,0.932211852547,0.0,0.0,0.0,0.0,0.0,0.0,0.0,0.0,0.0,0.00204499064492,-0.126399487603,-0.000922641727799,0.0,0.0,0.0,0.0,0.0,0.0,0.0,0.0,0.0,5.12771698198,-0.0044313034129,8.3649433799,0.0,0.0,0.0,0.0,0.0,0.0,0.0,0.0,0.0
24304000000,121,24304000000,imu_link,-0.000907189661448,-0.362134304528,-0.00163948143581,0.932124044638,0.0,0.0,0.0,0.0,0.0,0.0,0.0,0.0,0.0,0.00218972199881,-0.121275801173,-0.000932684855615,0.0,0.0,0.0,0.0,0.0,0.0,0.0,0.0,0.0,5.13175010808,-0.00493604888672,8.36025787322,0.0,0.0,0.0,0.0,0.0,0.0,0.0,0.0,0.0
24308000000,122,24308000000,imu_link,-0.000902786366064,-0.362351403568,-0.00163940710756,0.932039676008,0.0,0.0,0.0,0.0,0.0,0.0,0.0,0.0,0.0,0.00220536296489,-0.116454432545,-0.000930286009909,0.0,0.0,0.0,0.0,0.0,0.0,0.0,0.0,0.0,5.13569909449,-0.00536453669246,8.3569836767,0.0,0.0,0.0,0.0,0.0,0.0,0.0,0.0,0.0
24312000000,123,24312000000,imu_link,-0.000899090631203,-0.362560002225,-0.00163947607349,0.931958555163,0.0,0.0,0.0,0.0,0.0,0.0,0.0,0.0,0.0,0.00184416251885,-0.111905180465,-0.000862371929584,0.0,0.0,0.0,0.0,0.0,0.0,0.0,0.0,0.0,5.14003957737,-0.00528328706873,8.35663169218,0.0,0.0,0.0,0.0,0.0,0.0,0.0,0.0,0.0
24316000000,124,24316000000,imu_link,-0.00089665418818,-0.362760382005,-0.00163981495269,0.931880578328,0.0,0.0,0.0,0.0,0.0,0.0,0.0,0.0,0.0,0.00120310477484,-0.107506318907,-0.000753589461022,0.0,0.0,0.0,0.0,0.0,0.0,0.0,0.0,0.0,5.14105673233,-0.00507611472921,8.34651002104,0.0,0.0,0.0,0.0,0.0,0.0,0.0,0.0,0.0
24320000000,125,24320000000,imu_link,-0.00089572410491,-0.362952764203,-0.0016405058243,0.931805665027,0.0,0.0,0.0,0.0,0.0,0.0,0.0,0.0,0.0,0.000432202791532,-0.103225335389,-0.000638275739649,0.0,0.0,0.0,0.0,0.0,0.0,0.0,0.0,0.0,5.14314266172,-0.00489270272045,8.34013983848,0.0,0.0,0.0,0.0,0.0,0.0,0.0,0.0,0.0
24324000000,126,24324000000,imu_link,-0.000895717680839,-0.363137178865,-0.00164140469654,0.931733810059,0.0,0.0,0.0,0.0,0.0,0.0,0.0,0.0,0.0,-4.10455417671e-05,-0.0989588872065,-0.000561484531447,0.0,0.0,0.0,0.0,0.0,0.0,0.0,0.0,0.0,5.14665923191,-0.00503261786717,8.33156251091,0.0,0.0,0.0,0.0,0.0,0.0,0.0,0.0,0.0
24328000000,127,24328000000,imu_link,-0.000896075501074,-0.363313692142,-0.00164235813189,0.931664993874,0.0,0.0,0.0,0.0,0.0,0.0,0.0,0.0,0.0,-0.000225765594861,-0.094726420396,-0.000514735702134,0.0,0.0,0.0,0.0,0.0,0.0,0.0,0.0,0.0,5.15141367322,-0.00517932644068,8.32711428597,0.0,0.0,0.0,0.0,0.0,0.0,0.0,0.0,0.0
24332000000,128,24332000000,imu_link,-0.000896517055643,-0.36348233244,-0.00164331194668,0.93159921092,0.0,0.0,0.0,0.0,0.0,0.0,0.0,0.0,0.0,-0.000269946822909,-0.0905079915951,-0.000493683327085,0.0,0.0,0.0,0.0,0.0,0.0,0.0,0.0,0.0,5.15669274015,-0.00511106831299,8.31997759272,0.0,0.0,0.0,0.0,0.0,0.0,0.0,0.0,0.0
24336000000,129,24336000000,imu_link,-0.000896948653377,-0.363643166822,-0.00164424971788,0.931536440055,0.0,0.0,0.0,0.0,0.0,0.0,0.0,0.0,0.0,-0.000267456736543,-0.0863245773029,-0.00048204582937,0.0,0.0,0.0,0.0,0.0,0.0,0.0,0.0,0.0,5.16050539297,-0.00504166289902,8.3100048278,0.0,0.0,0.0,0.0,0.0,0.0,0.0,0.0,0.0
24340000000,130,24340000000,imu_link,-0.000897365600327,-0.363796469646,-0.00164516634017,0.931476578791,0.0,0.0,0.0,0.0,0.0,0.0,0.0,0.0,0.0,-0.000261674534543,-0.0822875860322,-0.000469089395066,0.0,0.0,0.0,0.0,0.0,0.0,0.0,0.0,0.0,5.16572764515,-0.00496221795912,8.30535382119,0.0,0.0,0.0,0.0,0.0,0.0,0.0,0.0,0.0
24344000000,131,24344000000,imu_link,-0.000897763235052,-0.363942535558,-0.00164604758363,0.931419516308,0.0,0.0,0.0,0.0,0.0,0.0,0.0,0.0,0.0,-0.000250941943947,-0.0784079856289,-0.000450575675649,0.0,0.0,0.0,0.0,0.0,0.0,0.0,0.0,0.0,5.17078908516,-0.00482766964669,8.29717777816,0.0,0.0,0.0,0.0,0.0,0.0,0.0,0.0,0.0
24348000000,132,24348000000,imu_link,-0.000898011788195,-0.364081485851,-0.00164684045657,0.931365209331,0.0,0.0,0.0,0.0,0.0,0.0,0.0,0.0,0.0,-0.000170051726251,-0.074592666457,-0.000431087304858,0.0,0.0,0.0,0.0,0.0,0.0,0.0,0.0,0.0,5.17740625083,-0.00502558936753,8.29267113999,0.0,0.0,0.0,0.0,0.0,0.0,0.0,0.0,0.0
24352000000,133,24352000000,imu_link,-0.000897814704533,-0.364213429401,-0.00164746631294,0.931313619372,0.0,0.0,0.0,0.0,0.0,0.0,0.0,0.0,0.0,6.33278680613e-05,-0.0708348480831,-0.000429051332385,0.0,0.0,0.0,0.0,0.0,0.0,0.0,0.0,0.0,5.18309583892,-0.00544510391205,8.28610497908,0.0,0.0,0.0,0.0,0.0,0.0,0.0,0.0,0.0
24356000000,134,24356000000,imu_link,-0.000897047965681,-0.364338427418,-0.00164787403797,0.931264726124,0.0,0.0,0.0,0.0,0.0,0.0,0.0,0.0,0.0,0.00036380417703,-0.0671091524281,-0.000425875753268,0.0,0.0,0.0,0.0,0.0,0.0,0.0,0.0,0.0,5.18760677997,-0.00555409745132,8.27775600613,0.0,0.0,0.0,0.0,0.0,0.0,0.0,0.0,0.0
24360000000,135,24360000000,imu_link,-0.000895820992619,-0.364456922157,-0.00164810741231,0.931218359537,0.0,0.0,0.0,0.0,0.0,0.0,0.0,0.0,0.0,0.000605640427682,-0.0636204347416,-0.000423534244077,0.0,0.0,0.0,0.0,0.0,0.0,0.0,0.0,0.0,5.19216976931,-0.00534687294807,8.27335516655,0.0,0.0,0.0,0.0,0.0,0.0,0.0,0.0,0.0
24364000000,136,24364000000,imu_link,-0.000894162899078,-0.364569381343,-0.00164823254425,0.931174339202,0.0,0.0,0.0,0.0,0.0,0.0,0.0,0.0,0.0,0.000822176217662,-0.0603823654823,-0.000447061189551,0.0,0.0,0.0,0.0,0.0,0.0,0.0,0.0,0.0,5.19727845173,-0.0052215627543,8.27144402293,0.0,0.0,0.0,0.0,0.0,0.0,0.0,0.0,0.0
24368000000,137,24368000000,imu_link,-0.000892015350847,-0.364676060331,-0.001648271709,0.931132567646,0.0,0.0,0.0,0.0,0.0,0.0,0.0,0.0,0.0,0.00106197237672,-0.0572808962258,-0.000491818588271,0.0,0.0,0.0,0.0,0.0,0.0,0.0,0.0,0.0,5.20171435377,-0.00514153132183,8.26618906136,0.0,0.0,0.0,0.0,0.0,0.0,0.0,0.0,0.0
24372000000,138,24372000000,imu_link,-0.000889175428236,-0.364777074133,-0.00164820614028,0.931093002321,0.0,0.0,0.0,0.0,0.0,0.0,0.0,0.0,0.0,0.00139973055356,-0.0542405730198,-0.000564959445909,0.0,0.0,0.0,0.0,0.0,0.0,0.0,0.0,0.0,5.20723150422,-0.00513105970775,8.26096222182,0.0,0.0,0.0,0.0,0.0,0.0,0.0,0.0,0.0
24376000000,139,24376000000,imu_link,-0.000885801867444,-0.364872277429,-0.00164807649468,0.931055702073,0.0,0.0,0.0,0.0,0.0,0.0,0.0,0.0,0.0,0.00165606939984,-0.0511219768641,-0.000628008231179,0.0,0.0,0.0,0.0,0.0,0.0,0.0,0.0,0.0,5.21187866572,-0.00499607965606,8.2515274063,0.0,0.0,0.0,0.0,0.0,0.0,0.0,0.0,0.0
24380000000,140,24380000000,imu_link,-0.000881932476425,-0.36496163345,-0.00164785096484,0.931020683386,0.0,0.0,0.0,0.0,0.0,0.0,0.0,0.0,0.0,0.00190057705742,-0.0479833019297,-0.000669358939852,0.0,0.0,0.0,0.0,0.0,0.0,0.0,0.0,0.0,5.21753367215,-0.00475820744398,8.24403074656,0.0,0.0,0.0,0.0,0.0,0.0,0.0,0.0,0.0
24384000000,141,24384000000,imu_link,-0.000877557428998,-0.365045407278,-0.00164748016422,0.93098784435,0.0,0.0,0.0,0.0,0.0,0.0,0.0,0.0,0.0,0.0021588363157,-0.044986636326,-0.000689749058107,0.0,0.0,0.0,0.0,0.0,0.0,0.0,0.0,0.0,5.22362701501,-0.00461185058586,8.24022531275,0.0,0.0,0.0,0.0,0.0,0.0,0.0,0.0,0.0
24388000000,142,24388000000,imu_link,-0.000872771709548,-0.365124290627,-0.00164696601439,0.930956915312,0.0,0.0,0.0,0.0,0.0,0.0,0.0,0.0,0.0,0.00237297571647,-0.0423612545581,-0.000694258654331,0.0,0.0,0.0,0.0,0.0,0.0,0.0,0.0,0.0,5.23047141031,-0.0044483499191,8.24140530154,0.0,0.0,0.0,0.0,0.0,0.0,0.0,0.0,0.0
24392000000,143,24392000000,imu_link,-0.000867610859231,-0.365199157775,-0.00164631581731,0.930927554677,0.0,0.0,0.0,0.0,0.0,0.0,0.0,0.0,0.0,0.00256980528579,-0.0402052192473,-0.00069637212349,0.0,0.0,0.0,0.0,0.0,0.0,0.0,0.0,0.0,5.23731364574,-0.00434388078416,8.2431960413,0.0,0.0,0.0,0.0,0.0,0.0,0.0,0.0,0.0
24396000000,144,24396000000,imu_link,-0.000861775934953,-0.36527040365,-0.00164545012893,0.930899609009,0.0,0.0,0.0,0.0,0.0,0.0,0.0,0.0,0.0,0.00292054386062,-0.0382608138331,-0.000716418679499,0.0,0.0,0.0,0.0,0.0,0.0,0.0,0.0,0.0,5.2424409131,-0.00451484096212,8.23714659535,0.0,0.0,0.0,0.0,0.0,0.0,0.0,0.0,0.0
24400000000,145,24400000000,imu_link,-0.000854919443074,-0.365338135963,-0.00164426442684,0.930873037486,0.0,0.0,0.0,0.0,0.0,0.0,0.0,0.0,0.0,0.00345217947617,-0.0363737571953,-0.000751398070696,0.0,0.0,0.0,0.0,0.0,0.0,0.0,0.0,0.0,5.24820588555,-0.00472665919292,8.2314340458,0.0,0.0,0.0,0.0,0.0,0.0,0.0,0.0,0.0
24404000000,146,24404000000,imu_link,-0.000846855090031,-0.365401961209,-0.00164273937853,0.930847995641,0.0,0.0,0.0,0.0,0.0,0.0,0.0,0.0,0.0,0.00407379197962,-0.0342749931134,-0.00081116511117,0.0,0.0,0.0,0.0,0.0,0.0,0.0,0.0,0.0,5.25371160056,-0.00466406461124,8.22206864957,0.0,0.0,0.0,0.0,0.0,0.0,0.0,0.0,0.0
24408000000,147,24408000000,imu_link,-0.000837697499594,-0.365461347368,-0.00164092064381,0.930824693067,0.0,0.0,0.0,0.0,0.0,0.0,0.0,0.0,0.0,0.00463335801757,-0.031890394851,-0.00087090373205,0.0,0.0,0.0,0.0,0.0,0.0,0.0,0.0,0.0,5.25950101287,-0.00433686972763,8.21336684626,0.0,0.0,0.0,0.0,0.0,0.0,0.0,0.0,0.0
24412000000,148,24412000000,imu_link,-0.00082791645074,-0.365515723711,-0.00163889228661,0.930803354262,0.0,0.0,0.0,0.0,0.0,0.0,0.0,0.0,0.0,0.00495853988506,-0.0291995003365,-0.00088355827157,0.0,0.0,0.0,0.0,0.0,0.0,0.0,0.0,0.0,5.26531694022,-0.00407823101497,8.20525247482,0.0,0.0,0.0,0.0,0.0,0.0,0.0,0.0,0.0
24416000000,149,24416000000,imu_link,-0.000818121696616,-0.365564975821,-0.00163676104509,0.930784024435,0.0,0.0,0.0,0.0,0.0,0.0,0.0,0.0,0.0,0.00498035385838,-0.0264475482385,-0.000834413008789,0.0,0.0,0.0,0.0,0.0,0.0,0.0,0.0,0.0,5.27122482001,-0.00395306974932,8.20021227313,0.0,0.0,0.0,0.0,0.0,0.0,0.0,0.0,0.0
24420000000,150,24420000000,imu_link,-0.00080871272145,-0.365609416901,-0.00163459061404,0.930766581034,0.0,0.0,0.0,0.0,0.0,0.0,0.0,0.0,0.0,0.00480481298027,-0.023864059801,-0.000742149063976,0.0,0.0,0.0,0.0,0.0,0.0,0.0,0.0,0.0,5.27740181611,-0.00404054227479,8.1973243003,0.0,0.0,0.0,0.0,0.0,0.0,0.0,0.0,0.0
24424000000,151,24424000000,imu_link,-0.000799934338741,-0.365649580455,-0.00163238384033,0.930750815063,0.0,0.0,0.0,0.0,0.0,0.0,0.0,0.0,0.0,0.00451517167299,-0.0215672583048,-0.00060685992364,0.0,0.0,0.0,0.0,0.0,0.0,0.0,0.0,0.0,5.2842742366,-0.00414862160015,8.19713048897,0.0,0.0,0.0,0.0,0.0,0.0,0.0,0.0,0.0
24432000000,152,24432000000,imu_link,-0.000783935848409,-0.36571788159,-0.00162770085209,0.930724001581,0.0,0.0,0.0,0.0,0.0,0.0,0.0,0.0,0.0,0.00407563670534,-0.0172656212739,-0.000332730115535,0.0,0.0,0.0,0.0,0.0,0.0,0.0,0.0,0.0,5.29367146735,-0.00428234394343,8.19025835614,0.0,0.0,0.0,0.0,0.0,0.0,0.0,0.0,0.0
24436000000,153,24436000000,imu_link,-0.000776334564314,-0.365746251368,-0.00162522107278,0.930712864191,0.0,0.0,0.0,0.0,0.0,0.0,0.0,0.0,0.0,0.00400952185114,-0.0152335735074,-0.000256151909645,0.0,0.0,0.0,0.0,0.0,0.0,0.0,0.0,0.0,5.3023588862,-0.00449549570214,8.18316865835,0.0,0.0,0.0,0.0,0.0,0.0,0.0,0.0,0.0
24440000000,154,24440000000,imu_link,-0.000768764107929,-0.365771123218,-0.00162262359478,0.930703100626,0.0,0.0,0.0,0.0,0.0,0.0,0.0,0.0,0.0,0.00401439072611,-0.013354625559,-0.000193268340326,0.0,0.0,0.0,0.0,0.0,0.0,0.0,0.0,0.0,5.308734267,-0.00460179909836,8.17956679825,0.0,0.0,0.0,0.0,0.0,0.0,0.0,0.0,0.0
24444000000,155,24444000000,imu_link,-0.000761157980321,-0.365792614196,-0.00161988768626,0.930694665292,0.0,0.0,0.0,0.0,0.0,0.0,0.0,0.0,0.0,0.0040540749346,-0.0115384415431,-0.00013299608145,0.0,0.0,0.0,0.0,0.0,0.0,0.0,0.0,0.0,5.3156229871,-0.00475753900917,8.17681454973,0.0,0.0,0.0,0.0,0.0,0.0,0.0,0.0,0.0
24448000000,156,24448000000,imu_link,-0.00075370032762,-0.365810800756,-0.00161707179523,0.930687528156,0.0,0.0,0.0,0.0,0.0,0.0,0.0,0.0,0.0,0.00399742871069,-0.00976345421653,-6.63118629135e-05,0.0,0.0,0.0,0.0,0.0,0.0,0.0,0.0,0.0,5.32211974114,-0.00489782766709,8.17334883765,0.0,0.0,0.0,0.0,0.0,0.0,0.0,0.0,0.0
24452000000,157,24452000000,imu_link,-0.000746645575925,-0.365825854744,-0.00161426305177,0.930681621542,0.0,0.0,0.0,0.0,0.0,0.0,0.0,0.0,0.0,0.00380656483798,-0.0080809854613,6.23026465699e-06,0.0,0.0,0.0,0.0,0.0,0.0,0.0,0.0,0.0,5.3288555605,-0.0049002185046,8.17155529031,0.0,0.0,0.0,0.0,0.0,0.0,0.0,0.0,0.0
24456000000,158,24456000000,imu_link,-0.000740168489365,-0.365838123956,-0.00161149499901,0.930676808723,0.0,0.0,0.0,0.0,0.0,0.0,0.0,0.0,0.0,0.00352847147885,-0.00658549742302,9.48801002961e-05,0.0,0.0,0.0,0.0,0.0,0.0,0.0,0.0,0.0,5.33457449794,-0.00493172134179,8.16794769181,0.0,0.0,0.0,0.0,0.0,0.0,0.0,0.0,0.0
24460000000,159,24460000000,imu_link,-0.00073476122302,-0.365848095387,-0.00160888471172,0.93067289781,0.0,0.0,0.0,0.0,0.0,0.0,0.0,0.0,0.0,0.00300026708357,-0.00535207972655,0.000218733353582,0.0,0.0,0.0,0.0,0.0,0.0,0.0,0.0,0.0,5.34174683927,-0.00494171509228,8.16900867469,0.0,0.0,0.0,0.0,0.0,0.0,0.0,0.0,0.0
24464000000,160,24464000000,imu_link,-0.000730803115442,-0.365856164006,-0.0016065236944,0.930669733186,0.0,0.0,0.0,0.0,0.0,0.0,0.0,0.0,0.0,0.00227906668619,-0.00433119138342,0.000369124344201,0.0,0.0,0.0,0.0,0.0,0.0,0.0,0.0,0.0,5.34857888336,-0.00505819810942,8.16752787394,0.0,0.0,0.0,0.0,0.0,0.0,0.0,0.0,0.0
24468000000,161,24468000000,imu_link,-0.000728293505491,-0.365862621288,-0.00160446071991,0.930667200259,0.0,0.0,0.0,0.0,0.0,0.0,0.0,0.0,0.0,0.00154944633259,-0.00346687985359,0.000496501722381,0.0,0.0,0.0,0.0,0.0,0.0,0.0,0.0,0.0,5.35498774468,-0.00532545759714,8.16399278505,0.0,0.0,0.0,0.0,0.0,0.0,0.0,0.0,0.0
24472000000,162,24472000000,imu_link,-0.00072679396386,-0.365867470454,-0.00160261072645,0.930665298307,0.0,0.0,0.0,0.0,0.0,0.0,0.0,0.0,0.0,0.00103940639129,-0.00260387718258,0.000583259386689,0.0,0.0,0.0,0.0,0.0,0.0,0.0,0.0,0.0,5.36207751151,-0.00562719858266,8.16104292168,0.0,0.0,0.0,0.0,0.0,0.0,0.0,0.0,0.0
24476000000,163,24476000000,imu_link,-0.000725627778547,-0.365870683547,-0.00160086083129,0.930664039076,0.0,0.0,0.0,0.0,0.0,0.0,0.0,0.0,0.0,0.000864896028664,-0.00172521460475,0.000598772061309,0.0,0.0,0.0,0.0,0.0,0.0,0.0,0.0,0.0,5.36811452936,-0.0059338795626,8.15540503805,0.0,0.0,0.0,0.0,0.0,0.0,0.0,0.0,0.0
24480000000,164,24480000000,imu_link,-0.000724255578764,-0.36587221227,-0.00159912027501,0.930663442151,0.0,0.0,0.0,0.0,0.0,0.0,0.0,0.0,0.0,0.000957944817257,-0.000820095154381,0.000557880294053,0.0,0.0,0.0,0.0,0.0,0.0,0.0,0.0,0.0,5.37415025576,-0.00609021771944,8.14970489396,0.0,0.0,0.0,0.0,0.0,0.0,0.0,0.0,0.0
24484000000,165,24484000000,imu_link,-0.000722574968234,-0.365872104526,-0.00159736520407,0.930663488829,0.0,0.0,0.0,0.0,0.0,0.0,0.0,0.0,0.0,0.00110303799047,5.93835158323e-05,0.000509322173535,0.0,0.0,0.0,0.0,0.0,0.0,0.0,0.0,0.0,5.38034596422,-0.00608534384846,8.14492874772,0.0,0.0,0.0,0.0,0.0,0.0,0.0,0.0,0.0
24488000000,166,24488000000,imu_link,-0.000720686318425,-0.365870266782,-0.00159561309476,0.93066421577,0.0,0.0,0.0,0.0,0.0,0.0,0.0,0.0,0.0,0.00119816752944,0.000989019966446,0.000471054487774,0.0,0.0,0.0,0.0,0.0,0.0,0.0,0.0,0.0,5.38563121163,-0.0060933674265,8.13659914643,0.0,0.0,0.0,0.0,0.0,0.0,0.0,0.0,0.0
24492000000,167,24492000000,imu_link,-0.000718530318807,-0.365866629446,-0.00159383865172,0.930665650409,0.0,0.0,0.0,0.0,0.0,0.0,0.0,0.0,0.0,0.00132547889316,0.00195609572015,0.000433752495955,0.0,0.0,0.0,0.0,0.0,0.0,0.0,0.0,0.0,5.39215092977,-0.00615696244598,8.13225244904,0.0,0.0,0.0,0.0,0.0,0.0,0.0,0.0,0.0
24496000000,168,24496000000,imu_link,-0.000715692867344,-0.365861227199,-0.00159193986229,0.930667779578,0.0,0.0,0.0,0.0,0.0,0.0,0.0,0.0,0.0,0.00166417093219,0.00290491793892,0.000368142265928,0.0,0.0,0.0,0.0,0.0,0.0,0.0,0.0,0.0,5.39806260879,-0.00619513916192,8.12708905271,0.0,0.0,0.0,0.0,0.0,0.0,0.0,0.0,0.0
24500000000,169,24500000000,imu_link,-0.000711690338396,-0.365854533078,-0.00158983791168,0.930670417784,0.0,0.0,0.0,0.0,0.0,0.0,0.0,0.0,0.0,0.00224263923272,0.00360004373636,0.000250419176864,0.0,0.0,0.0,0.0,0.0,0.0,0.0,0.0,0.0,5.4045120511,-0.00611026882401,8.12629979144,0.0,0.0,0.0,0.0,0.0,0.0,0.0,0.0,0.0
24504000000,170,24504000000,imu_link,-0.000706542605064,-0.365847148905,-0.00158757393309,0.930673328319,0.0,0.0,0.0,0.0,0.0,0.0,0.0,0.0,0.0,0.00280473086141,0.0039718180851,0.000116789423643,0.0,0.0,0.0,0.0,0.0,0.0,0.0,0.0,0.0,5.41151884121,-0.00591527593738,8.12764594845,0.0,0.0,0.0,0.0,0.0,0.0,0.0,0.0,0.0
24508000000,171,24508000000,imu_link,-0.000700621831721,-0.365839381206,-0.00158523181591,0.930676390228,0.0,0.0,0.0,0.0,0.0,0.0,0.0,0.0,0.0,0.00317849714814,0.0041785632905,1.19985795112e-05,0.0,0.0,0.0,0.0,0.0,0.0,0.0,0.0,0.0,5.41789969133,-0.00567269386788,8.12520597974,0.0,0.0,0.0,0.0,0.0,0.0,0.0,0.0,0.0
24512000000,172,24512000000,imu_link,-0.000694357746706,-0.365831222102,-0.00158286358877,0.930679606173,0.0,0.0,0.0,0.0,0.0,0.0,0.0,0.0,0.0,0.00334277293597,0.00438913767041,-3.83907177765e-05,0.0,0.0,0.0,0.0,0.0,0.0,0.0,0.0,0.0,5.4247567861,-0.00549562095134,8.1220434212,0.0,0.0,0.0,0.0,0.0,0.0,0.0,0.0,0.0
24516000000,173,24516000000,imu_link,-0.000688067256364,-0.365822459911,-0.00158047856995,0.930683059089,0.0,0.0,0.0,0.0,0.0,0.0,0.0,0.0,0.0,0.00335773681644,0.0047131387802,-3.5009899757e-05,0.0,0.0,0.0,0.0,0.0,0.0,0.0,0.0,0.0,5.42992758275,-0.00539117567741,8.11309428498,0.0,0.0,0.0,0.0,0.0,0.0,0.0,0.0,0.0
24520000000,174,24520000000,imu_link,-0.000681946484939,-0.365812961334,-0.0015780592843,0.930686801238,0.0,0.0,0.0,0.0,0.0,0.0,0.0,0.0,0.0,0.00328454492681,0.00510856808982,1.24612776519e-05,0.0,0.0,0.0,0.0,0.0,0.0,0.0,0.0,0.0,5.43566517638,-0.00535648003595,8.10662404875,0.0,0.0,0.0,0.0,0.0,0.0,0.0,0.0,0.0
24524000000,175,24524000000,imu_link,-0.000676242252627,-0.365802743676,-0.00157562609645,0.930690825579,0.0,0.0,0.0,0.0,0.0,0.0,0.0,0.0,0.0,0.00309278284723,0.00549446872026,9.55861249988e-05,0.0,0.0,0.0,0.0,0.0,0.0,0.0,0.0,0.0,5.4411420217,-0.0053489062575,8.10054474524,0.0,0.0,0.0,0.0,0.0,0.0,0.0,0.0,0.0
24528000000,176,24528000000,imu_link,-0.000671285148527,-0.365791858051,-0.00157325181603,0.930695111644,0.0,0.0,0.0,0.0,0.0,0.0,0.0,0.0,0.0,0.00273389817033,0.00585260575075,0.000205256639067,0.0,0.0,0.0,0.0,0.0,0.0,0.0,0.0,0.0,5.4467639338,-0.00537832032703,8.0950962977,0.0,0.0,0.0,0.0,0.0,0.0,0.0,0.0,0.0
24532000000,177,24532000000,imu_link,-0.000667283029863,-0.365780347428,-0.00157102356889,0.930699642234,0.0,0.0,0.0,0.0,0.0,0.0,0.0,0.0,0.0,0.00226237957331,0.00618746667275,0.000312365481354,0.0,0.0,0.0,0.0,0.0,0.0,0.0,0.0,0.0,5.45357448989,-0.00548628972913,8.09295590778,0.0,0.0,0.0,0.0,0.0,0.0,0.0,0.0,0.0
24536000000,178,24536000000,imu_link,-0.000664226163352,-0.365768127085,-0.0015689628455,0.930704450601,0.0,0.0,0.0,0.0,0.0,0.0,0.0,0.0,0.0,0.00179140339091,0.00656785124263,0.000407740656913,0.0,0.0,0.0,0.0,0.0,0.0,0.0,0.0,0.0,5.45891114783,-0.00570505392403,8.0860567019,0.0,0.0,0.0,0.0,0.0,0.0,0.0,0.0,0.0
24540000000,179,24540000000,imu_link,-0.000661964341616,-0.365754997264,-0.00156705288529,0.930709615361,0.0,0.0,0.0,0.0,0.0,0.0,0.0,0.0,0.0,0.00139326024648,0.00705568366778,0.000483565327804,0.0,0.0,0.0,0.0,0.0,0.0,0.0,0.0,0.0,5.46407620404,-0.00594889701837,8.07815768414,0.0,0.0,0.0,0.0,0.0,0.0,0.0,0.0,0.0
24544000000,180,24544000000,imu_link,-0.000660147130777,-0.365740624156,-0.00156522098787,0.930715268023,0.0,0.0,0.0,0.0,0.0,0.0,0.0,0.0,0.0,0.00117126983853,0.0077231572362,0.00052934155174,0.0,0.0,0.0,0.0,0.0,0.0,0.0,0.0,0.0,5.46940045723,-0.00614326983685,8.07012263623,0.0,0.0,0.0,0.0,0.0,0.0,0.0,0.0,0.0
24548000000,181,24548000000,imu_link,-0.000658574450299,-0.365724711094,-0.00156341166118,0.930721525333,0.0,0.0,0.0,0.0,0.0,0.0,0.0,0.0,0.0,0.00105234264708,0.00855017478997,0.000564536937195,0.0,0.0,0.0,0.0,0.0,0.0,0.0,0.0,0.0,5.47443728243,-0.00624801652156,8.0615565499,0.0,0.0,0.0,0.0,0.0,0.0,0.0,0.0,0.0
24552000000,182,24552000000,imu_link,-0.000657104798751,-0.365707319898,-0.00156158726956,0.930728363075,0.0,0.0,0.0,0.0,0.0,0.0,0.0,0.0,0.0,0.00100618749617,0.00934409386007,0.000591328133604,0.0,0.0,0.0,0.0,0.0,0.0,0.0,0.0,0.0,5.47995925379,-0.00630895958439,8.05660566289,0.0,0.0,0.0,0.0,0.0,0.0,0.0,0.0,0.0
24556000000,183,24556000000,imu_link,-0.000655811555809,-0.365689305607,-0.00155976979299,0.930735445115,0.0,0.0,0.0,0.0,0.0,0.0,0.0,0.0,0.0,0.000922422564205,0.0096785951166,0.000620762541556,0.0,0.0,0.0,0.0,0.0,0.0,0.0,0.0,0.0,5.48644601278,-0.00630953404631,8.05904964954,0.0,0.0,0.0,0.0,0.0,0.0,0.0,0.0,0.0
24560000000,184,24560000000,imu_link,-0.000654539305016,-0.365671806459,-0.00155793386998,0.930742324374,0.0,0.0,0.0,0.0,0.0,0.0,0.0,0.0,0.0,0.000916361587139,0.00940176457731,0.000632858158609,0.0,0.0,0.0,0.0,0.0,0.0,0.0,0.0,0.0,5.49317710393,-0.00635269510176,8.06377774808,0.0,0.0,0.0,0.0,0.0,0.0,0.0,0.0,0.0
24564000000,185,24564000000,imu_link,-0.000652959186879,-0.365655659597,-0.00155604110903,0.930748672298,0.0,0.0,0.0,0.0,0.0,0.0,0.0,0.0,0.0,0.00107090568262,0.00867552376599,0.000602163234795,0.0,0.0,0.0,0.0,0.0,0.0,0.0,0.0,0.0,5.49966044896,-0.00640109805855,8.06615845468,0.0,0.0,0.0,0.0,0.0,0.0,0.0,0.0,0.0
24568000000,186,24568000000,imu_link,-0.000650659675476,-0.365641031467,-0.00155402464827,0.930754423979,0.0,0.0,0.0,0.0,0.0,0.0,0.0,0.0,0.0,0.00142929555758,0.00786025448909,0.000527245119712,0.0,0.0,0.0,0.0,0.0,0.0,0.0,0.0,0.0,5.50468764286,-0.0064188655725,8.06011876448,0.0,0.0,0.0,0.0,0.0,0.0,0.0,0.0,0.0
24572000000,187,24572000000,imu_link,-0.000647403913254,-0.365627548393,-0.00155187035663,0.930759726472,0.0,0.0,0.0,0.0,0.0,0.0,0.0,0.0,0.0,0.00190025479927,0.00724594871825,0.000415844657554,0.0,0.0,0.0,0.0,0.0,0.0,0.0,0.0,0.0,5.50905474978,-0.0063411900336,8.04887784498,0.0,0.0,0.0,0.0,0.0,0.0,0.0,0.0,0.0
24576000000,188,24576000000,imu_link,-0.000643211285595,-0.365614763165,-0.00154959931184,0.930764755444,0.0,0.0,0.0,0.0,0.0,0.0,0.0,0.0,0.0,0.00235805013522,0.0068718713902,0.000298469186003,0.0,0.0,0.0,0.0,0.0,0.0,0.0,0.0,0.0,5.51368649523,-0.00618226919719,8.03819815539,0.0,0.0,0.0,0.0,0.0,0.0,0.0,0.0,0.0
24580000000,189,24580000000,imu_link,-0.000638678681502,-0.365602576303,-0.00154729333173,0.930769549445,0.0,0.0,0.0,0.0,0.0,0.0,0.0,0.0,0.0,0.00252304365821,0.0065506994563,0.000252202775336,0.0,0.0,0.0,0.0,0.0,0.0,0.0,0.0,0.0,5.51924914293,-0.00594296709816,8.03276445834,0.0,0.0,0.0,0.0,0.0,0.0,0.0,0.0,0.0
24584000000,190,24584000000,imu_link,-0.000634494504315,-0.365591112191,-0.00154504384781,0.930774059019,0.0,0.0,0.0,0.0,0.0,0.0,0.0,0.0,0.0,0.00235103182933,0.00616209803548,0.000289152349585,0.0,0.0,0.0,0.0,0.0,0.0,0.0,0.0,0.0,5.52542030449,-0.00579841415506,8.03074842226,0.0,0.0,0.0,0.0,0.0,0.0,0.0,0.0,0.0
24588000000,191,24588000000,imu_link,-0.000631169104772,-0.365580488514,-0.00154291367801,0.930778237531,0.0,0.0,0.0,0.0,0.0,0.0,0.0,0.0,0.0,0.0019301019849,0.00570982807666,0.000390083457456,0.0,0.0,0.0,0.0,0.0,0.0,0.0,0.0,0.0,5.53102858948,-0.00578737518899,8.02713956232,0.0,0.0,0.0,0.0,0.0,0.0,0.0,0.0,0.0
24592000000,192,24592000000,imu_link,-0.000628701787133,-0.365570791202,-0.00154087594637,0.930782051318,0.0,0.0,0.0,0.0,0.0,0.0,0.0,0.0,0.0,0.0015144627618,0.00521140667169,0.000503339033601,0.0,0.0,0.0,0.0,0.0,0.0,0.0,0.0,0.0,5.53590966527,-0.00593896334514,8.02117017454,0.0,0.0,0.0,0.0,0.0,0.0,0.0,0.0,0.0
24596000000,193,24596000000,imu_link,-0.000627040074895,-0.365561801198,-0.00153893341227,0.930785586486,0.0,0.0,0.0,0.0,0.0,0.0,0.0,0.0,0.0,0.00112259786975,0.00483071418144,0.000605850853898,0.0,0.0,0.0,0.0,0.0,0.0,0.0,0.0,0.0,5.54017889141,-0.00608115488564,8.01161174605,0.0,0.0,0.0,0.0,0.0,0.0,0.0,0.0,0.0
24600000000,194,24600000000,imu_link,-0.000626109722158,-0.365553147446,-0.00153710057011,0.930788988816,0.0,0.0,0.0,0.0,0.0,0.0,0.0,0.0,0.0,0.000762395922757,0.0046494158908,0.000688271921993,0.0,0.0,0.0,0.0,0.0,0.0,0.0,0.0,0.0,5.54497547227,-0.00620731565653,8.00254686292,0.0,0.0,0.0,0.0,0.0,0.0,0.0,0.0,0.0
24604000000,195,24604000000,imu_link,-0.000625928662945,-0.365544478979,-0.00153539772196,0.93079239611,0.0,0.0,0.0,0.0,0.0,0.0,0.0,0.0,0.0,0.000389909228598,0.00465663645846,0.000764735153898,0.0,0.0,0.0,0.0,0.0,0.0,0.0,0.0,0.0,5.55034641041,-0.00629698774767,7.9956959061,0.0,0.0,0.0,0.0,0.0,0.0,0.0,0.0,0.0
24608000000,196,24608000000,imu_link,-0.000626466353162,-0.365535773986,-0.00153379840452,0.930795816997,0.0,0.0,0.0,0.0,0.0,0.0,0.0,0.0,0.0,3.64596497953e-05,0.00467560065626,0.000847941664927,0.0,0.0,0.0,0.0,0.0,0.0,0.0,0.0,0.0,5.55508574474,-0.00640700366636,7.98947211273,0.0,0.0,0.0,0.0,0.0,0.0,0.0,0.0,0.0
24612000000,197,24612000000,imu_link,-0.000627509635841,-0.365527507794,-0.00153225188545,0.930799065041,0.0,0.0,0.0,0.0,0.0,0.0,0.0,0.0,0.0,-0.000208209494412,0.00443942202821,0.000915505480464,0.0,0.0,0.0,0.0,0.0,0.0,0.0,0.0,0.0,5.56142389533,-0.00654686343471,7.99099485045,0.0,0.0,0.0,0.0,0.0,0.0,0.0,0.0,0.0
24616000000,198,24616000000,imu_link,-0.000628731318908,-0.365520267558,-0.00153067933496,0.930801910034,0.0,0.0,0.0,0.0,0.0,0.0,0.0,0.0,0.0,-0.000285819799672,0.0038881345301,0.000959594928376,0.0,0.0,0.0,0.0,0.0,0.0,0.0,0.0,0.0,5.56665865602,-0.00667120783632,7.99021252779,0.0,0.0,0.0,0.0,0.0,0.0,0.0,0.0,0.0
24620000000,199,24620000000,imu_link,-0.000629965649118,-0.365514315462,-0.00152906146561,0.930804249188,0.0,0.0,0.0,0.0,0.0,0.0,0.0,0.0,0.0,-0.000282596464027,0.0031961620659,0.000982205679658,0.0,0.0,0.0,0.0,0.0,0.0,0.0,0.0,0.0,5.57159341624,-0.0067093515927,7.98642923054,0.0,0.0,0.0,0.0,0.0,0.0,0.0,0.0,0.0
24624000000,200,24624000000,imu_link,-0.000631296706911,-0.365509494778,-0.00152742459897,0.930806143977,0.0,0.0,0.0,0.0,0.0,0.0,0.0,0.0,0.0,-0.000323416765084,0.00258830940242,0.00100802860738,0.0,0.0,0.0,0.0,0.0,0.0,0.0,0.0,0.0,5.57598791064,-0.00666467263457,7.97850884175,0.0,0.0,0.0,0.0,0.0,0.0,0.0,0.0,0.0
24628000000,201,24628000000,imu_link,-0.000633014708367,-0.365505523633,-0.0015258273919,0.930807704812,0.0,0.0,0.0,0.0,0.0,0.0,0.0,0.0,0.0,-0.00051020611907,0.00213161670475,0.0010597635102,0.0,0.0,0.0,0.0,0.0,0.0,0.0,0.0,0.0,5.58093062493,-0.00660832986682,7.97144351096,0.0,0.0,0.0,0.0,0.0,0.0,0.0,0.0,0.0
24632000000,202,24632000000,imu_link,-0.000635457013518,-0.365502184443,-0.00152431864608,0.930809016831,0.0,0.0,0.0,0.0,0.0,0.0,0.0,0.0,0.0,-0.000863063010976,0.00179150661615,0.00115057196568,0.0,0.0,0.0,0.0,0.0,0.0,0.0,0.0,0.0,5.58626466163,-0.00659550100362,7.96621746926,0.0,0.0,0.0,0.0,0.0,0.0,0.0,0.0,0.0
24636000000,203,24636000000,imu_link,-0.000638713772042,-0.365499537628,-0.0015229297936,0.9308100562,0.0,0.0,0.0,0.0,0.0,0.0,0.0,0.0,0.0,-0.0012635828497,0.00141886168151,0.00124318751426,0.0,0.0,0.0,0.0,0.0,0.0,0.0,0.0,0.0,5.59072594346,-0.00666337614903,7.96048490795,0.0,0.0,0.0,0.0,0.0,0.0,0.0,0.0,0.0
24640000000,204,24640000000,imu_link,-0.000642443762997,-0.36549785505,-0.00152160287304,0.930810716497,0.0,0.0,0.0,0.0,0.0,0.0,0.0,0.0,0.0,-0.00149453247426,0.000900485728774,0.00130025062094,0.0,0.0,0.0,0.0,0.0,0.0,0.0,0.0,0.0,5.59661883472,-0.00681590496898,7.95997890983,0.0,0.0,0.0,0.0,0.0,0.0,0.0,0.0,0.0
24644000000,205,24644000000,imu_link,-0.00064630441024,-0.36549718857,-0.00152026459405,0.930810977714,0.0,0.0,0.0,0.0,0.0,0.0,0.0,0.0,0.0,-0.00155262001291,0.000354553324629,0.00132878417934,0.0,0.0,0.0,0.0,0.0,0.0,0.0,0.0,0.0,5.60231732434,-0.00691173931989,7.95744759177,0.0,0.0,0.0,0.0,0.0,0.0,0.0,0.0,0.0
24648000000,206,24648000000,imu_link,-0.000650174762257,-0.365497238237,-0.00151889119344,0.930810957759,0.0,0.0,0.0,0.0,0.0,0.0,0.0,0.0,0.0,-0.00155026473565,-3.01477580284e-05,0.00134645835711,0.0,0.0,0.0,0.0,0.0,0.0,0.0,0.0,0.0,5.60696419816,-0.00690628299797,7.94989705794,0.0,0.0,0.0,0.0,0.0,0.0,0.0,0.0,0.0
24652000000,207,24652000000,imu_link,-0.000654015931262,-0.365497487718,-0.00151748071198,0.930810859405,0.0,0.0,0.0,0.0,0.0,0.0,0.0,0.0,0.0,-0.00152978006843,-0.000137459699325,0.00135825833028,0.0,0.0,0.0,0.0,0.0,0.0,0.0,0.0,0.0,5.61208389028,-0.00686573986489,7.94245812463,0.0,0.0,0.0,0.0,0.0,0.0,0.0,0.0,0.0
24656000000,208,24656000000,imu_link,-0.000657848116313,-0.365497477986,-0.00151605207998,0.930810862854,0.0,0.0,0.0,0.0,0.0,0.0,0.0,0.0,0.0,-0.00152244528141,1.78476069637e-06,0.00136522589696,0.0,0.0,0.0,0.0,0.0,0.0,0.0,0.0,0.0,5.61632485365,-0.00681191455874,7.93358694859,0.0,0.0,0.0,0.0,0.0,0.0,0.0,0.0,0.0
24660000000,209,24660000000,imu_link,-0.000661662001596,-0.365496975999,-0.00151461462522,0.930811059604,0.0,0.0,0.0,0.0,0.0,0.0,0.0,0.0,0.0,-0.00151262568642,0.000266219683574,0.00136629623242,0.0,0.0,0.0,0.0,0.0,0.0,0.0,0.0,0.0,5.62093302026,-0.00677910998089,7.92756915631,0.0,0.0,0.0,0.0,0.0,0.0,0.0,0.0,0.0
24664000000,210,24664000000,imu_link,-0.000665395743389,-0.365495951531,-0.00151315428219,0.93081146159,0.0,0.0,0.0,0.0,0.0,0.0,0.0,0.0,0.0,-0.00147147144345,0.000546944590106,0.00136263074274,0.0,0.0,0.0,0.0,0.0,0.0,0.0,0.0,0.0,5.62493387231,-0.00675524308019,7.92145086446,0.0,0.0,0.0,0.0,0.0,0.0,0.0,0.0,0.0
24668000000,211,24668000000,imu_link,-0.000668833589802,-0.365494517599,-0.0015116155768,0.930812024678,0.0,0.0,0.0,0.0,0.0,0.0,0.0,0.0,0.0,-0.0013196956686,0.000767150074511,0.00134528486492,0.0,0.0,0.0,0.0,0.0,0.0,0.0,0.0,0.0,5.62910446113,-0.00675553988253,7.91672575177,0.0,0.0,0.0,0.0,0.0,0.0,0.0,0.0,0.0
24672000000,212,24672000000,imu_link,-0.000671728767802,-0.365492843157,-0.00150992267235,0.930812682829,0.0,0.0,0.0,0.0,0.0,0.0,0.0,0.0,0.0,-0.00103910506007,0.000896816822162,0.00131803115139,0.0,0.0,0.0,0.0,0.0,0.0,0.0,0.0,0.0,5.63422354487,-0.00672607216545,7.91479092849,0.0,0.0,0.0,0.0,0.0,0.0,0.0,0.0,0.0
24676000000,213,24676000000,imu_link,-0.000673965127878,-0.365490792272,-0.00150805347002,0.93081348954,0.0,0.0,0.0,0.0,0.0,0.0,0.0,0.0,0.0,-0.000700503517716,0.0010996020476,0.00127992327248,0.0,0.0,0.0,0.0,0.0,0.0,0.0,0.0,0.0,5.63781598348,-0.00665554333636,7.90698616959,0.0,0.0,0.0,0.0,0.0,0.0,0.0,0.0,0.0
24680000000,214,24680000000,imu_link,-0.000675506099811,-0.365488105848,-0.00150601190675,0.930814546568,0.0,0.0,0.0,0.0,0.0,0.0,0.0,0.0,0.0,-0.000345761878479,0.0014415968751,0.00123346514628,0.0,0.0,0.0,0.0,0.0,0.0,0.0,0.0,0.0,5.64180608732,-0.0065387727673,7.89957579453,0.0,0.0,0.0,0.0,0.0,0.0,0.0,0.0,0.0
24684000000,215,24684000000,imu_link,-0.000676428925544,-0.36548461428,-0.0015038230507,0.930815920408,0.0,0.0,0.0,0.0,0.0,0.0,0.0,0.0,0.0,-3.16545351521e-05,0.00187462829508,0.00118956423816,0.0,0.0,0.0,0.0,0.0,0.0,0.0,0.0,0.0,5.64604187825,-0.00638822242861,7.89347274139,0.0,0.0,0.0,0.0,0.0,0.0,0.0,0.0,0.0
24688000000,216,24688000000,imu_link,-0.00067697164656,-0.365480191667,-0.00150152413275,0.93081766025,0.0,0.0,0.0,0.0,0.0,0.0,0.0,0.0,0.0,0.000164785914846,0.00237507655021,0.00117191680346,0.0,0.0,0.0,0.0,0.0,0.0,0.0,0.0,0.0,5.65020773645,-0.00624121250405,7.8876487302,0.0,0.0,0.0,0.0,0.0,0.0,0.0,0.0,0.0
24692000000,217,24692000000,imu_link,-0.000677273703775,-0.365475114044,-0.00149912373755,0.930819657583,0.0,0.0,0.0,0.0,0.0,0.0,0.0,0.0,0.0,0.000294932336462,0.00272712402597,0.00117558131188,0.0,0.0,0.0,0.0,0.0,0.0,0.0,0.0,0.0,5.65520386768,-0.00615871599323,7.88666037071,0.0,0.0,0.0,0.0,0.0,0.0,0.0,0.0,0.0
24696000000,218,24696000000,imu_link,-0.000677280697358,-0.365469727367,-0.00149658486037,0.930821776659,0.0,0.0,0.0,0.0,0.0,0.0,0.0,0.0,0.0,0.00045737328147,0.00289338184271,0.00118630889029,0.0,0.0,0.0,0.0,0.0,0.0,0.0,0.0,0.0,5.66007153081,-0.00613936411799,7.88561690462,0.0,0.0,0.0,0.0,0.0,0.0,0.0,0.0,0.0
24700000000,219,24700000000,imu_link,-0.000676971786874,-0.365464215222,-0.00149385895967,0.930823945484,0.0,0.0,0.0,0.0,0.0,0.0,0.0,0.0,0.0,0.00063849715036,0.00296104056814,0.00121570470176,0.0,0.0,0.0,0.0,0.0,0.0,0.0,0.0,0.0,5.66451260709,-0.00610439208248,7.88236483324,0.0,0.0,0.0,0.0,0.0,0.0,0.0,0.0,0.0
24704000000,220,24704000000,imu_link,-0.000676321922389,-0.365458841775,-0.0014909321487,0.930826060378,0.0,0.0,0.0,0.0,0.0,0.0,0.0,0.0,0.0,0.000833979325286,0.00288682024295,0.00124682027354,0.0,0.0,0.0,0.0,0.0,0.0,0.0,0.0,0.0,5.6687491729,-0.00606337777948,7.87913185474,0.0,0.0,0.0,0.0,0.0,0.0,0.0,0.0,0.0
24708000000,221,24708000000,imu_link,-0.000675252591525,-0.365453647254,-0.00148781841893,0.930828105581,0.0,0.0,0.0,0.0,0.0,0.0,0.0,0.0,0.0,0.00106346982343,0.0027910606515,0.0012570534102,0.0,0.0,0.0,0.0,0.0,0.0,0.0,0.0,0.0,5.67296066455,-0.00603290400699,7.87447512089,0.0,0.0,0.0,0.0,0.0,0.0,0.0,0.0,0.0
24712000000,222,24712000000,imu_link,-0.000673490789375,-0.365448861469,-0.00148451380865,0.930829991072,0.0,0.0,0.0,0.0,0.0,0.0,0.0,0.0,0.0,0.00142088482046,0.00257209617413,0.00121910199243,0.0,0.0,0.0,0.0,0.0,0.0,0.0,0.0,0.0,5.678679418,-0.00602166776691,7.87507246615,0.0,0.0,0.0,0.0,0.0,0.0,0.0,0.0,0.0
24716000000,223,24716000000,imu_link,-0.000670768178263,-0.365444794174,-0.00148095129523,0.930831595545,0.0,0.0,0.0,0.0,0.0,0.0,0.0,0.0,0.0,0.00191562359566,0.00218697788113,0.00116312017561,0.0,0.0,0.0,0.0,0.0,0.0,0.0,0.0,0.0,5.68229775372,-0.00597205752808,7.87065571494,0.0,0.0,0.0,0.0,0.0,0.0,0.0,0.0,0.0
24720000000,224,24720000000,imu_link,-0.000667035286995,-0.365441899269,-0.00147714942306,0.930832740804,0.0,0.0,0.0,0.0,0.0,0.0,0.0,0.0,0.0,0.00243027426023,0.00155808800485,0.0010891874724,0.0,0.0,0.0,0.0,0.0,0.0,0.0,0.0,0.0,5.68722903455,-0.00587386980259,7.87057146358,0.0,0.0,0.0,0.0,0.0,0.0,0.0,0.0,0.0
24724000000,225,24724000000,imu_link,-0.000662235410182,-0.365440377049,-0.00147315382712,0.93083334818,0.0,0.0,0.0,0.0,0.0,0.0,0.0,0.0,0.0,0.00296309862706,0.000821658868802,0.00098353399205,0.0,0.0,0.0,0.0,0.0,0.0,0.0,0.0,0.0,5.69212452552,-0.00578003184371,7.86887569701,0.0,0.0,0.0,0.0,0.0,0.0,0.0,0.0,0.0
24728000000,226,24728000000,imu_link,-0.000656554012672,-0.365440164076,-0.00146905268431,0.930833442299,0.0,0.0,0.0,0.0,0.0,0.0,0.0,0.0,0.0,0.00339345301284,0.000119145580468,0.000870774064059,0.0,0.0,0.0,0.0,0.0,0.0,0.0,0.0,0.0,5.69651327759,-0.0056395867012,7.86394305434,0.0,0.0,0.0,0.0,0.0,0.0,0.0,0.0,0.0
24732000000,227,24732000000,imu_link,-0.000650188415885,-0.365441032691,-0.00146489033214,0.930833112312,0.0,0.0,0.0,0.0,0.0,0.0,0.0,0.0,0.0,0.00372373020906,-0.000461253926264,0.000773578403183,0.0,0.0,0.0,0.0,0.0,0.0,0.0,0.0,0.0,5.70077246874,-0.00553863215863,7.85767641605,0.0,0.0,0.0,0.0,0.0,0.0,0.0,0.0,0.0
24736000000,228,24736000000,imu_link,-0.000643332009795,-0.365442720972,-0.00146068997627,0.930832460864,0.0,0.0,0.0,0.0,0.0,0.0,0.0,0.0,0.0,0.0039596008939,-0.000901130337537,0.000701083101334,0.0,0.0,0.0,0.0,0.0,0.0,0.0,0.0,0.0,5.70442416991,-0.0054714616385,7.84975022695,0.0,0.0,0.0,0.0,0.0,0.0,0.0,0.0,0.0
24740000000,229,24740000000,imu_link,-0.000636225363437,-0.365445081277,-0.0014564449066,0.930831545746,0.0,0.0,0.0,0.0,0.0,0.0,0.0,0.0,0.0,0.00408464294007,-0.00126191131243,0.000675760650849,0.0,0.0,0.0,0.0,0.0,0.0,0.0,0.0,0.0,5.70861565116,-0.00542601758276,7.84421969693,0.0,0.0,0.0,0.0,0.0,0.0,0.0,0.0,0.0
24744000000,230,24744000000,imu_link,-0.000628994015575,-0.365448146998,-0.00145212109524,0.930830353806,0.0,0.0,0.0,0.0,0.0,0.0,0.0,0.0,0.0,0.00415749450702,-0.00164073859952,0.000689196511782,0.0,0.0,0.0,0.0,0.0,0.0,0.0,0.0,0.0,5.71276140291,-0.00543606991022,7.83989119419,0.0,0.0,0.0,0.0,0.0,0.0,0.0,0.0,0.0
24748000000,231,24748000000,imu_link,-0.000621810530439,-0.365452057429,-0.00144777481888,0.93082883014,0.0,0.0,0.0,0.0,0.0,0.0,0.0,0.0,0.0,0.00413983234879,-0.00209453552694,0.000707891224094,0.0,0.0,0.0,0.0,0.0,0.0,0.0,0.0,0.0,5.71700480552,-0.00544835562349,7.83679570985,0.0,0.0,0.0,0.0,0.0,0.0,0.0,0.0,0.0
24752000000,232,24752000000,imu_link,-0.000614816127943,-0.365456888945,-0.00144345126873,0.930826944588,0.0,0.0,0.0,0.0,0.0,0.0,0.0,0.0,0.0,0.00404823214082,-0.0025894778513,0.000731316101091,0.0,0.0,0.0,0.0,0.0,0.0,0.0,0.0,0.0,5.72133055136,-0.00548937212358,7.8336269928,0.0,0.0,0.0,0.0,0.0,0.0,0.0,0.0,0.0
24756000000,233,24756000000,imu_link,-0.000608090575509,-0.365462546373,-0.0014391482999,0.930824734457,0.0,0.0,0.0,0.0,0.0,0.0,0.0,0.0,0.0,0.00391984120896,-0.00303336547562,0.000770375678873,0.0,0.0,0.0,0.0,0.0,0.0,0.0,0.0,0.0,5.72514517536,-0.00555371968021,7.82804150857,0.0,0.0,0.0,0.0,0.0,0.0,0.0,0.0,0.0
24760000000,234,24760000000,imu_link,-0.000601709898289,-0.365468811736,-0.00143486893029,0.930822285264,0.0,0.0,0.0,0.0,0.0,0.0,0.0,0.0,0.0,0.00375538447598,-0.00336023130368,0.000822054940857,0.0,0.0,0.0,0.0,0.0,0.0,0.0,0.0,0.0,5.72847653539,-0.00561494211222,7.82040469872,0.0,0.0,0.0,0.0,0.0,0.0,0.0,0.0,0.0
24764000000,235,24764000000,imu_link,-0.000595789895388,-0.365475405649,-0.00143066048429,0.930819706555,0.0,0.0,0.0,0.0,0.0,0.0,0.0,0.0,0.0,0.0035282180768,-0.00353711861073,0.000873035581196,0.0,0.0,0.0,0.0,0.0,0.0,0.0,0.0,0.0,5.73308455118,-0.00568147741897,7.81574798637,0.0,0.0,0.0,0.0,0.0,0.0,0.0,0.0,0.0
24768000000,236,24768000000,imu_link,-0.000590276469136,-0.36548217126,-0.00142652527977,0.930817059948,0.0,0.0,0.0,0.0,0.0,0.0,0.0,0.0,0.0,0.00332571191343,-0.0036297046417,0.000913145441935,0.0,0.0,0.0,0.0,0.0,0.0,0.0,0.0,0.0,5.73644305723,-0.00584111649428,7.80895655741,0.0,0.0,0.0,0.0,0.0,0.0,0.0,0.0,0.0
24772000000,237,24772000000,imu_link,-0.000585223235899,-0.365489143213,-0.00142246075966,0.930814331815,0.0,0.0,0.0,0.0,0.0,0.0,0.0,0.0,0.0,0.00309874032804,-0.00374094406034,0.000964225436869,0.0,0.0,0.0,0.0,0.0,0.0,0.0,0.0,0.0,5.74056125611,-0.00598401342279,7.80553331544,0.0,0.0,0.0,0.0,0.0,0.0,0.0,0.0,0.0
24776000000,238,24776000000,imu_link,-0.000580742710655,-0.365496419792,-0.00141846845995,0.930811483494,0.0,0.0,0.0,0.0,0.0,0.0,0.0,0.0,0.0,0.00281918152757,-0.00390506845047,0.00103509820387,0.0,0.0,0.0,0.0,0.0,0.0,0.0,0.0,0.0,5.74360193609,-0.00611161611991,7.79990565887,0.0,0.0,0.0,0.0,0.0,0.0,0.0,0.0,0.0
24780000000,239,24780000000,imu_link,-0.000576797141546,-0.365504054071,-0.00141454244189,0.930808494177,0.0,0.0,0.0,0.0,0.0,0.0,0.0,0.0,0.0,0.00255830977097,-0.00409767116638,0.00110180875591,0.0,0.0,0.0,0.0,0.0,0.0,0.0,0.0,0.0,5.74697200286,-0.00625197767526,7.79489543078,0.0,0.0,0.0,0.0,0.0,0.0,0.0,0.0,0.0
24784000000,240,24784000000,imu_link,-0.000573205841801,-0.365511842036,-0.00141067195147,0.930805444102,0.0,0.0,0.0,0.0,0.0,0.0,0.0,0.0,0.0,0.0023833746902,-0.00418053588626,0.00114062210127,0.0,0.0,0.0,0.0,0.0,0.0,0.0,0.0,0.0,5.75072955339,-0.00639504695869,7.78928981875,0.0,0.0,0.0,0.0,0.0,0.0,0.0,0.0,0.0
24788000000,241,24788000000,imu_link,-0.000569809781292,-0.365519595499,-0.00140684439969,0.930802407287,0.0,0.0,0.0,0.0,0.0,0.0,0.0,0.0,0.0,0.00228464199111,-0.00416217997363,0.00115633870952,0.0,0.0,0.0,0.0,0.0,0.0,0.0,0.0,0.0,5.75468260036,-0.00652105965035,7.78430139915,0.0,0.0,0.0,0.0,0.0,0.0,0.0,0.0,0.0
24792000000,242,24792000000,imu_link,-0.000566488756849,-0.365527135713,-0.00140305271141,0.930799454013,0.0,0.0,0.0,0.0,0.0,0.0,0.0,0.0,0.0,0.00224303950783,-0.00404770870792,0.0011534808917,0.0,0.0,0.0,0.0,0.0,0.0,0.0,0.0,0.0,5.75881636513,-0.00660201091795,7.77986022682,0.0,0.0,0.0,0.0,0.0,0.0,0.0,0.0,0.0
24796000000,243,24796000000,imu_link,-0.000563073541419,-0.365534394645,-0.00139928493527,0.930796611125,0.0,0.0,0.0,0.0,0.0,0.0,0.0,0.0,0.0,0.00228233963991,-0.00389655287478,0.00112529461822,0.0,0.0,0.0,0.0,0.0,0.0,0.0,0.0,0.0,5.76180462646,-0.00666758128979,7.77347038048,0.0,0.0,0.0,0.0,0.0,0.0,0.0,0.0,0.0
24800000000,244,24800000000,imu_link,-0.000559422537672,-0.365541542533,-0.00139552974582,0.930793811876,0.0,0.0,0.0,0.0,0.0,0.0,0.0,0.0,0.0,0.00238970928368,-0.00383672864719,0.00107640421991,0.0,0.0,0.0,0.0,0.0,0.0,0.0,0.0,0.0,5.765431954,-0.00669497379643,7.77037344601,0.0,0.0,0.0,0.0,0.0,0.0,0.0,0.0,0.0
24804000000,245,24804000000,imu_link,-0.000555417563644,-0.365548694001,-0.00139177682321,0.930791011335,0.0,0.0,0.0,0.0,0.0,0.0,0.0,0.0,0.0,0.00255403378048,-0.00383838312908,0.00101065191058,0.0,0.0,0.0,0.0,0.0,0.0,0.0,0.0,0.0,5.7692148668,-0.00668938915683,7.7672594333,0.0,0.0,0.0,0.0,0.0,0.0,0.0,0.0,0.0
24808000000,246,24808000000,imu_link,-0.000550962248206,-0.365555922121,-0.00138801747436,0.930788180872,0.0,0.0,0.0,0.0,0.0,0.0,0.0,0.0,0.0,0.00276484023282,-0.00387921421275,0.00093128969027,0.0,0.0,0.0,0.0,0.0,0.0,0.0,0.0,0.0,5.77315203707,-0.00665970262969,7.76422915838,0.0,0.0,0.0,0.0,0.0,0.0,0.0,0.0,0.0
24812000000,247,24812000000,imu_link,-0.000545980529998,-0.365563243726,-0.00138424753265,0.930785313916,0.0,0.0,0.0,0.0,0.0,0.0,0.0,0.0,0.0,0.00301181593992,-0.00392902930163,0.000839953643634,0.0,0.0,0.0,0.0,0.0,0.0,0.0,0.0,0.0,5.77724576107,-0.00665840589424,7.76133887995,0.0,0.0,0.0,0.0,0.0,0.0,0.0,0.0,0.0
24816000000,248,24816000000,imu_link,-0.000540529921385,-0.365570521959,-0.00138046348787,0.930782464179,0.0,0.0,0.0,0.0,0.0,0.0,0.0,0.0,0.0,0.0032325865537,-0.00390537630628,0.000760836312284,0.0,0.0,0.0,0.0,0.0,0.0,0.0,0.0,0.0,5.78051400869,-0.0066451640914,7.75558067166,0.0,0.0,0.0,0.0,0.0,0.0,0.0,0.0,0.0
24820000000,249,24820000000,imu_link,-0.000534735312902,-0.365577861749,-0.0013766702912,0.930779590363,0.0,0.0,0.0,0.0,0.0,0.0,0.0,0.0,0.0,0.00339438988909,-0.0039381907361,0.000702184159588,0.0,0.0,0.0,0.0,0.0,0.0,0.0,0.0,0.0,5.78379769563,-0.0066091864368,7.75145998084,0.0,0.0,0.0,0.0,0.0,0.0,0.0,0.0,0.0
24824000000,250,24824000000,imu_link,-0.000528553187888,-0.365585882199,-0.00137286121425,0.930776449326,0.0,0.0,0.0,0.0,0.0,0.0,0.0,0.0,0.0,0.00357803594418,-0.00430354520026,0.000638375027375,0.0,0.0,0.0,0.0,0.0,0.0,0.0,0.0,0.0,5.78902783038,-0.00660742960332,7.75562114746,0.0,0.0,0.0,0.0,0.0,0.0,0.0,0.0,0.0
24828000000,251,24828000000,imu_link,-0.000522018090058,-0.365595215855,-0.00136900683575,0.930772792609,0.0,0.0,0.0,0.0,0.0,0.0,0.0,0.0,0.0,0.00375135128203,-0.00500872839607,0.000594235865279,0.0,0.0,0.0,0.0,0.0,0.0,0.0,0.0,0.0,5.79390452222,-0.0065800210991,7.75887603519,0.0,0.0,0.0,0.0,0.0,0.0,0.0,0.0,0.0
24832000000,252,24832000000,imu_link,-0.000515344827031,-0.365606002821,-0.00136509217413,0.930768565028,0.0,0.0,0.0,0.0,0.0,0.0,0.0,0.0,0.0,0.00382751688964,-0.0057893532157,0.000596264454194,0.0,0.0,0.0,0.0,0.0,0.0,0.0,0.0,0.0,5.79822308339,-0.00652199108703,7.75735370451,0.0,0.0,0.0,0.0,0.0,0.0,0.0,0.0,0.0
24836000000,253,24836000000,imu_link,-0.000508895714979,-0.365617978493,-0.0013611600217,0.930763870201,0.0,0.0,0.0,0.0,0.0,0.0,0.0,0.0,0.0,0.00372708887233,-0.00642812903078,0.000644754662845,0.0,0.0,0.0,0.0,0.0,0.0,0.0,0.0,0.0,5.80109564011,-0.00647904821596,7.74936106025,0.0,0.0,0.0,0.0,0.0,0.0,0.0,0.0,0.0
24840000000,254,24840000000,imu_link,-0.000503061371078,-0.365630512679,-0.0013572782721,0.930758955328,0.0,0.0,0.0,0.0,0.0,0.0,0.0,0.0,0.0,0.00343209691425,-0.00672868373779,0.000733391369403,0.0,0.0,0.0,0.0,0.0,0.0,0.0,0.0,0.0,5.80488688444,-0.00647684264379,7.74138322211,0.0,0.0,0.0,0.0,0.0,0.0,0.0,0.0,0.0
24844000000,255,24844000000,imu_link,-0.000497891515701,-0.365643140735,-0.001353460943,0.930754002882,0.0,0.0,0.0,0.0,0.0,0.0,0.0,0.0,0.0,0.00311113479316,-0.00677967249641,0.000824840916619,0.0,0.0,0.0,0.0,0.0,0.0,0.0,0.0,0.0,5.80864131044,-0.00658537018253,7.73487208238,0.0,0.0,0.0,0.0,0.0,0.0,0.0,0.0,0.0
24848000000,256,24848000000,imu_link,-0.000493159411944,-0.365655584631,-0.00134965757152,0.930749122291,0.0,0.0,0.0,0.0,0.0,0.0,0.0,0.0,0.0,0.00290475676721,-0.00668112505067,0.000898470279033,0.0,0.0,0.0,0.0,0.0,0.0,0.0,0.0,0.0,5.81229475739,-0.00675000732378,7.72958400609,0.0,0.0,0.0,0.0,0.0,0.0,0.0,0.0,0.0
24852000000,257,24852000000,imu_link,-0.000488381651545,-0.365667792636,-0.00134577777795,0.93074433428,0.0,0.0,0.0,0.0,0.0,0.0,0.0,0.0,0.0,0.00293983992728,-0.00655440870245,0.000925808507522,0.0,0.0,0.0,0.0,0.0,0.0,0.0,0.0,0.0,5.81626261873,-0.00691358474778,7.72681030265,0.0,0.0,0.0,0.0,0.0,0.0,0.0,0.0,0.0
24856000000,258,24856000000,imu_link,-0.000483085879601,-0.36567984462,-0.00134171455908,0.930739607876,0.0,0.0,0.0,0.0,0.0,0.0,0.0,0.0,0.0,0.00321435450553,-0.00647023350773,0.00091653902279,0.0,0.0,0.0,0.0,0.0,0.0,0.0,0.0,0.0,5.82048753035,-0.00701081417205,7.72553066352,0.0,0.0,0.0,0.0,0.0,0.0,0.0,0.0,0.0
24860000000,259,24860000000,imu_link,-0.000477051147195,-0.365691873064,-0.00133740976621,0.930734891219,0.0,0.0,0.0,0.0,0.0,0.0,0.0,0.0,0.0,0.00360240032621,-0.00645705918941,0.000893861023968,0.0,0.0,0.0,0.0,0.0,0.0,0.0,0.0,0.0,5.82390635015,-0.00705129301276,7.72259558743,0.0,0.0,0.0,0.0,0.0,0.0,0.0,0.0,0.0
24864000000,260,24864000000,imu_link,-0.0004702711626,-0.365704250608,-0.00133288432925,0.930730037848,0.0,0.0,0.0,0.0,0.0,0.0,0.0,0.0,0.0,0.00398976114325,-0.00664407094392,0.0008601005715,0.0,0.0,0.0,0.0,0.0,0.0,0.0,0.0,0.0,5.82791652782,-0.00703272276568,7.72286745892,0.0,0.0,0.0,0.0,0.0,0.0,0.0,0.0,0.0
24868000000,261,24868000000,imu_link,-0.000462893553536,-0.365717465646,-0.00132819171759,0.930724855668,0.0,0.0,0.0,0.0,0.0,0.0,0.0,0.0,0.0,0.00429892374067,-0.00709357551272,0.000828204867273,0.0,0.0,0.0,0.0,0.0,0.0,0.0,0.0,0.0,5.83174260016,-0.00696499761972,7.72364363322,0.0,0.0,0.0,0.0,0.0,0.0,0.0,0.0,0.0
24872000000,262,24872000000,imu_link,-0.00045518927168,-0.36573194344,-0.00132341020272,0.930719177269,0.0,0.0,0.0,0.0,0.0,0.0,0.0,0.0,0.0,0.00446792545637,-0.00777175691979,0.000809220311608,0.0,0.0,0.0,0.0,0.0,0.0,0.0,0.0,0.0,5.8362448708,-0.00688383632138,7.72548026094,0.0,0.0,0.0,0.0,0.0,0.0,0.0,0.0,0.0
24876000000,263,24876000000,imu_link,-0.000447338642338,-0.36574789191,-0.00131858364622,0.930712920717,0.0,0.0,0.0,0.0,0.0,0.0,0.0,0.0,0.0,0.004545107812,-0.00856178730724,0.000802701605073,0.0,0.0,0.0,0.0,0.0,0.0,0.0,0.0,0.0,5.83838671651,-0.00684773475247,7.72028267058,0.0,0.0,0.0,0.0,0.0,0.0,0.0,0.0,0.0
24880000000,264,24880000000,imu_link,-0.000439378442381,-0.36576541119,-0.00131373296213,0.93070604652,0.0,0.0,0.0,0.0,0.0,0.0,0.0,0.0,0.0,0.00460140698783,-0.00940565871679,0.000793133373418,0.0,0.0,0.0,0.0,0.0,0.0,0.0,0.0,0.0,5.84098602522,-0.00686143547873,7.71508317187,0.0,0.0,0.0,0.0,0.0,0.0,0.0,0.0,0.0
24884000000,265,24884000000,imu_link,-0.000431147312751,-0.365784502493,-0.00130882512999,0.930698554219,0.0,0.0,0.0,0.0,0.0,0.0,0.0,0.0,0.0,0.0047388331392,-0.0102500793149,0.000769427672852,0.0,0.0,0.0,0.0,0.0,0.0,0.0,0.0,0.0,5.8449031049,-0.0069160553145,7.71223516473,0.0,0.0,0.0,0.0,0.0,0.0,0.0,0.0,0.0
24888000000,266,24888000000,imu_link,-0.000422611090859,-0.365805020601,-0.00130384794127,0.930690500802,0.0,0.0,0.0,0.0,0.0,0.0,0.0,0.0,0.0,0.00489430514209,-0.0110164808946,0.000745228915653,0.0,0.0,0.0,0.0,0.0,0.0,0.0,0.0,0.0,5.84746646174,-0.00691857481684,7.70513841921,0.0,0.0,0.0,0.0,0.0,0.0,0.0,0.0,0.0
24892000000,267,24892000000,imu_link,-0.000413951785226,-0.365826715288,-0.00129881938974,0.930681984404,0.0,0.0,0.0,0.0,0.0,0.0,0.0,0.0,0.0,0.00496164517193,-0.0116486075701,0.000746067581172,0.0,0.0,0.0,0.0,0.0,0.0,0.0,0.0,0.0,5.85050488523,-0.00686950783125,7.69857207685,0.0,0.0,0.0,0.0,0.0,0.0,0.0,0.0,0.0
24896000000,268,24896000000,imu_link,-0.000405442557445,-0.365849353275,-0.00129377824935,0.930673096454,0.0,0.0,0.0,0.0,0.0,0.0,0.0,0.0,0.0,0.0048946461502,-0.0121556253887,0.000778940404282,0.0,0.0,0.0,0.0,0.0,0.0,0.0,0.0,0.0,5.85246390096,-0.00683658441459,7.68973525516,0.0,0.0,0.0,0.0,0.0,0.0,0.0,0.0,0.0
24900000000,269,24900000000,imu_link,-0.000397170034675,-0.365872730532,-0.00128875079428,0.930663917013,0.0,0.0,0.0,0.0,0.0,0.0,0.0,0.0,0.0,0.00478241441303,-0.012553106293,0.000815532892686,0.0,0.0,0.0,0.0,0.0,0.0,0.0,0.0,0.0,5.85468869904,-0.00685832971675,7.68192058591,0.0,0.0,0.0,0.0,0.0,0.0,0.0,0.0,0.0
24904000000,270,24904000000,imu_link,-0.00038902327157,-0.365896734309,-0.00128373855681,0.930654490398,0.0,0.0,0.0,0.0,0.0,0.0,0.0,0.0,0.0,0.00472146519422,-0.0128899406207,0.000831173974765,0.0,0.0,0.0,0.0,0.0,0.0,0.0,0.0,0.0,5.85723612546,-0.00698931426707,7.67588142481,0.0,0.0,0.0,0.0,0.0,0.0,0.0,0.0,0.0
24908000000,271,24908000000,imu_link,-0.000380965995014,-0.365921163238,-0.00127876384528,0.930644895716,0.0,0.0,0.0,0.0,0.0,0.0,0.0,0.0,0.0,0.00467319955926,-0.0131185736534,0.000829892980638,0.0,0.0,0.0,0.0,0.0,0.0,0.0,0.0,0.0,5.86001615434,-0.00713374053894,7.66999321853,0.0,0.0,0.0,0.0,0.0,0.0,0.0,0.0,0.0
24912000000,272,24912000000,imu_link,-0.000373181736507,-0.36594569723,-0.00127387841623,0.930635258653,0.0,0.0,0.0,0.0,0.0,0.0,0.0,0.0,0.0,0.00452988205941,-0.0131753734364,0.000838252267882,0.0,0.0,0.0,0.0,0.0,0.0,0.0,0.0,0.0,5.86333479822,-0.00723427582095,7.66478421797,0.0,0.0,0.0,0.0,0.0,0.0,0.0,0.0,0.0
24916000000,273,24916000000,imu_link,-0.00036597977859,-0.365970167701,-0.00126912649634,0.930625645321,0.0,0.0,0.0,0.0,0.0,0.0,0.0,0.0,0.0,0.00423446274825,-0.0131418200002,0.000882700270375,0.0,0.0,0.0,0.0,0.0,0.0,0.0,0.0,0.0,5.86580271879,-0.00729618576892,7.65898458344,0.0,0.0,0.0,0.0,0.0,0.0,0.0,0.0,0.0
24924000000,274,24924000000,imu_link,-0.000354869989617,-0.36601958488,-0.00126033316557,0.930606226667,0.0,0.0,0.0,0.0,0.0,0.0,0.0,0.0,0.0,0.0030736785127,-0.0133604989167,0.00107052124285,0.0,0.0,0.0,0.0,0.0,0.0,0.0,0.0,0.0,5.87153228346,-0.00738915747251,7.6581228709,0.0,0.0,0.0,0.0,0.0,0.0,0.0,0.0,0.0
24928000000,275,24928000000,imu_link,-0.00035119929942,-0.366044966396,-0.00125636142927,0.930596250149,0.0,0.0,0.0,0.0,0.0,0.0,0.0,0.0,0.0,0.00244907461397,-0.0136342904926,0.00116549857913,0.0,0.0,0.0,0.0,0.0,0.0,0.0,0.0,0.0,5.87638679109,-0.00772069078755,7.65655223908,0.0,0.0,0.0,0.0,0.0,0.0,0.0,0.0,0.0
24932000000,276,24932000000,imu_link,-0.000348529830721,-0.366070868938,-0.00125265590618,0.930586067108,0.0,0.0,0.0,0.0,0.0,0.0,0.0,0.0,0.0,0.00193477615857,-0.0139151035171,0.00122465489078,0.0,0.0,0.0,0.0,0.0,0.0,0.0,0.0,0.0,5.88092077661,-0.00794353380336,7.65659618914,0.0,0.0,0.0,0.0,0.0,0.0,0.0,0.0,0.0
24936000000,277,24936000000,imu_link,-0.000346669756258,-0.366097038383,-0.00124922026995,0.930575777546,0.0,0.0,0.0,0.0,0.0,0.0,0.0,0.0,0.0,0.00150892040372,-0.0140592484997,0.00124711300668,0.0,0.0,0.0,0.0,0.0,0.0,0.0,0.0,0.0,5.88394077444,-0.00811426782735,7.65123337217,0.0,0.0,0.0,0.0,0.0,0.0,0.0,0.0,0.0
24940000000,278,24940000000,imu_link,-0.000345417239807,-0.366123141972,-0.00124604031224,0.930565512462,0.0,0.0,0.0,0.0,0.0,0.0,0.0,0.0,0.0,0.00117939255621,-0.014024461058,0.00123938819391,0.0,0.0,0.0,0.0,0.0,0.0,0.0,0.0,0.0,5.88708067163,-0.00824520225229,7.64568803285,0.0,0.0,0.0,0.0,0.0,0.0,0.0,0.0,0.0
24944000000,279,24944000000,imu_link,-0.00034474314375,-0.366148709618,-0.00124311196205,0.930555456848,0.0,0.0,0.0,0.0,0.0,0.0,0.0,0.0,0.0,0.000863906125545,-0.013737067262,0.00122842916226,0.0,0.0,0.0,0.0,0.0,0.0,0.0,0.0,0.0,5.89017207655,-0.00829494016388,7.63886899342,0.0,0.0,0.0,0.0,0.0,0.0,0.0,0.0,0.0
24948000000,280,24948000000,imu_link,-0.000344596474899,-0.366173416997,-0.00124042122419,0.930545738421,0.0,0.0,0.0,0.0,0.0,0.0,0.0,0.0,0.0,0.000574528685259,-0.0132753607322,0.0012147896953,0.0,0.0,0.0,0.0,0.0,0.0,0.0,0.0,0.0,5.89370614189,-0.00834813071525,7.63411523402,0.0,0.0,0.0,0.0,0.0,0.0,0.0,0.0,0.0
24952000000,281,24952000000,imu_link,-0.000344927101778,-0.366197179662,-0.0012379528016,0.930536390533,0.0,0.0,0.0,0.0,0.0,0.0,0.0,0.0,0.0,0.000311230882615,-0.0127682274775,0.0011991315229,0.0,0.0,0.0,0.0,0.0,0.0,0.0,0.0,0.0,5.89703802544,-0.00844847984173,7.63103102891,0.0,0.0,0.0,0.0,0.0,0.0,0.0,0.0,0.0
24956000000,282,24956000000,imu_link,-0.000345623251478,-0.36622000316,-0.00123568828094,0.930527411151,0.0,0.0,0.0,0.0,0.0,0.0,0.0,0.0,0.0,0.00010331281634,-0.0122639815339,0.00117157922307,0.0,0.0,0.0,0.0,0.0,0.0,0.0,0.0,0.0,5.89910261272,-0.00856727124635,7.62588950362,0.0,0.0,0.0,0.0,0.0,0.0,0.0,0.0,0.0
24960000000,283,24960000000,imu_link,-0.000346707990276,-0.3662421533,-0.00123361024703,0.930518695753,0.0,0.0,0.0,0.0,0.0,0.0,0.0,0.0,0.0,-0.000112001588514,-0.011902562044,0.00115624772114,0.0,0.0,0.0,0.0,0.0,0.0,0.0,0.0,0.0,5.90186826412,-0.00858762406355,7.62446136875,0.0,0.0,0.0,0.0,0.0,0.0,0.0,0.0,0.0
24964000000,284,24964000000,imu_link,-0.000348294653136,-0.366263957762,-0.00123167927794,0.930510115421,0.0,0.0,0.0,0.0,0.0,0.0,0.0,0.0,0.0,-0.000372646919034,-0.0117172826951,0.00117988055011,0.0,0.0,0.0,0.0,0.0,0.0,0.0,0.0,0.0,5.90529132703,-0.00858681130929,7.62517852271,0.0,0.0,0.0,0.0,0.0,0.0,0.0,0.0,0.0
24972000000,285,24972000000,imu_link,-0.000353185826406,-0.366307705438,-0.00122814959191,0.930492897257,0.0,0.0,0.0,0.0,0.0,0.0,0.0,0.0,0.0,-0.000929051488037,-0.0118507329525,0.00128561760119,0.0,0.0,0.0,0.0,0.0,0.0,0.0,0.0,0.0,5.91060106657,-0.00865842535471,7.62582517123,0.0,0.0,0.0,0.0,0.0,0.0,0.0,0.0,0.0
24976000000,286,24976000000,imu_link,-0.000356343777557,-0.366330427861,-0.00122650170816,0.930483952756,0.0,0.0,0.0,0.0,0.0,0.0,0.0,0.0,0.0,-0.00115503556796,-0.0122119768565,0.00133555777253,0.0,0.0,0.0,0.0,0.0,0.0,0.0,0.0,0.0,5.91614951458,-0.00868482918897,7.62784724497,0.0,0.0,0.0,0.0,0.0,0.0,0.0,0.0,0.0
24980000000,287,24980000000,imu_link,-0.000359505377462,-0.366353852885,-0.00122489617006,0.93047473091,0.0,0.0,0.0,0.0,0.0,0.0,0.0,0.0,0.0,-0.00116410791688,-0.0125896508125,0.00131622985559,0.0,0.0,0.0,0.0,0.0,0.0,0.0,0.0,0.0,5.91860040246,-0.00875506161649,7.62342624224,0.0,0.0,0.0,0.0,0.0,0.0,0.0,0.0,0.0
24984000000,288,24984000000,imu_link,-0.000362309291406,-0.36637779111,-0.00122330683708,0.930465306411,0.0,0.0,0.0,0.0,0.0,0.0,0.0,0.0,0.0,-0.00100038956439,-0.0128653103184,0.00124295445386,0.0,0.0,0.0,0.0,0.0,0.0,0.0,0.0,0.0,5.92120702539,-0.00874097683987,7.61778128186,0.0,0.0,0.0,0.0,0.0,0.0,0.0,0.0,0.0
24988000000,289,24988000000,imu_link,-0.00036463758881,-0.366401846981,-0.00122171594179,0.93045583505,0.0,0.0,0.0,0.0,0.0,0.0,0.0,0.0,0.0,-0.000778767553038,-0.0129283372156,0.00115650364405,0.0,0.0,0.0,0.0,0.0,0.0,0.0,0.0,0.0,5.92390480918,-0.0086388556623,7.61093427963,0.0,0.0,0.0,0.0,0.0,0.0,0.0,0.0,0.0
24992000000,290,24992000000,imu_link,-0.000366447276608,-0.366425563353,-0.00122008726364,0.930446496917,0.0,0.0,0.0,0.0,0.0,0.0,0.0,0.0,0.0,-0.000530757127055,-0.0127456752347,0.00107921480652,0.0,0.0,0.0,0.0,0.0,0.0,0.0,0.0,0.0,5.92703982579,-0.00850985816141,7.60480148991,0.0,0.0,0.0,0.0,0.0,0.0,0.0,0.0,0.0
24996000000,291,24996000000,imu_link,-0.000367743756393,-0.366448634822,-0.00121840025142,0.930437412351,0.0,0.0,0.0,0.0,0.0,0.0,0.0,0.0,0.0,-0.000281660241008,-0.0123988924796,0.00101259975036,0.0,0.0,0.0,0.0,0.0,0.0,0.0,0.0,0.0,5.92930097125,-0.00841999968877,7.59802580379,0.0,0.0,0.0,0.0,0.0,0.0,0.0,0.0,0.0
25000000000,292,25000000000,imu_link,-0.000368435913468,-0.366471004244,-0.0012166239891,0.930428603994,0.0,0.0,0.0,0.0,0.0,0.0,0.0,0.0,0.0,1.54578773911e-05,-0.0120213271772,0.000943691306067,0.0,0.0,0.0,0.0,0.0,0.0,0.0,0.0,0.0,5.93085697192,-0.00832621151726,7.59178223109,0.0,0.0,0.0,0.0,0.0,0.0,0.0,0.0,0.0
25004000000,293,25004000000,imu_link,-0.000368208953228,-0.36649301199,-0.00121469234521,0.930419938043,0.0,0.0,0.0,0.0,0.0,0.0,0.0,0.0,0.0,0.000471322040261,-0.011826445731,0.000847715367596,0.0,0.0,0.0,0.0,0.0,0.0,0.0,0.0,0.0,5.93353669649,-0.00821702669153,7.59097787773,0.0,0.0,0.0,0.0,0.0,0.0,0.0,0.0,0.0
25008000000,294,25008000000,imu_link,-0.000367142663258,-0.366515211278,-0.00121263338547,0.93041119653,0.0,0.0,0.0,0.0,0.0,0.0,0.0,0.0,0.0,0.000885219203456,-0.011928912995,0.000753058573228,0.0,0.0,0.0,0.0,0.0,0.0,0.0,0.0,0.0,5.93680518186,-0.00800375441598,7.59300941756,0.0,0.0,0.0,0.0,0.0,0.0,0.0,0.0,0.0
25012000000,295,25012000000,imu_link,-0.000365674744444,-0.366537861247,-0.00121056235909,0.930402277025,0.0,0.0,0.0,0.0,0.0,0.0,0.0,0.0,0.0,0.00107451107585,-0.0121709498982,0.000684879851603,0.0,0.0,0.0,0.0,0.0,0.0,0.0,0.0,0.0,5.94048812777,-0.00775501706351,7.59390935983,0.0,0.0,0.0,0.0,0.0,0.0,0.0,0.0,0.0
25016000000,296,25016000000,imu_link,-0.000364230209129,-0.366560856736,-0.001208572588,0.930393220632,0.0,0.0,0.0,0.0,0.0,0.0,0.0,0.0,0.0,0.00104892558278,-0.0123567724074,0.000651219235936,0.0,0.0,0.0,0.0,0.0,0.0,0.0,0.0,0.0,5.94253434364,-0.00758048062535,7.58837305183,0.0,0.0,0.0,0.0,0.0,0.0,0.0,0.0,0.0
25020000000,297,25020000000,imu_link,-0.000363215100342,-0.366583958228,-0.00120672017803,0.930384121463,0.0,0.0,0.0,0.0,0.0,0.0,0.0,0.0,0.0,0.000824038478919,-0.012414159516,0.00066597963123,0.0,0.0,0.0,0.0,0.0,0.0,0.0,0.0,0.0,5.94511317632,-0.00749850339675,7.58293481128,0.0,0.0,0.0,0.0,0.0,0.0,0.0,0.0,0.0
25024000000,298,25024000000,imu_link,-0.000362762346982,-0.36660703763,-0.00120502106895,0.930375029914,0.0,0.0,0.0,0.0,0.0,0.0,0.0,0.0,0.0,0.000534324430457,-0.0124027980524,0.000697749122087,0.0,0.0,0.0,0.0,0.0,0.0,0.0,0.0,0.0,5.94732379435,-0.00750863026547,7.57732183347,0.0,0.0,0.0,0.0,0.0,0.0,0.0,0.0,0.0
25028000000,299,25028000000,imu_link,-0.000362835580652,-0.366630079391,-0.00120347262566,0.930365952134,0.0,0.0,0.0,0.0,0.0,0.0,0.0,0.0,0.0,0.000262004080444,-0.0123830534185,0.000724091676927,0.0,0.0,0.0,0.0,0.0,0.0,0.0,0.0,0.0,5.94975024369,-0.00757247667617,7.57325593556,0.0,0.0,0.0,0.0,0.0,0.0,0.0,0.0,0.0
25032000000,300,25032000000,imu_link,-0.000363392655535,-0.366653109602,-0.00120207158459,0.930356877864,0.0,0.0,0.0,0.0,0.0,0.0,0.0,0.0,0.0,9.90202662981e-06,-0.0123773017364,0.000744222249179,0.0,0.0,0.0,0.0,0.0,0.0,0.0,0.0,0.0,5.95193581681,-0.0076321952641,7.56901540582,0.0,0.0,0.0,0.0,0.0,0.0,0.0,0.0,0.0
25036000000,301,25036000000,imu_link,-0.000364403637546,-0.366676137346,-0.00120081767692,0.930347803538,0.0,0.0,0.0,0.0,0.0,0.0,0.0,0.0,0.0,-0.000228220733155,-0.0123764105459,0.000758992611545,0.0,0.0,0.0,0.0,0.0,0.0,0.0,0.0,0.0,5.95438597879,-0.00766731915876,7.56529828626,0.0,0.0,0.0,0.0,0.0,0.0,0.0,0.0,0.0
25040000000,302,25040000000,imu_link,-0.000365709403565,-0.366699268866,-0.00119965563504,0.930338687412,0.0,0.0,0.0,0.0,0.0,0.0,0.0,0.0,0.0,-0.00038213436595,-0.0124325078878,0.000770260167275,0.0,0.0,0.0,0.0,0.0,0.0,0.0,0.0,0.0,5.9570214975,-0.00771033738841,7.56247873193,0.0,0.0,0.0,0.0,0.0,0.0,0.0,0.0,0.0
25044000000,303,25044000000,imu_link,-0.000367148603492,-0.366722474938,-0.00119853132923,0.93032954113,0.0,0.0,0.0,0.0,0.0,0.0,0.0,0.0,0.0,-0.00045108341854,-0.0124727897004,0.000777139845752,0.0,0.0,0.0,0.0,0.0,0.0,0.0,0.0,0.0,5.9603287695,-0.00775203212069,7.56034467591,0.0,0.0,0.0,0.0,0.0,0.0,0.0,0.0,0.0
25048000000,304,25048000000,imu_link,-0.000368454433608,-0.366745510804,-0.00119740585506,0.930320461328,0.0,0.0,0.0,0.0,0.0,0.0,0.0,0.0,0.0,-0.000388920045409,-0.0123813463271,0.000753299551663,0.0,0.0,0.0,0.0,0.0,0.0,0.0,0.0,0.0,5.96327720373,-0.00780109856286,7.55621495006,0.0,0.0,0.0,0.0,0.0,0.0,0.0,0.0,0.0
25052000000,305,25052000000,imu_link,-0.000369375856525,-0.36676808595,-0.00119623644899,0.930311562708,0.0,0.0,0.0,0.0,0.0,0.0,0.0,0.0,0.0,-0.000202295645082,-0.012133591704,0.000703438470345,0.0,0.0,0.0,0.0,0.0,0.0,0.0,0.0,0.0,5.96697060785,-0.00776632378094,7.55368820275,0.0,0.0,0.0,0.0,0.0,0.0,0.0,0.0,0.0
25056000000,306,25056000000,imu_link,-0.000369782683371,-0.366790014653,-0.00119498604302,0.930302918634,0.0,0.0,0.0,0.0,0.0,0.0,0.0,0.0,0.0,5.15861432446e-05,-0.0117859223244,0.000647018973245,0.0,0.0,0.0,0.0,0.0,0.0,0.0,0.0,0.0,5.96938078116,-0.00767955613631,7.54916173767,0.0,0.0,0.0,0.0,0.0,0.0,0.0,0.0,0.0
25060000000,307,25060000000,imu_link,-0.000369514285324,-0.366811332799,-0.00119359754829,0.930294515148,0.0,0.0,0.0,0.0,0.0,0.0,0.0,0.0,0.0,0.000390672456344,-0.011457420427,0.000587674923834,0.0,0.0,0.0,0.0,0.0,0.0,0.0,0.0,0.0,5.97141657502,-0.00758584217904,7.54568061389,0.0,0.0,0.0,0.0,0.0,0.0,0.0,0.0,0.0
25064000000,308,25064000000,imu_link,-0.000368498423177,-0.366832131009,-0.00119205090821,0.930286316616,0.0,0.0,0.0,0.0,0.0,0.0,0.0,0.0,0.0,0.000767085655925,-0.0111775671014,0.000524365027959,0.0,0.0,0.0,0.0,0.0,0.0,0.0,0.0,0.0,5.97383493642,-0.0074547722738,7.54306951803,0.0,0.0,0.0,0.0,0.0,0.0,0.0,0.0,0.0
25068000000,309,25068000000,imu_link,-0.000366768865648,-0.366852853244,-0.00119031014198,0.930278148034,0.0,0.0,0.0,0.0,0.0,0.0,0.0,0.0,0.0,0.00113462226842,-0.011136344592,0.000483790124959,0.0,0.0,0.0,0.0,0.0,0.0,0.0,0.0,0.0,5.97821317841,-0.0073007144365,7.5470058927,0.0,0.0,0.0,0.0,0.0,0.0,0.0,0.0,0.0
25072000000,310,25072000000,imu_link,-0.000364550991528,-0.366874109939,-0.00118835937484,0.930269768595,0.0,0.0,0.0,0.0,0.0,0.0,0.0,0.0,0.0,0.00140055653102,-0.0114233677983,0.000491676082621,0.0,0.0,0.0,0.0,0.0,0.0,0.0,0.0,0.0,5.98319716593,-0.00713170716391,7.55368303515,0.0,0.0,0.0,0.0,0.0,0.0,0.0,0.0,0.0
25076000000,311,25076000000,imu_link,-0.000362095381297,-0.366896240693,-0.00118621789526,0.930261044191,0.0,0.0,0.0,0.0,0.0,0.0,0.0,0.0,0.0,0.0015465760897,-0.0118930963074,0.000536409193154,0.0,0.0,0.0,0.0,0.0,0.0,0.0,0.0,0.0,5.98677279023,-0.00698804626282,7.55504774333,0.0,0.0,0.0,0.0,0.0,0.0,0.0,0.0,0.0
25080000000,312,25080000000,imu_link,-0.000359556783717,-0.366919418443,-0.00118392292057,0.930251906429,0.0,0.0,0.0,0.0,0.0,0.0,0.0,0.0,0.0,0.00161388057022,-0.0124558938663,0.00059214585213,0.0,0.0,0.0,0.0,0.0,0.0,0.0,0.0,0.0,5.98877137823,-0.00690264108949,7.55144345389,0.0,0.0,0.0,0.0,0.0,0.0,0.0,0.0,0.0
25084000000,313,25084000000,imu_link,-0.000357255119556,-0.366943908829,-0.00118154220735,0.930242250223,0.0,0.0,0.0,0.0,0.0,0.0,0.0,0.0,0.0,0.0015200900807,-0.013161704121,0.000674949926988,0.0,0.0,0.0,0.0,0.0,0.0,0.0,0.0,0.0,5.99200767966,-0.00681182610444,7.55147723496,0.0,0.0,0.0,0.0,0.0,0.0,0.0,0.0,0.0
25088000000,314,25088000000,imu_link,-0.000355531271146,-0.366970034427,-0.0011791660393,0.930231947956,0.0,0.0,0.0,0.0,0.0,0.0,0.0,0.0,0.0,0.00125135248829,-0.0140411510554,0.000778175086158,0.0,0.0,0.0,0.0,0.0,0.0,0.0,0.0,0.0,5.99550507607,-0.00681378717631,7.55256968835,0.0,0.0,0.0,0.0,0.0,0.0,0.0,0.0,0.0
25092000000,315,25092000000,imu_link,-0.000354294309014,-0.366997746317,-0.00117679620274,0.930221018804,0.0,0.0,0.0,0.0,0.0,0.0,0.0,0.0,0.0,0.00102455598174,-0.0148942703276,0.000863914959019,0.0,0.0,0.0,0.0,0.0,0.0,0.0,0.0,0.0,5.99771688751,-0.00693353909118,7.54799143151,0.0,0.0,0.0,0.0,0.0,0.0,0.0,0.0,0.0
25096000000,316,25096000000,imu_link,-0.000353084440383,-0.367026590102,-0.00117441918459,0.930209642085,0.0,0.0,0.0,0.0,0.0,0.0,0.0,0.0,0.0,0.00101385904159,-0.0155028718712,0.000871762955181,0.0,0.0,0.0,0.0,0.0,0.0,0.0,0.0,0.0,6.00081510638,-0.00707764523645,7.54285985847,0.0,0.0,0.0,0.0,0.0,0.0,0.0,0.0,0.0
25100000000,317,25100000000,imu_link,-0.000351469618357,-0.367056041175,-0.00117200001548,0.930198024897,0.0,0.0,0.0,0.0,0.0,0.0,0.0,0.0,0.0,0.00121025423265,-0.0158292233515,0.000816804822816,0.0,0.0,0.0,0.0,0.0,0.0,0.0,0.0,0.0,6.0039604502,-0.0071343353528,7.53766400393,0.0,0.0,0.0,0.0,0.0,0.0,0.0,0.0,0.0
25104000000,318,25104000000,imu_link,-0.000349421975254,-0.367085905075,-0.00116955586144,0.930186243899,0.0,0.0,0.0,0.0,0.0,0.0,0.0,0.0,0.0,0.00141635745318,-0.0160510430537,0.000748821954003,0.0,0.0,0.0,0.0,0.0,0.0,0.0,0.0,0.0,6.00598802907,-0.00705520877584,7.53259022023,0.0,0.0,0.0,0.0,0.0,0.0,0.0,0.0,0.0
25108000000,319,25108000000,imu_link,-0.00034739280022,-0.367116310265,-0.00116717231652,0.930174248066,0.0,0.0,0.0,0.0,0.0,0.0,0.0,0.0,0.0,0.00139692270521,-0.0163422250542,0.000723802553605,0.0,0.0,0.0,0.0,0.0,0.0,0.0,0.0,0.0,6.00846860418,-0.00688900455548,7.53128377965,0.0,0.0,0.0,0.0,0.0,0.0,0.0,0.0,0.0
25112000000,320,25112000000,imu_link,-0.000346148026591,-0.367147440038,-0.00116495205529,0.930161964575,0.0,0.0,0.0,0.0,0.0,0.0,0.0,0.0,0.0,0.00100250854943,-0.0167324510799,0.000791550954661,0.0,0.0,0.0,0.0,0.0,0.0,0.0,0.0,0.0,6.01224556046,-0.00676070510148,7.53276403834,0.0,0.0,0.0,0.0,0.0,0.0,0.0,0.0,0.0
25116000000,321,25116000000,imu_link,-0.000346208307015,-0.367178988189,-0.00116291746161,0.930149514,0.0,0.0,0.0,0.0,0.0,0.0,0.0,0.0,0.0,0.000361683822498,-0.0169584304181,0.000944604402424,0.0,0.0,0.0,0.0,0.0,0.0,0.0,0.0,0.0,6.01430360196,-0.00677174433003,7.52657837008,0.0,0.0,0.0,0.0,0.0,0.0,0.0,0.0,0.0
25120000000,322,25120000000,imu_link,-0.000347684661787,-0.36721037407,-0.0011610365264,0.930137125528,0.0,0.0,0.0,0.0,0.0,0.0,0.0,0.0,0.0,-0.000325190293962,-0.0168723585521,0.00113318230195,0.0,0.0,0.0,0.0,0.0,0.0,0.0,0.0,0.0,6.01726554363,-0.00692907956317,7.52044281371,0.0,0.0,0.0,0.0,0.0,0.0,0.0,0.0,0.0
25124000000,323,25124000000,imu_link,-0.000350369749876,-0.367241197236,-0.00115927199829,0.930124957402,0.0,0.0,0.0,0.0,0.0,0.0,0.0,0.0,0.0,-0.000908995469883,-0.0165708817472,0.00130120046476,0.0,0.0,0.0,0.0,0.0,0.0,0.0,0.0,0.0,6.0190776939,-0.00714582270985,7.51330023619,0.0,0.0,0.0,0.0,0.0,0.0,0.0,0.0,0.0
25128000000,324,25128000000,imu_link,-0.000353874978587,-0.367271220316,-0.00115757818729,0.930113103613,0.0,0.0,0.0,0.0,0.0,0.0,0.0,0.0,0.0,-0.00130380591018,-0.0161415366462,0.00141922966415,0.0,0.0,0.0,0.0,0.0,0.0,0.0,0.0,0.0,6.02137974659,-0.00734144351856,7.50841827214,0.0,0.0,0.0,0.0,0.0,0.0,0.0,0.0,0.0
25132000000,325,25132000000,imu_link,-0.000357593930052,-0.367300674315,-0.00115586856248,0.930101473358,0.0,0.0,0.0,0.0,0.0,0.0,0.0,0.0,0.0,-0.00140058492535,-0.0158359589218,0.00146606115866,0.0,0.0,0.0,0.0,0.0,0.0,0.0,0.0,0.0,6.02448139977,-0.00751723023103,7.50860790644,0.0,0.0,0.0,0.0,0.0,0.0,0.0,0.0,0.0
25136000000,326,25136000000,imu_link,-0.000361064226191,-0.367329705706,-0.00115407669869,0.93009000911,0.0,0.0,0.0,0.0,0.0,0.0,0.0,0.0,0.0,-0.00127005892379,-0.0156088089313,0.00145881232666,0.0,0.0,0.0,0.0,0.0,0.0,0.0,0.0,0.0,6.02695873637,-0.00758626659659,7.50706758032,0.0,0.0,0.0,0.0,0.0,0.0,0.0,0.0,0.0
25140000000,327,25140000000,imu_link,-0.000363928841489,-0.367358321316,-0.00115217881334,0.930078708389,0.0,0.0,0.0,0.0,0.0,0.0,0.0,0.0,0.0,-0.000969128040507,-0.0153850875177,0.00139704426104,0.0,0.0,0.0,0.0,0.0,0.0,0.0,0.0,0.0,6.02805094389,-0.00759718971588,7.50156117305,0.0,0.0,0.0,0.0,0.0,0.0,0.0,0.0,0.0
25144000000,328,25144000000,imu_link,-0.000366007701094,-0.367386430095,-0.00115013980363,0.930067607327,0.0,0.0,0.0,0.0,0.0,0.0,0.0,0.0,0.0,-0.000578054765249,-0.0151122905638,0.00131855294387,0.0,0.0,0.0,0.0,0.0,0.0,0.0,0.0,0.0,6.02909580754,-0.00750208217466,7.49539194025,0.0,0.0,0.0,0.0,0.0,0.0,0.0,0.0,0.0
25148000000,329,25148000000,imu_link,-0.0003674406211,-0.367413940102,-0.00114794131617,0.930056742267,0.0,0.0,0.0,0.0,0.0,0.0,0.0,0.0,0.0,-0.000248677181747,-0.0147901472686,0.0012743060641,0.0,0.0,0.0,0.0,0.0,0.0,0.0,0.0,0.0,6.03057950564,-0.00733601089012,7.49050998485,0.0,0.0,0.0,0.0,0.0,0.0,0.0,0.0,0.0
25152000000,330,25152000000,imu_link,-0.000368611476442,-0.367440813303,-0.00114560259212,0.930046128124,0.0,0.0,0.0,0.0,0.0,0.0,0.0,0.0,0.0,-0.00010136664815,-0.0144477949208,0.0012916379635,0.0,0.0,0.0,0.0,0.0,0.0,0.0,0.0,0.0,6.03300169901,-0.00715666485774,7.48842705495,0.0,0.0,0.0,0.0,0.0,0.0,0.0,0.0,0.0
25156000000,331,25156000000,imu_link,-0.000369926839509,-0.36746716116,-0.0011431826441,0.930035720688,0.0,0.0,0.0,0.0,0.0,0.0,0.0,0.0,0.0,-0.000153906393371,-0.0141656190707,0.00135617322563,0.0,0.0,0.0,0.0,0.0,0.0,0.0,0.0,0.0,6.03451158794,-0.0070338314986,7.48526915165,0.0,0.0,0.0,0.0,0.0,0.0,0.0,0.0,0.0
25160000000,332,25160000000,imu_link,-0.000371644857315,-0.36749319256,-0.00114076251842,0.930025437267,0.0,0.0,0.0,0.0,0.0,0.0,0.0,0.0,0.0,-0.000341273341153,-0.0139959051703,0.00143036646216,0.0,0.0,0.0,0.0,0.0,0.0,0.0,0.0,0.0,6.03648982886,-0.00698261226347,7.48319176669,0.0,0.0,0.0,0.0,0.0,0.0,0.0,0.0,0.0
25164000000,333,25164000000,imu_link,-0.000373826634854,-0.367519096165,-0.00113837137344,0.930015203273,0.0,0.0,0.0,0.0,0.0,0.0,0.0,0.0,0.0,-0.000562316329454,-0.0139276564361,0.0015021562721,0.0,0.0,0.0,0.0,0.0,0.0,0.0,0.0,0.0,6.03905255777,-0.00699390769014,7.48212778463,0.0,0.0,0.0,0.0,0.0,0.0,0.0,0.0,0.0
25168000000,334,25168000000,imu_link,-0.000376448344375,-0.36754490552,-0.00113600070246,0.930005005479,0.0,0.0,0.0,0.0,0.0,0.0,0.0,0.0,0.0,-0.000770697216407,-0.0138774232922,0.00157351563546,0.0,0.0,0.0,0.0,0.0,0.0,0.0,0.0,0.0,6.04091259347,-0.00702200927723,7.47834339692,0.0,0.0,0.0,0.0,0.0,0.0,0.0,0.0,0.0
25172000000,335,25172000000,imu_link,-0.00037932349868,-0.367570589103,-0.00113363347049,0.929994856446,0.0,0.0,0.0,0.0,0.0,0.0,0.0,0.0,0.0,-0.000889243932149,-0.0138101217877,0.00161854402405,0.0,0.0,0.0,0.0,0.0,0.0,0.0,0.0,0.0,6.04354078798,-0.00707695960005,7.47588066826,0.0,0.0,0.0,0.0,0.0,0.0,0.0,0.0,0.0
25176000000,336,25176000000,imu_link,-0.000382154068432,-0.367596154908,-0.00113126606204,0.929984753151,0.0,0.0,0.0,0.0,0.0,0.0,0.0,0.0,0.0,-0.000868537879164,-0.0137469239447,0.001610480364,0.0,0.0,0.0,0.0,0.0,0.0,0.0,0.0,0.0,6.04523820672,-0.00712407735596,7.47170131347,0.0,0.0,0.0,0.0,0.0,0.0,0.0,0.0,0.0
25180000000,337,25180000000,imu_link,-0.000384500286092,-0.367621809456,-0.00112883824813,0.929974614221,0.0,0.0,0.0,0.0,0.0,0.0,0.0,0.0,0.0,-0.000632172052766,-0.0137944763982,0.00154950834851,0.0,0.0,0.0,0.0,0.0,0.0,0.0,0.0,0.0,6.0475428625,-0.00719978932533,7.47024259516,0.0,0.0,0.0,0.0,0.0,0.0,0.0,0.0,0.0
25184000000,338,25184000000,imu_link,-0.000385792890571,-0.367647773498,-0.00112625897642,0.929964352729,0.0,0.0,0.0,0.0,0.0,0.0,0.0,0.0,0.0,-0.000114264581682,-0.0139603491321,0.00142614003162,0.0,0.0,0.0,0.0,0.0,0.0,0.0,0.0,0.0,6.05101141163,-0.00721494298353,7.47204133623,0.0,0.0,0.0,0.0,0.0,0.0,0.0,0.0,0.0
25188000000,339,25188000000,imu_link,-0.000385758580022,-0.36767428581,-0.00112347950282,0.929953874414,0.0,0.0,0.0,0.0,0.0,0.0,0.0,0.0,0.0,0.000539796069844,-0.0142544341343,0.00127508380791,0.0,0.0,0.0,0.0,0.0,0.0,0.0,0.0,0.0,6.05285161564,-0.00706446228334,7.47001132611,0.0,0.0,0.0,0.0,0.0,0.0,0.0,0.0,0.0
25192000000,340,25192000000,imu_link,-0.000384525809764,-0.367701514556,-0.0011205309854,0.929943112638,0.0,0.0,0.0,0.0,0.0,0.0,0.0,0.0,0.0,0.00112847650289,-0.0146390295108,0.00113306645882,0.0,0.0,0.0,0.0,0.0,0.0,0.0,0.0,0.0,6.05512294711,-0.00681865534737,7.46856997126,0.0,0.0,0.0,0.0,0.0,0.0,0.0,0.0,0.0
25196000000,341,25196000000,imu_link,-0.000382469356819,-0.367729625645,-0.00111744975549,0.929932001517,0.0,0.0,0.0,0.0,0.0,0.0,0.0,0.0,0.0,0.0015362919968,-0.0151130850645,0.00104297393939,0.0,0.0,0.0,0.0,0.0,0.0,0.0,0.0,0.0,6.0569261432,-0.0065618280257,7.46617830394,0.0,0.0,0.0,0.0,0.0,0.0,0.0,0.0,0.0
25200000000,342,25200000000,imu_link,-0.000379897816579,-0.367758684526,-0.00111426480487,0.929920514908,0.0,0.0,0.0,0.0,0.0,0.0,0.0,0.0,0.0,0.00179531841332,-0.0156225470376,0.000996103068466,0.0,0.0,0.0,0.0,0.0,0.0,0.0,0.0,0.0,6.0592338848,-0.00637996939506,7.46427660641,0.0,0.0,0.0,0.0,0.0,0.0,0.0,0.0,0.0
25204000000,343,25204000000,imu_link,-0.000377086748035,-0.367788640089,-0.00111101351966,0.929908672761,0.0,0.0,0.0,0.0,0.0,0.0,0.0,0.0,0.0,0.00191931915173,-0.0161047239523,0.000982533301731,0.0,0.0,0.0,0.0,0.0,0.0,0.0,0.0,0.0,6.06152466924,-0.00627148858623,7.46079247042,0.0,0.0,0.0,0.0,0.0,0.0,0.0,0.0,0.0
25208000000,344,25208000000,imu_link,-0.000374200965491,-0.367819539563,-0.00110770536941,0.929896456213,0.0,0.0,0.0,0.0,0.0,0.0,0.0,0.0,0.0,0.00196496866657,-0.0166124187023,0.000994847518854,0.0,0.0,0.0,0.0,0.0,0.0,0.0,0.0,0.0,6.06390395177,-0.00622238950836,7.45838567668,0.0,0.0,0.0,0.0,0.0,0.0,0.0,0.0,0.0
25212000000,345,25212000000,imu_link,-0.000371432262065,-0.367851274956,-0.0011043302608,0.929883907811,0.0,0.0,0.0,0.0,0.0,0.0,0.0,0.0,0.0,0.00192324812244,-0.0170621865979,0.00104717148825,0.0,0.0,0.0,0.0,0.0,0.0,0.0,0.0,0.0,6.06710711965,-0.00619875304066,7.45696245163,0.0,0.0,0.0,0.0,0.0,0.0,0.0,0.0,0.0
25216000000,346,25216000000,imu_link,-0.000368829822842,-0.367883819833,-0.00110088070285,0.929871037903,0.0,0.0,0.0,0.0,0.0,0.0,0.0,0.0,0.0,0.00186002532058,-0.0174977886601,0.00111203849813,0.0,0.0,0.0,0.0,0.0,0.0,0.0,0.0,0.0,6.06889503712,-0.00623025122682,7.45292377213,0.0,0.0,0.0,0.0,0.0,0.0,0.0,0.0,0.0
25220000000,347,25220000000,imu_link,-0.00036629782801,-0.367917105778,-0.0010973480941,0.92985787351,0.0,0.0,0.0,0.0,0.0,0.0,0.0,0.0,0.0,0.00184290334834,-0.0178965594171,0.00116331067702,0.0,0.0,0.0,0.0,0.0,0.0,0.0,0.0,0.0,6.07132151579,-0.00628484851234,7.45003377507,0.0,0.0,0.0,0.0,0.0,0.0,0.0,0.0,0.0
25224000000,348,25224000000,imu_link,-0.000363755942703,-0.367951089862,-0.00109372502391,0.929844431567,0.0,0.0,0.0,0.0,0.0,0.0,0.0,0.0,0.0,0.00186447509144,-0.0182722132843,0.0012032692364,0.0,0.0,0.0,0.0,0.0,0.0,0.0,0.0,0.0,6.0738909917,-0.00631725079387,7.44746310585,0.0,0.0,0.0,0.0,0.0,0.0,0.0,0.0,0.0
25228000000,349,25228000000,imu_link,-0.00036118230908,-0.367985551651,-0.00109001787213,0.929830799224,0.0,0.0,0.0,0.0,0.0,0.0,0.0,0.0,0.0,0.00189493115394,-0.0185293356913,0.00123632871403,0.0,0.0,0.0,0.0,0.0,0.0,0.0,0.0,0.0,6.07684777632,-0.00634960053259,7.44460232248,0.0,0.0,0.0,0.0,0.0,0.0,0.0,0.0,0.0
25232000000,350,25232000000,imu_link,-0.000358561913548,-0.368020180723,-0.00108625138157,0.929817099258,0.0,0.0,0.0,0.0,0.0,0.0,0.0,0.0,0.0,0.001927668353,-0.0186195356793,0.00125524531273,0.0,0.0,0.0,0.0,0.0,0.0,0.0,0.0,0.0,6.07963796665,-0.00640884888082,7.44092415268,0.0,0.0,0.0,0.0,0.0,0.0,0.0,0.0,0.0
25236000000,351,25236000000,imu_link,-0.000355875204126,-0.36805460807,-0.00108244295594,0.929803477703,0.0,0.0,0.0,0.0,0.0,0.0,0.0,0.0,0.0,0.00196611921699,-0.0185112949667,0.00126261760862,0.0,0.0,0.0,0.0,0.0,0.0,0.0,0.0,0.0,6.08135781977,-0.00643683478166,7.43487006882,0.0,0.0,0.0,0.0,0.0,0.0,0.0,0.0,0.0
25240000000,352,25240000000,imu_link,-0.000353304572056,-0.368088387495,-0.00107863247175,0.929790111111,0.0,0.0,0.0,0.0,0.0,0.0,0.0,0.0,0.0,0.00191222818468,-0.0181632185311,0.00128518932033,0.0,0.0,0.0,0.0,0.0,0.0,0.0,0.0,0.0,6.0834301161,-0.00642047611864,7.4294264074,0.0,0.0,0.0,0.0,0.0,0.0,0.0,0.0,0.0
25244000000,353,25244000000,imu_link,-0.000351088383062,-0.368121278921,-0.00107482915712,0.929777094515,0.0,0.0,0.0,0.0,0.0,0.0,0.0,0.0,0.0,0.00174571274986,-0.0176861665726,0.00134743504394,0.0,0.0,0.0,0.0,0.0,0.0,0.0,0.0,0.0,6.08519255884,-0.00641978382377,7.42539215383,0.0,0.0,0.0,0.0,0.0,0.0,0.0,0.0,0.0
25248000000,354,25248000000,imu_link,-0.000349408240757,-0.368153251215,-0.00107104272249,0.929764440276,0.0,0.0,0.0,0.0,0.0,0.0,0.0,0.0,0.0,0.00149297349281,-0.0171924625989,0.00143860890164,0.0,0.0,0.0,0.0,0.0,0.0,0.0,0.0,0.0,6.087173849,-0.00646729472131,7.42317433444,0.0,0.0,0.0,0.0,0.0,0.0,0.0,0.0,0.0
25252000000,355,25252000000,imu_link,-0.000348438960163,-0.368184260421,-0.00106729567394,0.929752165821,0.0,0.0,0.0,0.0,0.0,0.0,0.0,0.0,0.0,0.00115480706311,-0.0166752042897,0.00155152368126,0.0,0.0,0.0,0.0,0.0,0.0,0.0,0.0,0.0,6.08960939364,-0.00653773671866,7.42091288206,0.0,0.0,0.0,0.0,0.0,0.0,0.0,0.0,0.0
25256000000,356,25256000000,imu_link,-0.00034826127773,-0.368214259726,-0.00106358683212,0.929740289775,0.0,0.0,0.0,0.0,0.0,0.0,0.0,0.0,0.0,0.000779308930236,-0.0161327970704,0.0016798778303,0.0,0.0,0.0,0.0,0.0,0.0,0.0,0.0,0.0,6.09109908208,-0.00662961378503,7.41667958935,0.0,0.0,0.0,0.0,0.0,0.0,0.0,0.0,0.0
25260000000,357,25260000000,imu_link,-0.000348874253641,-0.368243086181,-0.00105989294388,0.92972887682,0.0,0.0,0.0,0.0,0.0,0.0,0.0,0.0,0.0,0.000408459337451,-0.0155027342675,0.00181894269828,0.0,0.0,0.0,0.0,0.0,0.0,0.0,0.0,0.0,6.09295388834,-0.00674703259254,7.4124413077,0.0,0.0,0.0,0.0,0.0,0.0,0.0,0.0,0.0
25264000000,358,25264000000,imu_link,-0.000350122977466,-0.368270600663,-0.00105618890611,0.929717982275,0.0,0.0,0.0,0.0,0.0,0.0,0.0,0.0,0.0,0.000114186639208,-0.0147977325952,0.00194121932137,0.0,0.0,0.0,0.0,0.0,0.0,0.0,0.0,0.0,6.09487450203,-0.00689437764198,7.40867489973,0.0,0.0,0.0,0.0,0.0,0.0,0.0,0.0,0.0
25268000000,359,25268000000,imu_link,-0.000351793029852,-0.368296967643,-0.00105244219254,0.929707541236,0.0,0.0,0.0,0.0,0.0,0.0,0.0,0.0,0.0,-7.43402076392e-05,-0.0141810291923,0.00203907939046,0.0,0.0,0.0,0.0,0.0,0.0,0.0,0.0,0.0,6.09660917614,-0.0070317387608,7.40657081173,0.0,0.0,0.0,0.0,0.0,0.0,0.0,0.0,0.0
25272000000,360,25272000000,imu_link,-0.000353793454176,-0.368322408143,-0.00104866092791,0.929697466276,0.0,0.0,0.0,0.0,0.0,0.0,0.0,0.0,0.0,-0.000221975463537,-0.0136831188166,0.00211633367726,0.0,0.0,0.0,0.0,0.0,0.0,0.0,0.0,0.0,6.0988181037,-0.00715870059341,7.40602029208,0.0,0.0,0.0,0.0,0.0,0.0,0.0,0.0,0.0
25276000000,361,25276000000,imu_link,-0.000356338957174,-0.368347144223,-0.00104491368115,0.929687669339,0.0,0.0,0.0,0.0,0.0,0.0,0.0,0.0,0.0,-0.000481939534114,-0.0133047489585,0.00220117324269,0.0,0.0,0.0,0.0,0.0,0.0,0.0,0.0,0.0,6.10032970592,-0.00720191451273,7.4044232906,0.0,0.0,0.0,0.0,0.0,0.0,0.0,0.0,0.0
25280000000,362,25280000000,imu_link,-0.000359606236245,-0.368371481923,-0.0010412819749,0.929678029062,0.0,0.0,0.0,0.0,0.0,0.0,0.0,0.0,0.0,-0.000838912425759,-0.0130910676096,0.00228054985399,0.0,0.0,0.0,0.0,0.0,0.0,0.0,0.0,0.0,6.1021543311,-0.00724483337693,7.40408126998,0.0,0.0,0.0,0.0,0.0,0.0,0.0,0.0,0.0
25284000000,363,25284000000,imu_link,-0.000363434673641,-0.368395857592,-0.00103776560731,0.929668372629,0.0,0.0,0.0,0.0,0.0,0.0,0.0,0.0,0.0,-0.00112098758073,-0.0131119649097,0.00233027806811,0.0,0.0,0.0,0.0,0.0,0.0,0.0,0.0,0.0,6.10507820926,-0.00736023417151,7.40719404357,0.0,0.0,0.0,0.0,0.0,0.0,0.0,0.0,0.0
25288000000,364,25288000000,imu_link,-0.000367385314576,-0.368420770796,-0.00103431294411,0.929658502285,0.0,0.0,0.0,0.0,0.0,0.0,0.0,0.0,0.0,-0.00118928613428,-0.0134012834845,0.00232296705341,0.0,0.0,0.0,0.0,0.0,0.0,0.0,0.0,0.0,6.10801897299,-0.00748412765024,7.4107675764,0.0,0.0,0.0,0.0,0.0,0.0,0.0,0.0,0.0
25292000000,365,25292000000,imu_link,-0.000371151462631,-0.368446586266,-0.00103089048932,0.929648273586,0.0,0.0,0.0,0.0,0.0,0.0,0.0,0.0,0.0,-0.00110869236484,-0.0138865941581,0.00227458873346,0.0,0.0,0.0,0.0,0.0,0.0,0.0,0.0,0.0,6.11057788872,-0.00752187565883,7.41244278008,0.0,0.0,0.0,0.0,0.0,0.0,0.0,0.0,0.0
25296000000,366,25296000000,imu_link,-0.000374714538922,-0.368473219405,-0.00102750039614,0.929637719982,0.0,0.0,0.0,0.0,0.0,0.0,0.0,0.0,0.0,-0.00101990029925,-0.0143264111112,0.00222181651666,0.0,0.0,0.0,0.0,0.0,0.0,0.0,0.0,0.0,6.11201979734,-0.00747042537326,7.40740930718,0.0,0.0,0.0,0.0,0.0,0.0,0.0,0.0,0.0
25300000000,367,25300000000,imu_link,-0.000378443334549,-0.368500472649,-0.00102417419469,0.929626919525,0.0,0.0,0.0,0.0,0.0,0.0,0.0,0.0,0.0,-0.00110842863878,-0.0146602006099,0.00222240700165,0.0,0.0,0.0,0.0,0.0,0.0,0.0,0.0,0.0,6.114203792,-0.00736350589195,7.40350231963,0.0,0.0,0.0,0.0,0.0,0.0,0.0,0.0,0.0
25304000000,368,25304000000,imu_link,-0.000382812368857,-0.368528162641,-0.0010209408618,0.929615944611,0.0,0.0,0.0,0.0,0.0,0.0,0.0,0.0,0.0,-0.00142294060842,-0.0148956603913,0.00229703259391,0.0,0.0,0.0,0.0,0.0,0.0,0.0,0.0,0.0,6.11675448422,-0.00729777513934,7.40065292178,0.0,0.0,0.0,0.0,0.0,0.0,0.0,0.0,0.0
25308000000,369,25308000000,imu_link,-0.000388180873186,-0.368556129528,-0.00101781869194,0.929604858393,0.0,0.0,0.0,0.0,0.0,0.0,0.0,0.0,0.0,-0.00190786555225,-0.0150453620346,0.00242941974086,0.0,0.0,0.0,0.0,0.0,0.0,0.0,0.0,0.0,6.11911089587,-0.0073195993064,7.39773697768,0.0,0.0,0.0,0.0,0.0,0.0,0.0,0.0,0.0
25312000000,370,25312000000,imu_link,-0.000394548189647,-0.368584332871,-0.00101480971242,0.929593676858,0.0,0.0,0.0,0.0,0.0,0.0,0.0,0.0,0.0,-0.00239287252185,-0.0151733182444,0.0025607733586,0.0,0.0,0.0,0.0,0.0,0.0,0.0,0.0,0.0,6.12151776132,-0.00745079187508,7.39563788765,0.0,0.0,0.0,0.0,0.0,0.0,0.0,0.0,0.0
25316000000,371,25316000000,imu_link,-0.000401458367375,-0.368612813389,-0.0010118551921,0.929582384077,0.0,0.0,0.0,0.0,0.0,0.0,0.0,0.0,0.0,-0.00265511043251,-0.0153229151664,0.00263539484622,0.0,0.0,0.0,0.0,0.0,0.0,0.0,0.0,0.0,6.12394495916,-0.00765335248155,7.39377675496,0.0,0.0,0.0,0.0,0.0,0.0,0.0,0.0,0.0
25320000000,372,25320000000,imu_link,-0.000408296638128,-0.368641411436,-0.00100892354227,0.929571043622,0.0,0.0,0.0,0.0,0.0,0.0,0.0,0.0,0.0,-0.00262585398899,-0.015386286952,0.00261146422037,0.0,0.0,0.0,0.0,0.0,0.0,0.0,0.0,0.0,6.12689351436,-0.00779232168723,7.39210832347,0.0,0.0,0.0,0.0,0.0,0.0,0.0,0.0,0.0
25324000000,373,25324000000,imu_link,-0.000414503202572,-0.368669916226,-0.00100597466509,0.929559739378,0.0,0.0,0.0,0.0,0.0,0.0,0.0,0.0,0.0,-0.00232911033827,-0.0153359526272,0.00250307199361,0.0,0.0,0.0,0.0,0.0,0.0,0.0,0.0,0.0,6.12898255018,-0.00782055333604,7.38831347716,0.0,0.0,0.0,0.0,0.0,0.0,0.0,0.0,0.0
25328000000,374,25328000000,imu_link,-0.00041982224219,-0.368698022109,-0.00100298962526,0.929548592734,0.0,0.0,0.0,0.0,0.0,0.0,0.0,0.0,0.0,-0.0019101086042,-0.015121059221,0.00235643976299,0.0,0.0,0.0,0.0,0.0,0.0,0.0,0.0,0.0,6.13090327106,-0.00772929136567,7.38356257587,0.0,0.0,0.0,0.0,0.0,0.0,0.0,0.0,0.0
25332000000,375,25332000000,imu_link,-0.000424299579594,-0.36872553433,-0.000999986772795,0.929537680962,0.0,0.0,0.0,0.0,0.0,0.0,0.0,0.0,0.0,-0.0015158717266,-0.0148014231685,0.00220979404563,0.0,0.0,0.0,0.0,0.0,0.0,0.0,0.0,0.0,6.1330023005,-0.00756787722203,7.38035622674,0.0,0.0,0.0,0.0,0.0,0.0,0.0,0.0,0.0
25336000000,376,25336000000,imu_link,-0.000428046554132,-0.368752527222,-0.000997010209506,0.929526974549,0.0,0.0,0.0,0.0,0.0,0.0,0.0,0.0,0.0,-0.00118148466349,-0.0145218240021,0.00206313679138,0.0,0.0,0.0,0.0,0.0,0.0,0.0,0.0,0.0,6.13413221511,-0.00741083722276,7.37744642119,0.0,0.0,0.0,0.0,0.0,0.0,0.0,0.0,0.0
25340000000,377,25340000000,imu_link,-0.00043117770383,-0.368779276838,-0.000994105797238,0.92951636393,0.0,0.0,0.0,0.0,0.0,0.0,0.0,0.0,0.0,-0.000908675470391,-0.0143907733789,0.00191615996874,0.0,0.0,0.0,0.0,0.0,0.0,0.0,0.0,0.0,6.13605568443,-0.00727617304529,7.37751371531,0.0,0.0,0.0,0.0,0.0,0.0,0.0,0.0,0.0
25344000000,378,25344000000,imu_link,-0.000433779694196,-0.368805970152,-0.000991308562357,0.929505774873,0.0,0.0,0.0,0.0,0.0,0.0,0.0,0.0,0.0,-0.000682530077722,-0.0143603447937,0.00176879975921,0.0,0.0,0.0,0.0,0.0,0.0,0.0,0.0,0.0,6.13820448146,-0.00715961025644,7.37689655666,0.0,0.0,0.0,0.0,0.0,0.0,0.0,0.0,0.0
25348000000,379,25348000000,imu_link,-0.000435776963612,-0.368832505124,-0.000988593340718,0.929495247941,0.0,0.0,0.0,0.0,0.0,0.0,0.0,0.0,0.0,-0.000416672764966,-0.0142749816323,0.00161923665467,0.0,0.0,0.0,0.0,0.0,0.0,0.0,0.0,0.0,6.14004978667,-0.00708037270251,7.37354581335,0.0,0.0,0.0,0.0,0.0,0.0,0.0,0.0,0.0
25352000000,380,25352000000,imu_link,-0.000436914407785,-0.368858542108,-0.000985923984968,0.929484918099,0.0,0.0,0.0,0.0,0.0,0.0,0.0,0.0,0.0,-2.57326516635e-05,-0.0140067611942,0.00143956076926,0.0,0.0,0.0,0.0,0.0,0.0,0.0,0.0,0.0,6.14278155482,-0.00701415920014,7.37022198015,0.0,0.0,0.0,0.0,0.0,0.0,0.0,0.0,0.0
25356000000,381,25356000000,imu_link,-0.000437150098226,-0.368883837177,-0.000983293793164,0.929474882233,0.0,0.0,0.0,0.0,0.0,0.0,0.0,0.0,0.0,0.000385826102771,-0.0136072907656,0.00125535683278,0.0,0.0,0.0,0.0,0.0,0.0,0.0,0.0,0.0,6.14347066479,-0.00687501394424,7.36329222166,0.0,0.0,0.0,0.0,0.0,0.0,0.0,0.0,0.0
