%time,field.header.seq,field.header.stamp,field.header.frame_id,field.orientation.x,field.orientation.y,field.orientation.z,field.orientation.w,field.orientation_covariance0,field.orientation_covariance1,field.orientation_covariance2,field.orientation_covariance3,field.orientation_covariance4,field.orientation_covariance5,field.orientation_covariance6,field.orientation_covariance7,field.orientation_covariance8,field.angular_velocity.x,field.angular_velocity.y,field.angular_velocity.z,field.angular_velocity_covariance0,field.angular_velocity_covariance1,field.angular_velocity_covariance2,field.angular_velocity_covariance3,field.angular_velocity_covariance4,field.angular_velocity_covariance5,field.angular_velocity_covariance6,field.angular_velocity_covariance7,field.angular_velocity_covariance8,field.linear_acceleration.x,field.linear_acceleration.y,field.linear_acceleration.z,field.linear_acceleration_covariance0,field.linear_acceleration_covariance1,field.linear_acceleration_covariance2,field.linear_acceleration_covariance3,field.linear_acceleration_covariance4,field.linear_acceleration_covariance5,field.linear_acceleration_covariance6,field.linear_acceleration_covariance7,field.linear_acceleration_covariance8
81968000000,0,81968000000,imu_link,-0.00142409627158,-0.371094966808,0.00856824174405,0.92855429717,0.0,0.0,0.0,0.0,0.0,0.0,0.0,0.0,0.0,-0.00242409703029,-0.0160298093836,-0.00198516360255,0.0,0.0,0.0,0.0,0.0,0.0,0.0,0.0,0.0,6.02922984552,-0.0576542342104,7.56237786047,0.0,0.0,0.0,0.0,0.0,0.0,0.0,0.0,0.0
81972000000,1,81972000000,imu_link,-0.00142644540789,-0.371125118027,0.00856287494253,0.928542292626,0.0,0.0,0.0,0.0,0.0,0.0,0.0,0.0,0.0,-0.00222416610147,-0.0162120491205,-0.00202584718176,0.0,0.0,0.0,0.0,0.0,0.0,0.0,0.0,0.0,6.03137366289,-0.0577297277413,7.55750274539,0.0,0.0,0.0,0.0,0.0,0.0,0.0,0.0,0.0
81976000000,2,81976000000,imu_link,-0.00142792706428,-0.371155371864,0.0085576299508,0.928530246104,0.0,0.0,0.0,0.0,0.0,0.0,0.0,0.0,0.0,-0.00179928616917,-0.0162712830953,-0.00213015966486,0.0,0.0,0.0,0.0,0.0,0.0,0.0,0.0,0.0,6.03401713651,-0.0578251176424,7.55321967751,0.0,0.0,0.0,0.0,0.0,0.0,0.0,0.0,0.0
81980000000,3,81980000000,imu_link,-0.00142834501698,-0.371185396545,0.00855254515215,0.928518290177,0.0,0.0,0.0,0.0,0.0,0.0,0.0,0.0,0.0,-0.00127467217506,-0.0161527463937,-0.00225341130578,0.0,0.0,0.0,0.0,0.0,0.0,0.0,0.0,0.0,6.03688767244,-0.0577799592261,7.54793364931,0.0,0.0,0.0,0.0,0.0,0.0,0.0,0.0,0.0
81984000000,4,81984000000,imu_link,-0.00142787271864,-0.371215181316,0.00854762891231,0.928506428831,0.0,0.0,0.0,0.0,0.0,0.0,0.0,0.0,0.0,-0.000828988240157,-0.0160277401744,-0.00234061354225,0.0,0.0,0.0,0.0,0.0,0.0,0.0,0.0,0.0,6.03937768136,-0.0576853989957,7.54444923888,0.0,0.0,0.0,0.0,0.0,0.0,0.0,0.0,0.0
81988000000,5,81988000000,imu_link,-0.00142702851348,-0.371244928394,0.00854282307229,0.928494580978,0.0,0.0,0.0,0.0,0.0,0.0,0.0,0.0,0.0,-0.00063566753725,-0.0160094051102,-0.00235841955912,0.0,0.0,0.0,0.0,0.0,0.0,0.0,0.0,0.0,6.04270882877,-0.0576115522469,7.54447052688,0.0,0.0,0.0,0.0,0.0,0.0,0.0,0.0,0.0
81992000000,6,81992000000,imu_link,-0.00142610254168,-0.371274769906,0.00853806521263,0.928482693918,0.0,0.0,0.0,0.0,0.0,0.0,0.0,0.0,0.0,-0.0005892326972,-0.0160609067267,-0.00235122244709,0.0,0.0,0.0,0.0,0.0,0.0,0.0,0.0,0.0,6.0444720936,-0.0576338567154,7.54051398651,0.0,0.0,0.0,0.0,0.0,0.0,0.0,0.0,0.0
81996000000,7,81996000000,imu_link,-0.00142526470199,-0.371304688672,0.00853328722235,0.928470774876,0.0,0.0,0.0,0.0,0.0,0.0,0.0,0.0,0.0,-0.000634236876605,-0.0161023181001,-0.00234412585069,0.0,0.0,0.0,0.0,0.0,0.0,0.0,0.0,0.0,6.04646210993,-0.0577208826585,7.53609253946,0.0,0.0,0.0,0.0,0.0,0.0,0.0,0.0,0.0
82000000000,8,82000000000,imu_link,-0.00142432669473,-0.37133454233,0.00852850539601,0.928458880921,0.0,0.0,0.0,0.0,0.0,0.0,0.0,0.0,0.0,-0.000588152039771,-0.0160678595822,-0.00236456366328,0.0,0.0,0.0,0.0,0.0,0.0,0.0,0.0,0.0,6.04851770133,-0.0578965845993,7.53095754379,0.0,0.0,0.0,0.0,0.0,0.0,0.0,0.0,0.0
82004000000,9,82004000000,imu_link,-0.00142310140309,-0.371364139565,0.00852374576651,0.92844708863,0.0,0.0,0.0,0.0,0.0,0.0,0.0,0.0,0.0,-0.000449499093622,-0.0159311854613,-0.00240784945509,0.0,0.0,0.0,0.0,0.0,0.0,0.0,0.0,0.0,6.05097896449,-0.0579968477648,7.52636080849,0.0,0.0,0.0,0.0,0.0,0.0,0.0,0.0,0.0
82008000000,10,82008000000,imu_link,-0.00142149896753,-0.371393419131,0.00851900612299,0.928435422688,0.0,0.0,0.0,0.0,0.0,0.0,0.0,0.0,0.0,-0.000269265201357,-0.0157618769454,-0.0024689127976,0.0,0.0,0.0,0.0,0.0,0.0,0.0,0.0,0.0,6.05348814876,-0.0580071872303,7.52303310884,0.0,0.0,0.0,0.0,0.0,0.0,0.0,0.0,0.0
82012000000,11,82012000000,imu_link,-0.00141954297328,-0.371422374409,0.00851427427644,0.928423885851,0.0,0.0,0.0,0.0,0.0,0.0,0.0,0.0,0.0,-0.000102216057531,-0.0155888742156,-0.00253126743512,0.0,0.0,0.0,0.0,0.0,0.0,0.0,0.0,0.0,6.05516099862,-0.0579977581208,7.51831908228,0.0,0.0,0.0,0.0,0.0,0.0,0.0,0.0,0.0
82016000000,12,82016000000,imu_link,-0.00141722277112,-0.371450907533,0.00850957430164,0.928412517105,0.0,0.0,0.0,0.0,0.0,0.0,0.0,0.0,0.0,7.46890145111e-05,-0.0153632618481,-0.00258452561603,0.0,0.0,0.0,0.0,0.0,0.0,0.0,0.0,0.0,6.05721688299,-0.0580236322929,7.51387649578,0.0,0.0,0.0,0.0,0.0,0.0,0.0,0.0,0.0
82020000000,13,82020000000,imu_link,-0.00141431795157,-0.371478917834,0.00850498559185,0.928401356381,0.0,0.0,0.0,0.0,0.0,0.0,0.0,0.0,0.0,0.000369108728685,-0.0150844951414,-0.00264196864392,0.0,0.0,0.0,0.0,0.0,0.0,0.0,0.0,0.0,6.05989630498,-0.058085137919,7.51078683658,0.0,0.0,0.0,0.0,0.0,0.0,0.0,0.0,0.0
82024000000,14,82024000000,imu_link,-0.00141068764307,-0.371506411858,0.00850050318624,0.928390401369,0.0,0.0,0.0,0.0,0.0,0.0,0.0,0.0,0.0,0.000727966998899,-0.014809790967,-0.00272788379886,0.0,0.0,0.0,0.0,0.0,0.0,0.0,0.0,0.0,6.06260974541,-0.0580914207548,7.50840620019,0.0,0.0,0.0,0.0,0.0,0.0,0.0,0.0,0.0
82028000000,15,82028000000,imu_link,-0.00140635701006,-0.371533485734,0.0084960761046,0.928379614075,0.0,0.0,0.0,0.0,0.0,0.0,0.0,0.0,0.0,0.00106523491708,-0.0145866212441,-0.00283270669225,0.0,0.0,0.0,0.0,0.0,0.0,0.0,0.0,0.0,6.06590035516,-0.0581018586849,7.50796421312,0.0,0.0,0.0,0.0,0.0,0.0,0.0,0.0,0.0
82032000000,16,82032000000,imu_link,-0.00140140698271,-0.371560086419,0.00849163590134,0.928369016264,0.0,0.0,0.0,0.0,0.0,0.0,0.0,0.0,0.0,0.00135245726733,-0.0143343932508,-0.0029543326815,0.0,0.0,0.0,0.0,0.0,0.0,0.0,0.0,0.0,6.06813766601,-0.0581553489671,7.50433940187,0.0,0.0,0.0,0.0,0.0,0.0,0.0,0.0,0.0
82036000000,17,82036000000,imu_link,-0.00139592948258,-0.371585952584,0.00848715255382,0.92835871271,0.0,0.0,0.0,0.0,0.0,0.0,0.0,0.0,0.0,0.00159261144285,-0.0139409829401,-0.00307308817617,0.0,0.0,0.0,0.0,0.0,0.0,0.0,0.0,0.0,6.07048528835,-0.0582088430748,7.49941919883,0.0,0.0,0.0,0.0,0.0,0.0,0.0,0.0,0.0
82040000000,18,82040000000,imu_link,-0.00139003352537,-0.371610828117,0.00848262758841,0.928348805817,0.0,0.0,0.0,0.0,0.0,0.0,0.0,0.0,0.0,0.00178359895161,-0.0134092016672,-0.00317114456023,0.0,0.0,0.0,0.0,0.0,0.0,0.0,0.0,0.0,6.07222525221,-0.0582619498702,7.49339494464,0.0,0.0,0.0,0.0,0.0,0.0,0.0,0.0,0.0
82044000000,19,82044000000,imu_link,-0.00138390867425,-0.371634772535,0.00847806508739,0.928339271523,0.0,0.0,0.0,0.0,0.0,0.0,0.0,0.0,0.0,0.00188707943845,-0.0129087154818,-0.0032320305256,0.0,0.0,0.0,0.0,0.0,0.0,0.0,0.0,0.0,6.07558229384,-0.0583219746963,7.49325907586,0.0,0.0,0.0,0.0,0.0,0.0,0.0,0.0,0.0
82048000000,20,82048000000,imu_link,-0.0013777554492,-0.371657973279,0.00847344437585,0.928330034755,0.0,0.0,0.0,0.0,0.0,0.0,0.0,0.0,0.0,0.001892791558,-0.0125083195759,-0.00326506908523,0.0,0.0,0.0,0.0,0.0,0.0,0.0,0.0,0.0,6.07879369603,-0.0583597692755,7.49372465482,0.0,0.0,0.0,0.0,0.0,0.0,0.0,0.0,0.0
82052000000,21,82052000000,imu_link,-0.0013720710254,-0.371680725093,0.00846870465329,0.928320977387,0.0,0.0,0.0,0.0,0.0,0.0,0.0,0.0,0.0,0.00165510029475,-0.0122645358694,-0.00323364378503,0.0,0.0,0.0,0.0,0.0,0.0,0.0,0.0,0.0,6.08187843661,-0.0583749142924,7.49448984405,0.0,0.0,0.0,0.0,0.0,0.0,0.0,0.0,0.0
82056000000,22,82056000000,imu_link,-0.00136733608616,-0.371703397464,0.00846382791018,0.928311950975,0.0,0.0,0.0,0.0,0.0,0.0,0.0,0.0,0.0,0.00118928075842,-0.0122177944207,-0.00312086733251,0.0,0.0,0.0,0.0,0.0,0.0,0.0,0.0,0.0,6.08531552495,-0.0584467384664,7.49680685087,0.0,0.0,0.0,0.0,0.0,0.0,0.0,0.0,0.0
82060000000,23,82060000000,imu_link,-0.00136346750946,-0.371726421482,0.00845890964458,0.928302782166,0.0,0.0,0.0,0.0,0.0,0.0,0.0,0.0,0.0,0.000777850892714,-0.0124037831093,-0.00297876309324,0.0,0.0,0.0,0.0,0.0,0.0,0.0,0.0,0.0,6.08833423726,-0.0586861372898,7.49850034873,0.0,0.0,0.0,0.0,0.0,0.0,0.0,0.0,0.0
82064000000,24,82064000000,imu_link,-0.00136010787283,-0.371750112324,0.00845403315044,0.928293344486,0.0,0.0,0.0,0.0,0.0,0.0,0.0,0.0,0.0,0.000546385828196,-0.0127611398283,-0.00286409899542,0.0,0.0,0.0,0.0,0.0,0.0,0.0,0.0,0.0,6.09106045106,-0.0589551643981,7.49867133259,0.0,0.0,0.0,0.0,0.0,0.0,0.0,0.0,0.0
82068000000,25,82068000000,imu_link,-0.0013569775473,-0.371774698739,0.00844926041945,0.928283546115,0.0,0.0,0.0,0.0,0.0,0.0,0.0,0.0,0.0,0.000455207930394,-0.0132429619117,-0.00277239885268,0.0,0.0,0.0,0.0,0.0,0.0,0.0,0.0,0.0,6.09372835318,-0.0591574152474,7.49800728591,0.0,0.0,0.0,0.0,0.0,0.0,0.0,0.0,0.0
82072000000,26,82072000000,imu_link,-0.00135409760347,-0.37180023632,0.00844459139971,0.928273364677,0.0,0.0,0.0,0.0,0.0,0.0,0.0,0.0,0.0,0.000353995703225,-0.0137546571273,-0.00267674637877,0.0,0.0,0.0,0.0,0.0,0.0,0.0,0.0,0.0,6.09572052981,-0.0592670759553,7.49418187834,0.0,0.0,0.0,0.0,0.0,0.0,0.0,0.0,0.0
82076000000,27,82076000000,imu_link,-0.00135173618336,-0.371826453084,0.00843999647066,0.928262908909,0.0,0.0,0.0,0.0,0.0,0.0,0.0,0.0,0.0,0.000124049848331,-0.014118749949,-0.00254526608571,0.0,0.0,0.0,0.0,0.0,0.0,0.0,0.0,0.0,6.09788641736,-0.0593868881033,7.48868723847,0.0,0.0,0.0,0.0,0.0,0.0,0.0,0.0,0.0
82080000000,28,82080000000,imu_link,-0.00135010720991,-0.371852889388,0.00843545462941,0.92825236276,0.0,0.0,0.0,0.0,0.0,0.0,0.0,0.0,0.0,-0.000207019506203,-0.0142343937576,-0.00238422182268,0.0,0.0,0.0,0.0,0.0,0.0,0.0,0.0,0.0,6.1005867752,-0.0595908417436,7.48297765317,0.0,0.0,0.0,0.0,0.0,0.0,0.0,0.0,0.0
82084000000,29,82084000000,imu_link,-0.00134938008065,-0.371879158782,0.0084309493196,0.92824188094,0.0,0.0,0.0,0.0,0.0,0.0,0.0,0.0,0.0,-0.000618049443102,-0.0141411866732,-0.00219974858798,0.0,0.0,0.0,0.0,0.0,0.0,0.0,0.0,0.0,6.10311545861,-0.0597983081292,7.47773808918,0.0,0.0,0.0,0.0,0.0,0.0,0.0,0.0,0.0
82088000000,30,82088000000,imu_link,-0.001349487739,-0.371905177776,0.00842651025232,0.928231496746,0.0,0.0,0.0,0.0,0.0,0.0,0.0,0.0,0.0,-0.000992053317776,-0.0140033434789,-0.00201402658068,0.0,0.0,0.0,0.0,0.0,0.0,0.0,0.0,0.0,6.10479240012,-0.0600533553245,7.47293421522,0.0,0.0,0.0,0.0,0.0,0.0,0.0,0.0,0.0
82092000000,31,82092000000,imu_link,-0.00135006162234,-0.371931155825,0.00842223520922,0.928221125925,0.0,0.0,0.0,0.0,0.0,0.0,0.0,0.0,0.0,-0.00117775342506,-0.0139800003419,-0.00185123335189,0.0,0.0,0.0,0.0,0.0,0.0,0.0,0.0,0.0,6.10741215185,-0.0603463371289,7.47245528387,0.0,0.0,0.0,0.0,0.0,0.0,0.0,0.0,0.0
82096000000,32,82096000000,imu_link,-0.00135065193859,-0.371957274245,0.00841819606567,0.928210695829,0.0,0.0,0.0,0.0,0.0,0.0,0.0,0.0,0.0,-0.0011421420463,-0.0140562608868,-0.0017385390598,0.0,0.0,0.0,0.0,0.0,0.0,0.0,0.0,0.0,6.11048392764,-0.0605563659644,7.47272383966,0.0,0.0,0.0,0.0,0.0,0.0,0.0,0.0,0.0
82100000000,33,82100000000,imu_link,-0.00135131150152,-0.371983580605,0.00841435521785,0.928200187645,0.0,0.0,0.0,0.0,0.0,0.0,0.0,0.0,0.0,-0.00113824482329,-0.0141578500613,-0.00163342879402,0.0,0.0,0.0,0.0,0.0,0.0,0.0,0.0,0.0,6.11298686092,-0.0605714277075,7.47075925268,0.0,0.0,0.0,0.0,0.0,0.0,0.0,0.0,0.0
82104000000,34,82104000000,imu_link,-0.00135238976161,-0.372010110769,0.0084106112511,0.928189587393,0.0,0.0,0.0,0.0,0.0,0.0,0.0,0.0,0.0,-0.00131554692236,-0.0142771455262,-0.00151035591249,0.0,0.0,0.0,0.0,0.0,0.0,0.0,0.0,0.0,6.11625304733,-0.0605679639098,7.47034969208,0.0,0.0,0.0,0.0,0.0,0.0,0.0,0.0,0.0
82108000000,35,82108000000,imu_link,-0.00135402946559,-0.372036871023,0.00840688669667,0.928178893026,0.0,0.0,0.0,0.0,0.0,0.0,0.0,0.0,0.0,-0.00157353055286,-0.0143990867206,-0.0013966751579,0.0,0.0,0.0,0.0,0.0,0.0,0.0,0.0,0.0,6.11922552756,-0.0606577124201,7.46913283556,0.0,0.0,0.0,0.0,0.0,0.0,0.0,0.0,0.0
82112000000,36,82112000000,imu_link,-0.0013561700696,-0.372063808775,0.00840318170841,0.928168125686,0.0,0.0,0.0,0.0,0.0,0.0,0.0,0.0,0.0,-0.00180314881177,-0.0144929438507,-0.00129423149194,0.0,0.0,0.0,0.0,0.0,0.0,0.0,0.0,0.0,6.12161624975,-0.0608027807321,7.46627239103,0.0,0.0,0.0,0.0,0.0,0.0,0.0,0.0,0.0
82116000000,37,82116000000,imu_link,-0.00135876884234,-0.372090704107,0.00839949301805,0.928157373607,0.0,0.0,0.0,0.0,0.0,0.0,0.0,0.0,0.0,-0.00201255711102,-0.014468504337,-0.00120146925496,0.0,0.0,0.0,0.0,0.0,0.0,0.0,0.0,0.0,6.12401468352,-0.0609228336829,7.46179973685,0.0,0.0,0.0,0.0,0.0,0.0,0.0,0.0,0.0
82120000000,38,82120000000,imu_link,-0.00136185195585,-0.372117233263,0.00839582137415,0.928146766547,0.0,0.0,0.0,0.0,0.0,0.0,0.0,0.0,0.0,-0.00223252155297,-0.0142695674108,-0.00110380927216,0.0,0.0,0.0,0.0,0.0,0.0,0.0,0.0,0.0,6.12627132855,-0.061077954284,7.45646657506,0.0,0.0,0.0,0.0,0.0,0.0,0.0,0.0,0.0
82124000000,39,82124000000,imu_link,-0.00136540670129,-0.372143297624,0.00839212959364,0.928136344434,0.0,0.0,0.0,0.0,0.0,0.0,0.0,0.0,0.0,-0.00245306287009,-0.0140174642523,-0.00102586284848,0.0,0.0,0.0,0.0,0.0,0.0,0.0,0.0,0.0,6.12904677276,-0.061284696681,7.45429038752,0.0,0.0,0.0,0.0,0.0,0.0,0.0,0.0,0.0
82128000000,40,82128000000,imu_link,-0.00136948008074,-0.372169003308,0.00838835932674,0.928126065214,0.0,0.0,0.0,0.0,0.0,0.0,0.0,0.0,0.0,-0.00270674590564,-0.0138221947248,-0.000966137527014,0.0,0.0,0.0,0.0,0.0,0.0,0.0,0.0,0.0,6.13154629283,-0.0614568553338,7.45324928033,0.0,0.0,0.0,0.0,0.0,0.0,0.0,0.0,0.0
82132000000,41,82132000000,imu_link,-0.00137412977873,-0.372194467332,0.00838445851191,0.928115882371,0.0,0.0,0.0,0.0,0.0,0.0,0.0,0.0,0.0,-0.00299740742777,-0.01368960885,-0.000919714793937,0.0,0.0,0.0,0.0,0.0,0.0,0.0,0.0,0.0,6.13353961339,-0.0616218476918,7.45124206236,0.0,0.0,0.0,0.0,0.0,0.0,0.0,0.0,0.0
82136000000,42,82136000000,imu_link,-0.00137946418068,-0.372219666751,0.00838036520787,0.928105805521,0.0,0.0,0.0,0.0,0.0,0.0,0.0,0.0,0.0,-0.00334978933589,-0.0135440888603,-0.000881881964457,0.0,0.0,0.0,0.0,0.0,0.0,0.0,0.0,0.0,6.13583679566,-0.0617797878441,7.44871346868,0.0,0.0,0.0,0.0,0.0,0.0,0.0,0.0,0.0
82140000000,43,82140000000,imu_link,-0.00138560383765,-0.372244451242,0.00837604505263,0.928095895094,0.0,0.0,0.0,0.0,0.0,0.0,0.0,0.0,0.0,-0.00376383609518,-0.0133170368607,-0.000837698204255,0.0,0.0,0.0,0.0,0.0,0.0,0.0,0.0,0.0,6.13928755041,-0.0618833547423,7.44796728006,0.0,0.0,0.0,0.0,0.0,0.0,0.0,0.0,0.0
82144000000,44,82144000000,imu_link,-0.00139248116067,-0.372268925866,0.00837152755453,0.928086108805,0.0,0.0,0.0,0.0,0.0,0.0,0.0,0.0,0.0,-0.00414149467228,-0.0131469127609,-0.000792283922292,0.0,0.0,0.0,0.0,0.0,0.0,0.0,0.0,0.0,6.14283226189,-0.0619808371227,7.44920833341,0.0,0.0,0.0,0.0,0.0,0.0,0.0,0.0,0.0
82148000000,45,82148000000,imu_link,-0.00139979372972,-0.37229358227,0.00836686846816,0.928076249395,0.0,0.0,0.0,0.0,0.0,0.0,0.0,0.0,0.0,-0.00437063382162,-0.0132429567526,-0.000776793182409,0.0,0.0,0.0,0.0,0.0,0.0,0.0,0.0,0.0,6.14752881779,-0.0621363693432,7.45609618938,0.0,0.0,0.0,0.0,0.0,0.0,0.0,0.0,0.0
82152000000,46,82152000000,imu_link,-0.00140740572597,-0.372318835843,0.00836204705105,0.928066150581,0.0,0.0,0.0,0.0,0.0,0.0,0.0,0.0,0.0,-0.00454246258321,-0.0135632634389,-0.00079579985687,0.0,0.0,0.0,0.0,0.0,0.0,0.0,0.0,0.0,6.1506462275,-0.0622270295393,7.45881953278,0.0,0.0,0.0,0.0,0.0,0.0,0.0,0.0,0.0
82156000000,47,82156000000,imu_link,-0.0014153411996,-0.372344720368,0.00835705521454,0.928055798781,0.0,0.0,0.0,0.0,0.0,0.0,0.0,0.0,0.0,-0.00472710801155,-0.01390166962,-0.000814047989518,0.0,0.0,0.0,0.0,0.0,0.0,0.0,0.0,0.0,6.15266050918,-0.0622803360349,7.45619280336,0.0,0.0,0.0,0.0,0.0,0.0,0.0,0.0,0.0
82160000000,48,82160000000,imu_link,-0.00142390526422,-0.372371112156,0.00835190070493,0.928045243013,0.0,0.0,0.0,0.0,0.0,0.0,0.0,0.0,0.0,-0.00505134095869,-0.0141722856642,-0.000772013267833,0.0,0.0,0.0,0.0,0.0,0.0,0.0,0.0,0.0,6.15540456576,-0.0623042700334,7.4540285165,0.0,0.0,0.0,0.0,0.0,0.0,0.0,0.0,0.0
82164000000,49,82164000000,imu_link,-0.001433466422,-0.372397794232,0.008346567292,0.928034569852,0.0,0.0,0.0,0.0,0.0,0.0,0.0,0.0,0.0,-0.00554861976207,-0.0143245512494,-0.000669100554207,0.0,0.0,0.0,0.0,0.0,0.0,0.0,0.0,0.0,6.15787620226,-0.062340737544,7.45024517004,0.0,0.0,0.0,0.0,0.0,0.0,0.0,0.0,0.0
82168000000,50,82168000000,imu_link,-0.00144421475434,-0.372424746714,0.00834100732263,0.928023787344,0.0,0.0,0.0,0.0,0.0,0.0,0.0,0.0,0.0,-0.00614288069252,-0.0144652676183,-0.000552913537725,0.0,0.0,0.0,0.0,0.0,0.0,0.0,0.0,0.0,6.15960959254,-0.0624774145866,7.44635108887,0.0,0.0,0.0,0.0,0.0,0.0,0.0,0.0,0.0
82172000000,51,82172000000,imu_link,-0.00145590054551,-0.372451966086,0.00833523405468,0.928012897101,0.0,0.0,0.0,0.0,0.0,0.0,0.0,0.0,0.0,-0.00661878243446,-0.0146051057981,-0.000477063600371,0.0,0.0,0.0,0.0,0.0,0.0,0.0,0.0,0.0,6.16120620592,-0.0627257610406,7.4423620965,0.0,0.0,0.0,0.0,0.0,0.0,0.0,0.0,0.0
82176000000,52,82176000000,imu_link,-0.00146793238428,-0.372479065542,0.00832933418868,0.92800205447,0.0,0.0,0.0,0.0,0.0,0.0,0.0,0.0,0.0,-0.00680239217656,-0.0145390629413,-0.000471473986355,0.0,0.0,0.0,0.0,0.0,0.0,0.0,0.0,0.0,6.16414583205,-0.062996390456,7.43843609376,0.0,0.0,0.0,0.0,0.0,0.0,0.0,0.0,0.0
82180000000,53,82180000000,imu_link,-0.00147951709388,-0.372505487792,0.0083234304147,0.927991483312,0.0,0.0,0.0,0.0,0.0,0.0,0.0,0.0,0.0,-0.00659263201681,-0.0141761392395,-0.000557193974954,0.0,0.0,0.0,0.0,0.0,0.0,0.0,0.0,0.0,6.16780262784,-0.0632340901753,7.43486278744,0.0,0.0,0.0,0.0,0.0,0.0,0.0,0.0,0.0
82184000000,54,82184000000,imu_link,-0.00149028396746,-0.372530673905,0.00831759785878,0.927981408014,0.0,0.0,0.0,0.0,0.0,0.0,0.0,0.0,0.0,-0.00619438375259,-0.0135136775592,-0.000677622483029,0.0,0.0,0.0,0.0,0.0,0.0,0.0,0.0,0.0,6.17032955286,-0.0632039804992,7.42922174763,0.0,0.0,0.0,0.0,0.0,0.0,0.0,0.0,0.0
82188000000,55,82188000000,imu_link,-0.00150036530096,-0.372554380353,0.00831184470917,0.927971926203,0.0,0.0,0.0,0.0,0.0,0.0,0.0,0.0,0.0,-0.0058549130269,-0.0127194909489,-0.000769836680421,0.0,0.0,0.0,0.0,0.0,0.0,0.0,0.0,0.0,6.17196031542,-0.063006821492,7.42433182247,0.0,0.0,0.0,0.0,0.0,0.0,0.0,0.0,0.0
82192000000,56,82192000000,imu_link,-0.00150992308286,-0.372576610588,0.00830615666097,0.927963036514,0.0,0.0,0.0,0.0,0.0,0.0,0.0,0.0,0.0,-0.00559328629918,-0.0119264749525,-0.000838509648753,0.0,0.0,0.0,0.0,0.0,0.0,0.0,0.0,0.0,6.17265811096,-0.0627905281613,7.41951379945,0.0,0.0,0.0,0.0,0.0,0.0,0.0,0.0,0.0
82196000000,57,82196000000,imu_link,-0.00151910960644,-0.372597670957,0.00830048349391,0.927954616281,0.0,0.0,0.0,0.0,0.0,0.0,0.0,0.0,0.0,-0.00541304415202,-0.0112977774053,-0.000901832637741,0.0,0.0,0.0,0.0,0.0,0.0,0.0,0.0,0.0,6.17476794787,-0.0626485955882,7.41991936886,0.0,0.0,0.0,0.0,0.0,0.0,0.0,0.0,0.0
82200000000,58,82200000000,imu_link,-0.00152802648126,-0.372617940041,0.00829476888586,0.927946513924,0.0,0.0,0.0,0.0,0.0,0.0,0.0,0.0,0.0,-0.00529212818671,-0.0108725071838,-0.000972013803368,0.0,0.0,0.0,0.0,0.0,0.0,0.0,0.0,0.0,6.177258276,-0.0625633579568,7.42175360059,0.0,0.0,0.0,0.0,0.0,0.0,0.0,0.0,0.0
82204000000,59,82204000000,imu_link,-0.0015368997711,-0.372637640007,0.00828894220094,0.92793864055,0.0,0.0,0.0,0.0,0.0,0.0,0.0,0.0,0.0,-0.00529025154974,-0.0105658852089,-0.00103264961634,0.0,0.0,0.0,0.0,0.0,0.0,0.0,0.0,0.0,6.17868384673,-0.0624529185374,7.41989098014,0.0,0.0,0.0,0.0,0.0,0.0,0.0,0.0,0.0
82208000000,60,82208000000,imu_link,-0.00154600848678,-0.372656833088,0.00828297520099,0.927930970996,0.0,0.0,0.0,0.0,0.0,0.0,0.0,0.0,0.0,-0.00542336784937,-0.0102916465472,-0.00105434242617,0.0,0.0,0.0,0.0,0.0,0.0,0.0,0.0,0.0,6.17975940439,-0.0623491816921,7.41560589642,0.0,0.0,0.0,0.0,0.0,0.0,0.0,0.0,0.0
82212000000,61,82212000000,imu_link,-0.00155558522445,-0.372675462673,0.00827686100443,0.927923527694,0.0,0.0,0.0,0.0,0.0,0.0,0.0,0.0,0.0,-0.00566543220606,-0.00998599478886,-0.00103593222083,0.0,0.0,0.0,0.0,0.0,0.0,0.0,0.0,0.0,6.18053585959,-0.0623587815359,7.40989129108,0.0,0.0,0.0,0.0,0.0,0.0,0.0,0.0,0.0
82216000000,62,82216000000,imu_link,-0.00156586166377,-0.372693574651,0.00827061915107,0.927916291672,0.0,0.0,0.0,0.0,0.0,0.0,0.0,0.0,0.0,-0.00601155099666,-0.00970422622761,-0.000965234490117,0.0,0.0,0.0,0.0,0.0,0.0,0.0,0.0,0.0,6.18260724604,-0.0624410871383,7.40801695509,0.0,0.0,0.0,0.0,0.0,0.0,0.0,0.0,0.0
82220000000,63,82220000000,imu_link,-0.00157679369024,-0.372711414244,0.00826428380958,0.927909164211,0.0,0.0,0.0,0.0,0.0,0.0,0.0,0.0,0.0,-0.00633192581569,-0.00955483652219,-0.000886678189491,0.0,0.0,0.0,0.0,0.0,0.0,0.0,0.0,0.0,6.18520866663,-0.0626039964052,7.40873396552,0.0,0.0,0.0,0.0,0.0,0.0,0.0,0.0,0.0
82224000000,64,82224000000,imu_link,-0.00158834961297,-0.372729370851,0.00825785404749,0.92790198895,0.0,0.0,0.0,0.0,0.0,0.0,0.0,0.0,0.0,-0.00663950236186,-0.00961538077205,-0.000814113169295,0.0,0.0,0.0,0.0,0.0,0.0,0.0,0.0,0.0,6.18717459202,-0.062760950871,7.40899100667,0.0,0.0,0.0,0.0,0.0,0.0,0.0,0.0,0.0
82228000000,65,82228000000,imu_link,-0.00160042574788,-0.37274770493,0.0082513279232,0.927894661421,0.0,0.0,0.0,0.0,0.0,0.0,0.0,0.0,0.0,-0.00690049332044,-0.00981666255589,-0.000761542402084,0.0,0.0,0.0,0.0,0.0,0.0,0.0,0.0,0.0,6.18983302239,-0.0628958852102,7.40967175193,0.0,0.0,0.0,0.0,0.0,0.0,0.0,0.0,0.0
82232000000,66,82232000000,imu_link,-0.00161273983606,-0.37276655072,0.00824470089312,0.92788712818,0.0,0.0,0.0,0.0,0.0,0.0,0.0,0.0,0.0,-0.0070319730649,-0.0100913466725,-0.000763569881479,0.0,0.0,0.0,0.0,0.0,0.0,0.0,0.0,0.0,6.19240170671,-0.0629583894612,7.40940573761,0.0,0.0,0.0,0.0,0.0,0.0,0.0,0.0,0.0
82236000000,67,82236000000,imu_link,-0.00162503712825,-0.372785984519,0.00823797720897,0.927879358932,0.0,0.0,0.0,0.0,0.0,0.0,0.0,0.0,0.0,-0.00704480966007,-0.0104081282866,-0.00081104366601,0.0,0.0,0.0,0.0,0.0,0.0,0.0,0.0,0.0,6.19526435532,-0.062910704362,7.40905579922,0.0,0.0,0.0,0.0,0.0,0.0,0.0,0.0,0.0
82240000000,68,82240000000,imu_link,-0.0016373214199,-0.372806085948,0.00823115833974,0.927871321623,0.0,0.0,0.0,0.0,0.0,0.0,0.0,0.0,0.0,-0.00705948779135,-0.0107678092617,-0.000857065327015,0.0,0.0,0.0,0.0,0.0,0.0,0.0,0.0,0.0,6.19772181905,-0.0628363623161,7.40799816796,0.0,0.0,0.0,0.0,0.0,0.0,0.0,0.0,0.0
82244000000,69,82244000000,imu_link,-0.00164992683275,-0.372827052208,0.00822420504766,0.927862936718,0.0,0.0,0.0,0.0,0.0,0.0,0.0,0.0,0.0,-0.00723736804184,-0.0112323966402,-0.000858848352374,0.0,0.0,0.0,0.0,0.0,0.0,0.0,0.0,0.0,6.20049310982,-0.0627539594186,7.40858048603,0.0,0.0,0.0,0.0,0.0,0.0,0.0,0.0,0.0
82248000000,70,82248000000,imu_link,-0.00166337782309,-0.372849151542,0.00821705066153,0.927854095991,0.0,0.0,0.0,0.0,0.0,0.0,0.0,0.0,0.0,-0.00767218005109,-0.0118393935621,-0.000793575492694,0.0,0.0,0.0,0.0,0.0,0.0,0.0,0.0,0.0,6.20382492248,-0.0627213179877,7.41106526189,0.0,0.0,0.0,0.0,0.0,0.0,0.0,0.0,0.0
82252000000,71,82252000000,imu_link,-0.00167784676903,-0.372872470029,0.00820967581659,0.927844764574,0.0,0.0,0.0,0.0,0.0,0.0,0.0,0.0,0.0,-0.00819095314608,-0.012492102177,-0.000705078296409,0.0,0.0,0.0,0.0,0.0,0.0,0.0,0.0,0.0,6.20572466628,-0.0627990756631,7.40861555921,0.0,0.0,0.0,0.0,0.0,0.0,0.0,0.0,0.0
82256000000,72,82256000000,imu_link,-0.0016931020781,-0.37289676355,0.00820209737996,0.927835040693,0.0,0.0,0.0,0.0,0.0,0.0,0.0,0.0,0.0,-0.00859805308728,-0.0130142140015,-0.000652129436996,0.0,0.0,0.0,0.0,0.0,0.0,0.0,0.0,0.0,6.2078664465,-0.0629513863229,7.4041729218,0.0,0.0,0.0,0.0,0.0,0.0,0.0,0.0,0.0
82260000000,73,82260000000,imu_link,-0.00170877629554,-0.372921532057,0.00819433335973,0.927825125717,0.0,0.0,0.0,0.0,0.0,0.0,0.0,0.0,0.0,-0.00882910348565,-0.0132683221784,-0.000659738541054,0.0,0.0,0.0,0.0,0.0,0.0,0.0,0.0,0.0,6.21121688821,-0.0631232176397,7.40056943162,0.0,0.0,0.0,0.0,0.0,0.0,0.0,0.0,0.0
82264000000,74,82264000000,imu_link,-0.0017246882808,-0.37294627604,0.00818637030516,0.927815220817,0.0,0.0,0.0,0.0,0.0,0.0,0.0,0.0,0.0,-0.0089764099684,-0.0132539219309,-0.000707759031343,0.0,0.0,0.0,0.0,0.0,0.0,0.0,0.0,0.0,6.21374191758,-0.0632055354726,7.39556995285,0.0,0.0,0.0,0.0,0.0,0.0,0.0,0.0,0.0
82268000000,75,82268000000,imu_link,-0.00174086711002,-0.372970634793,0.00817813739351,0.927805471547,0.0,0.0,0.0,0.0,0.0,0.0,0.0,0.0,0.0,-0.00914881099452,-0.0130448654387,-0.000783493379542,0.0,0.0,0.0,0.0,0.0,0.0,0.0,0.0,0.0,6.2168136527,-0.0632243067427,7.39295713739,0.0,0.0,0.0,0.0,0.0,0.0,0.0,0.0,0.0
82272000000,76,82272000000,imu_link,-0.0017574953092,-0.372994621394,0.00816954935107,0.927795873069,0.0,0.0,0.0,0.0,0.0,0.0,0.0,0.0,0.0,-0.0094218486104,-0.0128419560435,-0.000864731288026,0.0,0.0,0.0,0.0,0.0,0.0,0.0,0.0,0.0,6.21779874989,-0.063216960198,7.3887389917,0.0,0.0,0.0,0.0,0.0,0.0,0.0,0.0,0.0
82276000000,77,82276000000,imu_link,-0.00177489984492,-0.373018465734,0.00816054510604,0.927786332867,0.0,0.0,0.0,0.0,0.0,0.0,0.0,0.0,0.0,-0.0098589778794,-0.0127615559573,-0.000913135166254,0.0,0.0,0.0,0.0,0.0,0.0,0.0,0.0,0.0,6.2201985132,-0.0631223843247,7.38983863647,0.0,0.0,0.0,0.0,0.0,0.0,0.0,0.0,0.0
82280000000,78,82280000000,imu_link,-0.00179323404005,-0.373042375966,0.00815114239207,0.927776766751,0.0,0.0,0.0,0.0,0.0,0.0,0.0,0.0,0.0,-0.0103648505225,-0.0127928093405,-0.000924544860139,0.0,0.0,0.0,0.0,0.0,0.0,0.0,0.0,0.0,6.22143696903,-0.0630185180621,7.38801744776,0.0,0.0,0.0,0.0,0.0,0.0,0.0,0.0,0.0
82284000000,79,82284000000,imu_link,-0.00181240158286,-0.373066405645,0.00814138474247,0.927767152918,0.0,0.0,0.0,0.0,0.0,0.0,0.0,0.0,0.0,-0.0108181634454,-0.0128534050448,-0.000933671001195,0.0,0.0,0.0,0.0,0.0,0.0,0.0,0.0,0.0,6.22252457059,-0.0630328945921,7.38463483795,0.0,0.0,0.0,0.0,0.0,0.0,0.0,0.0,0.0
82288000000,80,82288000000,imu_link,-0.00183185677404,-0.373090546313,0.00813136699608,0.927757494943,0.0,0.0,0.0,0.0,0.0,0.0,0.0,0.0,0.0,-0.0110006072875,-0.0129117181577,-0.00100059055188,0.0,0.0,0.0,0.0,0.0,0.0,0.0,0.0,0.0,6.22529332941,-0.0631614047373,7.38445030333,0.0,0.0,0.0,0.0,0.0,0.0,0.0,0.0,0.0
82292000000,81,82292000000,imu_link,-0.0018509777533,-0.373114809023,0.00812116248433,0.927747788943,0.0,0.0,0.0,0.0,0.0,0.0,0.0,0.0,0.0,-0.010880953846,-0.0129784772112,-0.00114948921327,0.0,0.0,0.0,0.0,0.0,0.0,0.0,0.0,0.0,6.22778988757,-0.0632195076227,7.38362262081,0.0,0.0,0.0,0.0,0.0,0.0,0.0,0.0,0.0
82296000000,82,82296000000,imu_link,-0.00186920447353,-0.373139134512,0.00811083892107,0.927738059294,0.0,0.0,0.0,0.0,0.0,0.0,0.0,0.0,0.0,-0.0104886171786,-0.0130155321983,-0.00137150681228,0.0,0.0,0.0,0.0,0.0,0.0,0.0,0.0,0.0,6.22928035619,-0.0631760572362,7.37967215782,0.0,0.0,0.0,0.0,0.0,0.0,0.0,0.0,0.0
82300000000,83,82300000000,imu_link,-0.00188614751215,-0.373163209134,0.00810045561108,0.927728432471,0.0,0.0,0.0,0.0,0.0,0.0,0.0,0.0,0.0,-0.00990319047716,-0.0128851283544,-0.00163889993856,0.0,0.0,0.0,0.0,0.0,0.0,0.0,0.0,0.0,6.23144237516,-0.0629810850273,7.37510898179,0.0,0.0,0.0,0.0,0.0,0.0,0.0,0.0,0.0
82304000000,84,82304000000,imu_link,-0.00190170291576,-0.373186612009,0.00809003858483,0.927719077857,0.0,0.0,0.0,0.0,0.0,0.0,0.0,0.0,0.0,-0.00926282964956,-0.0125283281855,-0.00191391586781,0.0,0.0,0.0,0.0,0.0,0.0,0.0,0.0,0.0,6.23403729064,-0.0627505590366,7.37081122768,0.0,0.0,0.0,0.0,0.0,0.0,0.0,0.0,0.0
82308000000,85,82308000000,imu_link,-0.00191576440374,-0.373209178379,0.00807962216903,0.927710061779,0.0,0.0,0.0,0.0,0.0,0.0,0.0,0.0,0.0,-0.00856604314813,-0.0120831822384,-0.00219296136101,0.0,0.0,0.0,0.0,0.0,0.0,0.0,0.0,0.0,6.23537988696,-0.0625135915419,7.36624084172,0.0,0.0,0.0,0.0,0.0,0.0,0.0,0.0,0.0
82312000000,86,82312000000,imu_link,-0.00192813626745,-0.373231071608,0.00806925011348,0.92770131868,0.0,0.0,0.0,0.0,0.0,0.0,0.0,0.0,0.0,-0.00777104375776,-0.0117268716771,-0.00248813426642,0.0,0.0,0.0,0.0,0.0,0.0,0.0,0.0,0.0,6.23611859123,-0.0623179290453,7.3629462285,0.0,0.0,0.0,0.0,0.0,0.0,0.0,0.0,0.0
82316000000,87,82316000000,imu_link,-0.00193839740263,-0.373252570753,0.00805899432851,0.92769273666,0.0,0.0,0.0,0.0,0.0,0.0,0.0,0.0,0.0,-0.00676853777142,-0.0115226437551,-0.00282836679139,0.0,0.0,0.0,0.0,0.0,0.0,0.0,0.0,0.0,6.2377646929,-0.062159587661,7.36239342274,0.0,0.0,0.0,0.0,0.0,0.0,0.0,0.0,0.0
82320000000,88,82320000000,imu_link,-0.00194646677209,-0.373273938659,0.0080488790741,0.927684210025,0.0,0.0,0.0,0.0,0.0,0.0,0.0,0.0,0.0,-0.00572508599446,-0.0114604006725,-0.00317231927385,0.0,0.0,0.0,0.0,0.0,0.0,0.0,0.0,0.0,6.23932181521,-0.0617694158917,7.36187824855,0.0,0.0,0.0,0.0,0.0,0.0,0.0,0.0,0.0
82324000000,89,82324000000,imu_link,-0.0019527684504,-0.373295310117,0.00803885572651,0.927675684137,0.0,0.0,0.0,0.0,0.0,0.0,0.0,0.0,0.0,-0.00488801677021,-0.0114691122472,-0.00345961199875,0.0,0.0,0.0,0.0,0.0,0.0,0.0,0.0,0.0,6.2415113471,-0.0612429318862,7.36198216387,0.0,0.0,0.0,0.0,0.0,0.0,0.0,0.0,0.0
82328000000,90,82328000000,imu_link,-0.0019581245325,-0.373316825763,0.00802883066555,0.927667101512,0.0,0.0,0.0,0.0,0.0,0.0,0.0,0.0,0.0,-0.00445036821442,-0.0115503810445,-0.00363681277874,0.0,0.0,0.0,0.0,0.0,0.0,0.0,0.0,0.0,6.24472480285,-0.0607338615773,7.36418498435,0.0,0.0,0.0,0.0,0.0,0.0,0.0,0.0,0.0
82332000000,91,82332000000,imu_link,-0.00196339253054,-0.373338616668,0.00801867581423,0.9276584087,0.0,0.0,0.0,0.0,0.0,0.0,0.0,0.0,0.0,-0.00443495121482,-0.0116988492379,-0.00371328268623,0.0,0.0,0.0,0.0,0.0,0.0,0.0,0.0,0.0,6.24764173606,-0.0604036935019,7.36541692205,0.0,0.0,0.0,0.0,0.0,0.0,0.0,0.0,0.0
82336000000,92,82336000000,imu_link,-0.0019691187675,-0.373360919951,0.00800831605369,0.927649509728,0.0,0.0,0.0,0.0,0.0,0.0,0.0,0.0,0.0,-0.00468800275556,-0.0119729500753,-0.00372246285892,0.0,0.0,0.0,0.0,0.0,0.0,0.0,0.0,0.0,6.24969684926,-0.0602870646304,7.36580711359,0.0,0.0,0.0,0.0,0.0,0.0,0.0,0.0,0.0
82340000000,93,82340000000,imu_link,-0.00197546203129,-0.373383978278,0.00799772609194,0.927640306742,0.0,0.0,0.0,0.0,0.0,0.0,0.0,0.0,0.0,-0.00502049177334,-0.0123772145549,-0.00371357509406,0.0,0.0,0.0,0.0,0.0,0.0,0.0,0.0,0.0,6.25181404734,-0.0603386978825,7.36612000779,0.0,0.0,0.0,0.0,0.0,0.0,0.0,0.0,0.0
82344000000,94,82344000000,imu_link,-0.00198253541421,-0.37340771312,0.00798689858422,0.927630831089,0.0,0.0,0.0,0.0,0.0,0.0,0.0,0.0,0.0,-0.00540645828802,-0.0127387466573,-0.00368702416564,0.0,0.0,0.0,0.0,0.0,0.0,0.0,0.0,0.0,6.25357640765,-0.0604023292043,7.36281237174,0.0,0.0,0.0,0.0,0.0,0.0,0.0,0.0,0.0
82348000000,95,82348000000,imu_link,-0.00199036897069,-0.373431689927,0.00797584874642,0.927621257425,0.0,0.0,0.0,0.0,0.0,0.0,0.0,0.0,0.0,-0.00580161181485,-0.0128660163328,-0.00364806540231,0.0,0.0,0.0,0.0,0.0,0.0,0.0,0.0,0.0,6.25621824153,-0.0605259603438,7.3587659053,0.0,0.0,0.0,0.0,0.0,0.0,0.0,0.0,0.0
82352000000,96,82352000000,imu_link,-0.00199890994234,-0.373455710638,0.00796460701856,0.927611665292,0.0,0.0,0.0,0.0,0.0,0.0,0.0,0.0,0.0,-0.00616574087309,-0.0128868162732,-0.00360495046461,0.0,0.0,0.0,0.0,0.0,0.0,0.0,0.0,0.0,6.25790503973,-0.0606688433587,7.35469590351,0.0,0.0,0.0,0.0,0.0,0.0,0.0,0.0,0.0
82356000000,97,82356000000,imu_link,-0.00200784532816,-0.373480060592,0.0079532817363,0.927601939523,0.0,0.0,0.0,0.0,0.0,0.0,0.0,0.0,0.0,-0.00636571910382,-0.0130628197415,-0.00356985225946,0.0,0.0,0.0,0.0,0.0,0.0,0.0,0.0,0.0,6.25994855934,-0.0608514575245,7.35497967877,0.0,0.0,0.0,0.0,0.0,0.0,0.0,0.0,0.0
82360000000,98,82360000000,imu_link,-0.00201683002324,-0.373504989486,0.00794195946755,0.927591979539,0.0,0.0,0.0,0.0,0.0,0.0,0.0,0.0,0.0,-0.00639056341678,-0.0133748774242,-0.00355889640154,0.0,0.0,0.0,0.0,0.0,0.0,0.0,0.0,0.0,6.26201600902,-0.0610009156183,7.35498049609,0.0,0.0,0.0,0.0,0.0,0.0,0.0,0.0,0.0
82364000000,99,82364000000,imu_link,-0.00202561134593,-0.373530611854,0.00793070865667,0.92758173913,0.0,0.0,0.0,0.0,0.0,0.0,0.0,0.0,0.0,-0.0062859317386,-0.0137497579281,-0.0035633205681,0.0,0.0,0.0,0.0,0.0,0.0,0.0,0.0,0.0,6.26447167614,-0.0610473520429,7.35481503705,0.0,0.0,0.0,0.0,0.0,0.0,0.0,0.0,0.0
82368000000,100,82368000000,imu_link,-0.00203392165333,-0.373557082837,0.00791961095822,0.927571155647,0.0,0.0,0.0,0.0,0.0,0.0,0.0,0.0,0.0,-0.00604259558224,-0.014209434126,-0.00357977681737,0.0,0.0,0.0,0.0,0.0,0.0,0.0,0.0,0.0,6.26712422045,-0.0610141415681,7.35597958613,0.0,0.0,0.0,0.0,0.0,0.0,0.0,0.0,0.0
82372000000,101,82372000000,imu_link,-0.00204137429985,-0.373584751568,0.00790877019775,0.927560088372,0.0,0.0,0.0,0.0,0.0,0.0,0.0,0.0,0.0,-0.00560206918342,-0.0148589525743,-0.00362010767175,0.0,0.0,0.0,0.0,0.0,0.0,0.0,0.0,0.0,6.26855629122,-0.0609031568179,7.35587029219,0.0,0.0,0.0,0.0,0.0,0.0,0.0,0.0,0.0
82376000000,102,82376000000,imu_link,-0.00204787391045,-0.373613825723,0.00789820666837,0.927548453598,0.0,0.0,0.0,0.0,0.0,0.0,0.0,0.0,0.0,-0.00511442230934,-0.0156208157479,-0.00366874366438,0.0,0.0,0.0,0.0,0.0,0.0,0.0,0.0,0.0,6.26960727673,-0.0607313549771,7.35369389977,0.0,0.0,0.0,0.0,0.0,0.0,0.0,0.0,0.0
82380000000,103,82380000000,imu_link,-0.00205355062355,-0.373644001602,0.0078878842216,0.927536373561,0.0,0.0,0.0,0.0,0.0,0.0,0.0,0.0,0.0,-0.00469255450759,-0.0162184420699,-0.00371002840566,0.0,0.0,0.0,0.0,0.0,0.0,0.0,0.0,0.0,6.2713255451,-0.060554802058,7.34891525416,0.0,0.0,0.0,0.0,0.0,0.0,0.0,0.0,0.0
82384000000,104,82384000000,imu_link,-0.00205883146169,-0.373674738382,0.00787772607541,0.927524065747,0.0,0.0,0.0,0.0,0.0,0.0,0.0,0.0,0.0,-0.00448071136932,-0.0165228537796,-0.00370746675056,0.0,0.0,0.0,0.0,0.0,0.0,0.0,0.0,0.0,6.27426715908,-0.0603809539937,7.3450466429,0.0,0.0,0.0,0.0,0.0,0.0,0.0,0.0,0.0
82388000000,105,82388000000,imu_link,-0.00206383145532,-0.373705430143,0.00786769658312,0.927511774282,0.0,0.0,0.0,0.0,0.0,0.0,0.0,0.0,0.0,-0.004326234833,-0.016500159269,-0.00370029226589,0.0,0.0,0.0,0.0,0.0,0.0,0.0,0.0,0.0,6.27712742378,-0.0603069808945,7.34025218286,0.0,0.0,0.0,0.0,0.0,0.0,0.0,0.0,0.0
82392000000,106,82392000000,imu_link,-0.00206840697152,-0.373735872886,0.00785779458211,0.927499581712,0.0,0.0,0.0,0.0,0.0,0.0,0.0,0.0,0.0,-0.00410447719167,-0.0163679989381,-0.0037206142607,0.0,0.0,0.0,0.0,0.0,0.0,0.0,0.0,0.0,6.27790255564,-0.0602345979937,7.33470853088,0.0,0.0,0.0,0.0,0.0,0.0,0.0,0.0,0.0
82396000000,107,82396000000,imu_link,-0.00207253739024,-0.373766084421,0.00784801526061,0.927487480984,0.0,0.0,0.0,0.0,0.0,0.0,0.0,0.0,0.0,-0.00387413508011,-0.0162454892048,-0.00374701783705,0.0,0.0,0.0,0.0,0.0,0.0,0.0,0.0,0.0,6.2781903629,-0.0601852701398,7.32987366672,0.0,0.0,0.0,0.0,0.0,0.0,0.0,0.0,0.0
82400000000,108,82400000000,imu_link,-0.00207645734517,-0.373796052257,0.00783834844738,0.92747547673,0.0,0.0,0.0,0.0,0.0,0.0,0.0,0.0,0.0,-0.00375445167828,-0.016115388472,-0.00373430097273,0.0,0.0,0.0,0.0,0.0,0.0,0.0,0.0,0.0,6.27966358431,-0.0601419382666,7.3275912809,0.0,0.0,0.0,0.0,0.0,0.0,0.0,0.0,0.0
82404000000,109,82404000000,imu_link,-0.00208032830536,-0.373825932573,0.00782875609399,0.927463505993,0.0,0.0,0.0,0.0,0.0,0.0,0.0,0.0,0.0,-0.00371743676858,-0.0160688072667,-0.00370896864901,0.0,0.0,0.0,0.0,0.0,0.0,0.0,0.0,0.0,6.28068465622,-0.0601626599422,7.32552750823,0.0,0.0,0.0,0.0,0.0,0.0,0.0,0.0,0.0
82408000000,110,82408000000,imu_link,-0.00208428097561,-0.373856118079,0.00781920869221,0.927451410438,0.0,0.0,0.0,0.0,0.0,0.0,0.0,0.0,0.0,-0.00374825073581,-0.0162333905949,-0.00367267935186,0.0,0.0,0.0,0.0,0.0,0.0,0.0,0.0,0.0,6.28239219053,-0.0602244332262,7.32673824173,0.0,0.0,0.0,0.0,0.0,0.0,0.0,0.0,0.0
82412000000,111,82412000000,imu_link,-0.00208833567416,-0.373886989445,0.00780971946228,0.927439036411,0.0,0.0,0.0,0.0,0.0,0.0,0.0,0.0,0.0,-0.00378766157996,-0.016603157547,-0.0036262576669,0.0,0.0,0.0,0.0,0.0,0.0,0.0,0.0,0.0,6.28440569384,-0.060242236543,7.32885883866,0.0,0.0,0.0,0.0,0.0,0.0,0.0,0.0,0.0
82416000000,112,82416000000,imu_link,-0.00209251885197,-0.373918829177,0.00780028948953,0.927426269865,0.0,0.0,0.0,0.0,0.0,0.0,0.0,0.0,0.0,-0.00384035336853,-0.0171251467982,-0.00357423899083,0.0,0.0,0.0,0.0,0.0,0.0,0.0,0.0,0.0,6.28640159781,-0.0601742684745,7.32970464626,0.0,0.0,0.0,0.0,0.0,0.0,0.0,0.0,0.0
82420000000,113,82420000000,imu_link,-0.00209698798312,-0.373951621166,0.00779086880493,0.927413117242,0.0,0.0,0.0,0.0,0.0,0.0,0.0,0.0,0.0,-0.00397533505409,-0.0176377958473,-0.00351596084543,0.0,0.0,0.0,0.0,0.0,0.0,0.0,0.0,0.0,6.28811975887,-0.0601418586944,7.32744045461,0.0,0.0,0.0,0.0,0.0,0.0,0.0,0.0,0.0
82424000000,114,82424000000,imu_link,-0.00210166494722,-0.373985126763,0.00778142441161,0.927399675112,0.0,0.0,0.0,0.0,0.0,0.0,0.0,0.0,0.0,-0.00407922487656,-0.0180219972534,-0.00348771545713,0.0,0.0,0.0,0.0,0.0,0.0,0.0,0.0,0.0,6.28940411234,-0.0601875093511,7.3225187948,0.0,0.0,0.0,0.0,0.0,0.0,0.0,0.0,0.0
82428000000,115,82428000000,imu_link,-0.00210615670324,-0.374019157849,0.00777198120603,0.927386019937,0.0,0.0,0.0,0.0,0.0,0.0,0.0,0.0,0.0,-0.00399539021617,-0.0183062256225,-0.00352152053322,0.0,0.0,0.0,0.0,0.0,0.0,0.0,0.0,0.0,6.29073788255,-0.0603045294538,7.31843262433,0.0,0.0,0.0,0.0,0.0,0.0,0.0,0.0,0.0
82432000000,116,82432000000,imu_link,-0.00210993634939,-0.374053697426,0.00776263296092,0.92737215892,0.0,0.0,0.0,0.0,0.0,0.0,0.0,0.0,0.0,-0.00364962409605,-0.0185833715419,-0.00361039498197,0.0,0.0,0.0,0.0,0.0,0.0,0.0,0.0,0.0,6.29260413565,-0.0603964635626,7.31662005977,0.0,0.0,0.0,0.0,0.0,0.0,0.0,0.0,0.0
82436000000,117,82436000000,imu_link,-0.00211276838593,-0.374088472915,0.00775344305244,0.927358201971,0.0,0.0,0.0,0.0,0.0,0.0,0.0,0.0,0.0,-0.00318163436158,-0.0187145471514,-0.00371408146334,0.0,0.0,0.0,0.0,0.0,0.0,0.0,0.0,0.0,6.29401364184,-0.0603373830303,7.31157684468,0.0,0.0,0.0,0.0,0.0,0.0,0.0,0.0,0.0
82440000000,118,82440000000,imu_link,-0.0021148496016,-0.374123155006,0.00774442860534,0.927344281335,0.0,0.0,0.0,0.0,0.0,0.0,0.0,0.0,0.0,-0.00280027494059,-0.0186675446335,-0.00377320251983,0.0,0.0,0.0,0.0,0.0,0.0,0.0,0.0,0.0,6.29576769416,-0.0602253229599,7.30724829563,0.0,0.0,0.0,0.0,0.0,0.0,0.0,0.0,0.0
82444000000,119,82444000000,imu_link,-0.00211641052821,-0.374157353733,0.00773557765048,0.927330553952,0.0,0.0,0.0,0.0,0.0,0.0,0.0,0.0,0.0,-0.0025263722355,-0.0184094593463,-0.00379495900768,0.0,0.0,0.0,0.0,0.0,0.0,0.0,0.0,0.0,6.29754490444,-0.0601675561921,7.30269279206,0.0,0.0,0.0,0.0,0.0,0.0,0.0,0.0,0.0
82448000000,120,82448000000,imu_link,-0.00211745005863,-0.374190747119,0.00772689643107,0.927317149765,0.0,0.0,0.0,0.0,0.0,0.0,0.0,0.0,0.0,-0.00224940814643,-0.017977783788,-0.00381419852105,0.0,0.0,0.0,0.0,0.0,0.0,0.0,0.0,0.0,6.2989249277,-0.0601965364798,7.29786260184,0.0,0.0,0.0,0.0,0.0,0.0,0.0,0.0,0.0
82452000000,121,82452000000,imu_link,-0.00211790011438,-0.374223316781,0.00771839377587,0.927304076382,0.0,0.0,0.0,0.0,0.0,0.0,0.0,0.0,0.0,-0.00193915198023,-0.0175364316937,-0.00384209962476,0.0,0.0,0.0,0.0,0.0,0.0,0.0,0.0,0.0,6.29945271944,-0.0602365109178,7.29366898382,0.0,0.0,0.0,0.0,0.0,0.0,0.0,0.0,0.0
82456000000,122,82456000000,imu_link,-0.00211769759479,-0.374255253593,0.00771008515577,0.927291256888,0.0,0.0,0.0,0.0,0.0,0.0,0.0,0.0,0.0,-0.00159756671677,-0.0171982280747,-0.0038745489631,0.0,0.0,0.0,0.0,0.0,0.0,0.0,0.0,0.0,6.30071011003,-0.0601814956102,7.29294722489,0.0,0.0,0.0,0.0,0.0,0.0,0.0,0.0,0.0
82460000000,123,82460000000,imu_link,-0.00211703648154,-0.374286700536,0.00770197690879,0.927278633157,0.0,0.0,0.0,0.0,0.0,0.0,0.0,0.0,0.0,-0.00134535067,-0.0169364495809,-0.00386769835871,0.0,0.0,0.0,0.0,0.0,0.0,0.0,0.0,0.0,6.30238490693,-0.0600310692541,7.29311717597,0.0,0.0,0.0,0.0,0.0,0.0,0.0,0.0,0.0
82464000000,124,82464000000,imu_link,-0.00211628912749,-0.374317636352,0.00769405189339,0.927266213124,0.0,0.0,0.0,0.0,0.0,0.0,0.0,0.0,0.0,-0.00126889151722,-0.0166618765289,-0.00379912778952,0.0,0.0,0.0,0.0,0.0,0.0,0.0,0.0,0.0,6.30440038357,-0.0599291660025,7.29234009558,0.0,0.0,0.0,0.0,0.0,0.0,0.0,0.0,0.0
82468000000,125,82468000000,imu_link,-0.00211575043905,-0.374347877056,0.0076862987578,0.927254070552,0.0,0.0,0.0,0.0,0.0,0.0,0.0,0.0,0.0,-0.00133049926598,-0.0162870492202,-0.00368071687801,0.0,0.0,0.0,0.0,0.0,0.0,0.0,0.0,0.0,6.30569348272,-0.0599207617189,7.28893489775,0.0,0.0,0.0,0.0,0.0,0.0,0.0,0.0,0.0
82472000000,126,82472000000,imu_link,-0.00211549496835,-0.374377129812,0.00767872150576,0.927242323555,0.0,0.0,0.0,0.0,0.0,0.0,0.0,0.0,0.0,-0.00142467055608,-0.0157540665099,-0.00354663665602,0.0,0.0,0.0,0.0,0.0,0.0,0.0,0.0,0.0,6.30571860928,-0.0599934596395,7.28198971449,0.0,0.0,0.0,0.0,0.0,0.0,0.0,0.0,0.0
82476000000,127,82476000000,imu_link,-0.00211537650989,-0.374405290807,0.00767135537298,0.927231014205,0.0,0.0,0.0,0.0,0.0,0.0,0.0,0.0,0.0,-0.00144401863415,-0.0151656775154,-0.0034236356606,0.0,0.0,0.0,0.0,0.0,0.0,0.0,0.0,0.0,6.30648375674,-0.0601255453355,7.27803769808,0.0,0.0,0.0,0.0,0.0,0.0,0.0,0.0,0.0
82480000000,128,82480000000,imu_link,-0.00211513082864,-0.374432553896,0.00766428052778,0.927220064283,0.0,0.0,0.0,0.0,0.0,0.0,0.0,0.0,0.0,-0.00132668212786,-0.0146829048629,-0.00331283560002,0.0,0.0,0.0,0.0,0.0,0.0,0.0,0.0,0.0,6.30846975938,-0.0602452484713,7.27823917695,0.0,0.0,0.0,0.0,0.0,0.0,0.0,0.0,0.0
82484000000,129,82484000000,imu_link,-0.00211453641216,-0.374459107104,0.00765755580593,0.927209397969,0.0,0.0,0.0,0.0,0.0,0.0,0.0,0.0,0.0,-0.00109643588629,-0.0143024070908,-0.00321613989956,0.0,0.0,0.0,0.0,0.0,0.0,0.0,0.0,0.0,6.30980781518,-0.0603232032765,7.2771075375,0.0,0.0,0.0,0.0,0.0,0.0,0.0,0.0,0.0
82488000000,130,82488000000,imu_link,-0.00211349131458,-0.374485109066,0.0076512020067,0.927198951332,0.0,0.0,0.0,0.0,0.0,0.0,0.0,0.0,0.0,-0.000815707474696,-0.014007834587,-0.00312881752556,0.0,0.0,0.0,0.0,0.0,0.0,0.0,0.0,0.0,6.311664304,-0.0604223682456,7.27708288978,0.0,0.0,0.0,0.0,0.0,0.0,0.0,0.0,0.0
82492000000,131,82492000000,imu_link,-0.00211215037057,-0.374510715961,0.00764516842842,0.927188661412,0.0,0.0,0.0,0.0,0.0,0.0,0.0,0.0,0.0,-0.00061691726568,-0.0137968081805,-0.00303594035847,0.0,0.0,0.0,0.0,0.0,0.0,0.0,0.0,0.0,6.31302214695,-0.0605191216431,7.27597732375,0.0,0.0,0.0,0.0,0.0,0.0,0.0,0.0,0.0
82496000000,132,82496000000,imu_link,-0.00211087995507,-0.374536278428,0.00763937907028,0.927178386404,0.0,0.0,0.0,0.0,0.0,0.0,0.0,0.0,0.0,-0.000603696772019,-0.013773407244,-0.00290952452756,0.0,0.0,0.0,0.0,0.0,0.0,0.0,0.0,0.0,6.31403919682,-0.0605927804688,7.2757966233,0.0,0.0,0.0,0.0,0.0,0.0,0.0,0.0,0.0
82500000000,133,82500000000,imu_link,-0.00211008354099,-0.374562305511,0.00763377537057,0.927167920234,0.0,0.0,0.0,0.0,0.0,0.0,0.0,0.0,0.0,-0.000790647248338,-0.0140229823561,-0.00273445011554,0.0,0.0,0.0,0.0,0.0,0.0,0.0,0.0,0.0,6.31662465674,-0.0606816106345,7.28031651584,0.0,0.0,0.0,0.0,0.0,0.0,0.0,0.0,0.0
82504000000,134,82504000000,imu_link,-0.00210995380876,-0.37458941022,0.00762831037596,0.927157015142,0.0,0.0,0.0,0.0,0.0,0.0,0.0,0.0,0.0,-0.00107830966719,-0.0146023557219,-0.00254475333561,0.0,0.0,0.0,0.0,0.0,0.0,0.0,0.0,0.0,6.31910860072,-0.0608095088422,7.285373787,0.0,0.0,0.0,0.0,0.0,0.0,0.0,0.0,0.0
82508000000,135,82508000000,imu_link,-0.00211033522364,-0.374617813655,0.00762302033171,0.927145581739,0.0,0.0,0.0,0.0,0.0,0.0,0.0,0.0,0.0,-0.00128801010658,-0.0153016023855,-0.00236727002745,0.0,0.0,0.0,0.0,0.0,0.0,0.0,0.0,0.0,6.32013972656,-0.0609752685535,7.28385295528,0.0,0.0,0.0,0.0,0.0,0.0,0.0,0.0,0.0
82512000000,136,82512000000,imu_link,-0.00211070676447,-0.374647315314,0.00761795425214,0.927133701695,0.0,0.0,0.0,0.0,0.0,0.0,0.0,0.0,0.0,-0.00124613935472,-0.0158946428515,-0.00226475202456,0.0,0.0,0.0,0.0,0.0,0.0,0.0,0.0,0.0,6.32191050731,-0.0612084686288,7.28052306132,0.0,0.0,0.0,0.0,0.0,0.0,0.0,0.0,0.0
82516000000,137,82516000000,imu_link,-0.00211046320801,-0.374677733389,0.00761315982719,0.92712144935,0.0,0.0,0.0,0.0,0.0,0.0,0.0,0.0,0.0,-0.000913996823048,-0.0163918328578,-0.00225359328142,0.0,0.0,0.0,0.0,0.0,0.0,0.0,0.0,0.0,6.32388427813,-0.0613884699705,7.27801205182,0.0,0.0,0.0,0.0,0.0,0.0,0.0,0.0,0.0
82520000000,138,82520000000,imu_link,-0.00210918413962,-0.374708808637,0.00760865992242,0.927108930151,0.0,0.0,0.0,0.0,0.0,0.0,0.0,0.0,0.0,-0.000381582256963,-0.0167507177234,-0.00231073459312,0.0,0.0,0.0,0.0,0.0,0.0,0.0,0.0,0.0,6.32570740972,-0.0614694386232,7.27461759492,0.0,0.0,0.0,0.0,0.0,0.0,0.0,0.0,0.0
82524000000,139,82524000000,imu_link,-0.00210650313182,-0.374740409925,0.00760448899026,0.927096197577,0.0,0.0,0.0,0.0,0.0,0.0,0.0,0.0,0.0,0.000327701230125,-0.0170402226193,-0.00242064039812,0.0,0.0,0.0,0.0,0.0,0.0,0.0,0.0,0.0,6.32748623917,-0.0614716741318,7.27193906313,0.0,0.0,0.0,0.0,0.0,0.0,0.0,0.0,0.0
82528000000,140,82528000000,imu_link,-0.00210194406102,-0.374772437351,0.00760068052355,0.927083292746,0.0,0.0,0.0,0.0,0.0,0.0,0.0,0.0,0.0,0.00126438727182,-0.0172775567389,-0.00260430714979,0.0,0.0,0.0,0.0,0.0,0.0,0.0,0.0,0.0,6.32949279349,-0.0614415495311,7.27014593166,0.0,0.0,0.0,0.0,0.0,0.0,0.0,0.0,0.0
82532000000,141,82532000000,imu_link,-0.00209519760246,-0.37480466593,0.00759724120796,0.927070307188,0.0,0.0,0.0,0.0,0.0,0.0,0.0,0.0,0.0,0.00234665714537,-0.0173946273858,-0.00284298117283,0.0,0.0,0.0,0.0,0.0,0.0,0.0,0.0,0.0,6.33151479718,-0.0613734658406,7.26752083564,0.0,0.0,0.0,0.0,0.0,0.0,0.0,0.0,0.0
82536000000,142,82536000000,imu_link,-0.00208629100675,-0.374836884144,0.00759416188799,0.927057326372,0.0,0.0,0.0,0.0,0.0,0.0,0.0,0.0,0.0,0.00341546500759,-0.0173975167708,-0.0030809324368,0.0,0.0,0.0,0.0,0.0,0.0,0.0,0.0,0.0,6.33195307591,-0.0612537410598,7.26175241379,0.0,0.0,0.0,0.0,0.0,0.0,0.0,0.0,0.0
82540000000,143,82540000000,imu_link,-0.00207556922975,-0.37486863799,0.00759141517213,0.927044533277,0.0,0.0,0.0,0.0,0.0,0.0,0.0,0.0,0.0,0.00432114877191,-0.0171543260466,-0.00326718773711,0.0,0.0,0.0,0.0,0.0,0.0,0.0,0.0,0.0,6.33426970151,-0.0611080403253,7.25803953161,0.0,0.0,0.0,0.0,0.0,0.0,0.0,0.0,0.0
82544000000,144,82544000000,imu_link,-0.00206368577015,-0.374899352385,0.0075889081271,0.927032159774,0.0,0.0,0.0,0.0,0.0,0.0,0.0,0.0,0.0,0.00490891795895,-0.0165985293736,-0.00337434808425,0.0,0.0,0.0,0.0,0.0,0.0,0.0,0.0,0.0,6.33789187361,-0.0609842256594,7.25606659097,0.0,0.0,0.0,0.0,0.0,0.0,0.0,0.0,0.0
82548000000,145,82548000000,imu_link,-0.00205156831698,-0.37492838844,0.00758648749838,0.927020463537,0.0,0.0,0.0,0.0,0.0,0.0,0.0,0.0,0.0,0.00504064367303,-0.0156946156192,-0.00337899282027,0.0,0.0,0.0,0.0,0.0,0.0,0.0,0.0,0.0,6.34212591723,-0.0608588621685,7.2553964253,0.0,0.0,0.0,0.0,0.0,0.0,0.0,0.0,0.0
82552000000,146,82552000000,imu_link,-0.00203996737152,-0.374955372628,0.00758403769002,0.927009595119,0.0,0.0,0.0,0.0,0.0,0.0,0.0,0.0,0.0,0.00480439931198,-0.0145863789117,-0.00329672653042,0.0,0.0,0.0,0.0,0.0,0.0,0.0,0.0,0.0,6.34330054294,-0.0608335415649,7.25079514675,0.0,0.0,0.0,0.0,0.0,0.0,0.0,0.0,0.0
82556000000,147,82556000000,imu_link,-0.00202934826773,-0.374980492215,0.00758149469672,0.926999478502,0.0,0.0,0.0,0.0,0.0,0.0,0.0,0.0,0.0,0.00433967832638,-0.0135773630893,-0.0031567937697,0.0,0.0,0.0,0.0,0.0,0.0,0.0,0.0,0.0,6.34383935778,-0.060999592627,7.24917731622,0.0,0.0,0.0,0.0,0.0,0.0,0.0,0.0,0.0
82560000000,148,82560000000,imu_link,-0.00201973259516,-0.375004383406,0.00757886841837,0.926989856395,0.0,0.0,0.0,0.0,0.0,0.0,0.0,0.0,0.0,0.00386413138344,-0.0129113977617,-0.00300789094957,0.0,0.0,0.0,0.0,0.0,0.0,0.0,0.0,0.0,6.34553607282,-0.0613048385017,7.25347259668,0.0,0.0,0.0,0.0,0.0,0.0,0.0,0.0,0.0
82564000000,149,82564000000,imu_link,-0.00201097316027,-0.375027563403,0.00757623196685,0.92698051942,0.0,0.0,0.0,0.0,0.0,0.0,0.0,0.0,0.0,0.00346834503707,-0.0125250452463,-0.0028524219912,0.0,0.0,0.0,0.0,0.0,0.0,0.0,0.0,0.0,6.34645178922,-0.0616296683487,7.25516441138,0.0,0.0,0.0,0.0,0.0,0.0,0.0,0.0,0.0
82568000000,150,82568000000,imu_link,-0.00200286733378,-0.375050414014,0.00757363208823,0.926971313239,0.0,0.0,0.0,0.0,0.0,0.0,0.0,0.0,0.0,0.00317364109439,-0.0123454132298,-0.00271307449777,0.0,0.0,0.0,0.0,0.0,0.0,0.0,0.0,0.0,6.34746321194,-0.061936920416,7.25558572703,0.0,0.0,0.0,0.0,0.0,0.0,0.0,0.0,0.0
82572000000,151,82572000000,imu_link,-0.00199515031631,-0.375072924149,0.0075710822941,0.926962242844,0.0,0.0,0.0,0.0,0.0,0.0,0.0,0.0,0.0,0.00300425110473,-0.0121607216808,-0.00261712279476,0.0,0.0,0.0,0.0,0.0,0.0,0.0,0.0,0.0,6.34785118807,-0.0621956438244,7.25121060326,0.0,0.0,0.0,0.0,0.0,0.0,0.0,0.0,0.0
82576000000,152,82576000000,imu_link,-0.00198777151039,-0.375094843997,0.00756858498963,0.926953409451,0.0,0.0,0.0,0.0,0.0,0.0,0.0,0.0,0.0,0.00285981113892,-0.0118414603588,-0.00252967615964,0.0,0.0,0.0,0.0,0.0,0.0,0.0,0.0,0.0,6.34860068428,-0.0624445029774,7.24564016401,0.0,0.0,0.0,0.0,0.0,0.0,0.0,0.0,0.0
82580000000,153,82580000000,imu_link,-0.00198089328245,-0.375115936025,0.00756614155393,0.926944908883,0.0,0.0,0.0,0.0,0.0,0.0,0.0,0.0,0.0,0.00264137135518,-0.0113935244006,-0.00241126387246,0.0,0.0,0.0,0.0,0.0,0.0,0.0,0.0,0.0,6.3491855164,-0.0626711725945,7.24018092624,0.0,0.0,0.0,0.0,0.0,0.0,0.0,0.0,0.0
82584000000,154,82584000000,imu_link,-0.00197493521359,-0.375136196744,0.00756369531175,0.926936742198,0.0,0.0,0.0,0.0,0.0,0.0,0.0,0.0,0.0,0.00221785218325,-0.010942128902,-0.0022404211733,0.0,0.0,0.0,0.0,0.0,0.0,0.0,0.0,0.0,6.35136602894,-0.0629320462346,7.24021094105,0.0,0.0,0.0,0.0,0.0,0.0,0.0,0.0,0.0
82588000000,155,82588000000,imu_link,-0.0019701962553,-0.375155976746,0.00756114263878,0.926928767792,0.0,0.0,0.0,0.0,0.0,0.0,0.0,0.0,0.0,0.00163487784409,-0.0106785507198,-0.00206133469804,0.0,0.0,0.0,0.0,0.0,0.0,0.0,0.0,0.0,6.35304612752,-0.0632303741106,7.24190784831,0.0,0.0,0.0,0.0,0.0,0.0,0.0,0.0,0.0
82592000000,156,82592000000,imu_link,-0.00196657318749,-0.375175757731,0.00755846225757,0.926920791141,0.0,0.0,0.0,0.0,0.0,0.0,0.0,0.0,0.0,0.00109374116746,-0.0106750829913,-0.00191119891058,0.0,0.0,0.0,0.0,0.0,0.0,0.0,0.0,0.0,6.35472302544,-0.0635570590784,7.24463977433,0.0,0.0,0.0,0.0,0.0,0.0,0.0,0.0,0.0
82596000000,157,82596000000,imu_link,-0.00196378338942,-0.375195938549,0.00755570819875,0.926912650968,0.0,0.0,0.0,0.0,0.0,0.0,0.0,0.0,0.0,0.000692060767932,-0.0108878429756,-0.00178880942756,0.0,0.0,0.0,0.0,0.0,0.0,0.0,0.0,0.0,6.35569250283,-0.0638467620171,7.24521800095,0.0,0.0,0.0,0.0,0.0,0.0,0.0,0.0,0.0
82600000000,158,82600000000,imu_link,-0.00196132823381,-0.375216696531,0.00755295606416,0.926904275905,0.0,0.0,0.0,0.0,0.0,0.0,0.0,0.0,0.0,0.000534918503694,-0.011198135812,-0.00172481871444,0.0,0.0,0.0,0.0,0.0,0.0,0.0,0.0,0.0,6.35709637178,-0.0641513917436,7.2446067489,0.0,0.0,0.0,0.0,0.0,0.0,0.0,0.0,0.0
82604000000,159,82604000000,imu_link,-0.00195886566186,-0.375237913881,0.00755024192926,0.926895714025,0.0,0.0,0.0,0.0,0.0,0.0,0.0,0.0,0.0,0.000543566686291,-0.0114461443382,-0.00170834402302,0.0,0.0,0.0,0.0,0.0,0.0,0.0,0.0,0.0,6.35813747155,-0.0643542472692,7.24079193195,0.0,0.0,0.0,0.0,0.0,0.0,0.0,0.0,0.0
82608000000,160,82608000000,imu_link,-0.00195618163374,-0.375259474184,0.007547595044,0.926887012638,0.0,0.0,0.0,0.0,0.0,0.0,0.0,0.0,0.0,0.000657386052325,-0.0116321617183,-0.00171853594041,0.0,0.0,0.0,0.0,0.0,0.0,0.0,0.0,0.0,6.359700288,-0.0644951076136,7.23826135608,0.0,0.0,0.0,0.0,0.0,0.0,0.0,0.0,0.0
82612000000,161,82612000000,imu_link,-0.00195321807589,-0.375281330644,0.00754503301204,0.926878190641,0.0,0.0,0.0,0.0,0.0,0.0,0.0,0.0,0.0,0.000801617691445,-0.0117931811873,-0.00173149382612,0.0,0.0,0.0,0.0,0.0,0.0,0.0,0.0,0.0,6.36015969493,-0.0645757385135,7.23390595521,0.0,0.0,0.0,0.0,0.0,0.0,0.0,0.0,0.0
82616000000,162,82616000000,imu_link,-0.00194996853303,-0.375303573915,0.00754255415574,0.926869211327,0.0,0.0,0.0,0.0,0.0,0.0,0.0,0.0,0.0,0.000948148571658,-0.0120031241844,-0.00174639367266,0.0,0.0,0.0,0.0,0.0,0.0,0.0,0.0,0.0,6.3604651863,-0.0646184497745,7.23030705302,0.0,0.0,0.0,0.0,0.0,0.0,0.0,0.0,0.0
82620000000,163,82620000000,imu_link,-0.00194643660813,-0.375326287098,0.00754015226432,0.926860041053,0.0,0.0,0.0,0.0,0.0,0.0,0.0,0.0,0.0,0.00109149842893,-0.0122578710961,-0.00176345297791,0.0,0.0,0.0,0.0,0.0,0.0,0.0,0.0,0.0,6.36104715414,-0.0646595138196,7.2272057162,0.0,0.0,0.0,0.0,0.0,0.0,0.0,0.0,0.0
82624000000,164,82624000000,imu_link,-0.00194254391284,-0.375349465107,0.00753782375184,0.92685068203,0.0,0.0,0.0,0.0,0.0,0.0,0.0,0.0,0.0,0.00127052465188,-0.0125101385263,-0.00179689105334,0.0,0.0,0.0,0.0,0.0,0.0,0.0,0.0,0.0,6.36196036196,-0.0647706605503,7.22411703901,0.0,0.0,0.0,0.0,0.0,0.0,0.0,0.0,0.0
82628000000,165,82628000000,imu_link,-0.00193837599014,-0.375373235815,0.00753553039033,0.926841082556,0.0,0.0,0.0,0.0,0.0,0.0,0.0,0.0,0.0,0.0014022015863,-0.0128310082678,-0.00183192387033,0.0,0.0,0.0,0.0,0.0,0.0,0.0,0.0,0.0,6.36383311328,-0.0649031979247,7.22435696929,0.0,0.0,0.0,0.0,0.0,0.0,0.0,0.0,0.0
82632000000,166,82632000000,imu_link,-0.00193434137631,-0.375397886666,0.00753320308303,0.926831125859,0.0,0.0,0.0,0.0,0.0,0.0,0.0,0.0,0.0,0.00133038996164,-0.0133053953671,-0.0018221418439,0.0,0.0,0.0,0.0,0.0,0.0,0.0,0.0,0.0,6.36540770153,-0.0649709612318,7.22526165688,0.0,0.0,0.0,0.0,0.0,0.0,0.0,0.0,0.0
82636000000,167,82636000000,imu_link,-0.00193106311871,-0.375423555933,0.0075307921952,0.926820754955,0.0,0.0,0.0,0.0,0.0,0.0,0.0,0.0,0.0,0.000959958158307,-0.0138521617108,-0.00171833192705,0.0,0.0,0.0,0.0,0.0,0.0,0.0,0.0,0.0,6.36872991123,-0.0650593684747,7.22853032905,0.0,0.0,0.0,0.0,0.0,0.0,0.0,0.0,0.0
82640000000,168,82640000000,imu_link,-0.00192908013603,-0.375450074884,0.00752826703035,0.926810037233,0.0,0.0,0.0,0.0,0.0,0.0,0.0,0.0,0.0,0.000334728919357,-0.0143060282781,-0.00152766521812,0.0,0.0,0.0,0.0,0.0,0.0,0.0,0.0,0.0,6.3710732112,-0.0652000394248,7.22724263164,0.0,0.0,0.0,0.0,0.0,0.0,0.0,0.0,0.0
82644000000,169,82644000000,imu_link,-0.0019284485034,-0.375477015116,0.00752561741142,0.926799146142,0.0,0.0,0.0,0.0,0.0,0.0,0.0,0.0,0.0,-0.000316609606694,-0.014528591018,-0.00133140938279,0.0,0.0,0.0,0.0,0.0,0.0,0.0,0.0,0.0,6.37385277696,-0.0654647303881,7.22439760668,0.0,0.0,0.0,0.0,0.0,0.0,0.0,0.0,0.0
82648000000,170,82648000000,imu_link,-0.00192891367841,-0.37550381925,0.00752284622981,0.926788307978,0.0,0.0,0.0,0.0,0.0,0.0,0.0,0.0,0.0,-0.000847128656809,-0.0144513429004,-0.00118189637381,0.0,0.0,0.0,0.0,0.0,0.0,0.0,0.0,0.0,6.37712488737,-0.0657980157775,7.22185779585,0.0,0.0,0.0,0.0,0.0,0.0,0.0,0.0,0.0
82652000000,171,82652000000,imu_link,-0.00193002945375,-0.375530143062,0.00751999970867,0.926777662788,0.0,0.0,0.0,0.0,0.0,0.0,0.0,0.0,0.0,-0.00116076536871,-0.0141900128276,-0.0010949194212,0.0,0.0,0.0,0.0,0.0,0.0,0.0,0.0,0.0,6.37778020848,-0.0660925522897,7.21598076237,0.0,0.0,0.0,0.0,0.0,0.0,0.0,0.0,0.0
82656000000,172,82656000000,imu_link,-0.00193150691393,-0.375555906281,0.00751711511092,0.926767243443,0.0,0.0,0.0,0.0,0.0,0.0,0.0,0.0,0.0,-0.00133318976909,-0.0138864384002,-0.00104496011315,0.0,0.0,0.0,0.0,0.0,0.0,0.0,0.0,0.0,6.37842844906,-0.0663021357997,7.21264532231,0.0,0.0,0.0,0.0,0.0,0.0,0.0,0.0,0.0
82660000000,173,82660000000,imu_link,-0.00193319196746,-0.375581169522,0.00751425116067,0.926757025276,0.0,0.0,0.0,0.0,0.0,0.0,0.0,0.0,0.0,-0.00142343450109,-0.0136162193158,-0.000996684231374,0.0,0.0,0.0,0.0,0.0,0.0,0.0,0.0,0.0,6.37957101296,-0.0664349739813,7.21107102798,0.0,0.0,0.0,0.0,0.0,0.0,0.0,0.0,0.0
82664000000,174,82664000000,imu_link,-0.00193502248477,-0.375606090421,0.00751143253958,0.926746944375,0.0,0.0,0.0,0.0,0.0,0.0,0.0,0.0,0.0,-0.00148090799273,-0.0134313052423,-0.000948547759843,0.0,0.0,0.0,0.0,0.0,0.0,0.0,0.0,0.0,6.38070879379,-0.066531065677,7.21028315648,0.0,0.0,0.0,0.0,0.0,0.0,0.0,0.0,0.0
82668000000,175,82668000000,imu_link,-0.00193706277631,-0.375630898907,0.00750862947733,0.92673690768,0.0,0.0,0.0,0.0,0.0,0.0,0.0,0.0,0.0,-0.00157472485482,-0.0133701415424,-0.000901999236795,0.0,0.0,0.0,0.0,0.0,0.0,0.0,0.0,0.0,6.38247188772,-0.0666404684731,7.21118141846,0.0,0.0,0.0,0.0,0.0,0.0,0.0,0.0,0.0
82672000000,176,82672000000,imu_link,-0.00193919235492,-0.37565574773,0.00750582325822,0.926726853689,0.0,0.0,0.0,0.0,0.0,0.0,0.0,0.0,0.0,-0.0016168587605,-0.0133917424155,-0.000886666664444,0.0,0.0,0.0,0.0,0.0,0.0,0.0,0.0,0.0,6.38440003551,-0.0668260004058,7.21193637117,0.0,0.0,0.0,0.0,0.0,0.0,0.0,0.0,0.0
82676000000,177,82676000000,imu_link,-0.00194122884106,-0.375680590516,0.00750300551313,0.926716801644,0.0,0.0,0.0,0.0,0.0,0.0,0.0,0.0,0.0,-0.0015758634686,-0.0133889178196,-0.000909494193,0.0,0.0,0.0,0.0,0.0,0.0,0.0,0.0,0.0,6.38488010711,-0.0670002605043,7.20799850287,0.0,0.0,0.0,0.0,0.0,0.0,0.0,0.0,0.0
82680000000,178,82680000000,imu_link,-0.00194288328802,-0.375705264917,0.00750018876181,0.92670681787,0.0,0.0,0.0,0.0,0.0,0.0,0.0,0.0,0.0,-0.00139795778041,-0.0132995057285,-0.000980888754144,0.0,0.0,0.0,0.0,0.0,0.0,0.0,0.0,0.0,6.38649829377,-0.0671641029485,7.20561546395,0.0,0.0,0.0,0.0,0.0,0.0,0.0,0.0,0.0
82684000000,179,82684000000,imu_link,-0.00194377318079,-0.375729663457,0.00749741445034,0.926696946429,0.0,0.0,0.0,0.0,0.0,0.0,0.0,0.0,0.0,-0.0010345829162,-0.0131534903569,-0.00110500090262,0.0,0.0,0.0,0.0,0.0,0.0,0.0,0.0,0.0,6.3884071882,-0.0672274994451,7.20442743001,0.0,0.0,0.0,0.0,0.0,0.0,0.0,0.0,0.0
82688000000,180,82688000000,imu_link,-0.00194321755485,-0.375753811475,0.00749474999235,0.926687177957,0.0,0.0,0.0,0.0,0.0,0.0,0.0,0.0,0.0,-0.000343127218878,-0.0130235927853,-0.00132580510917,0.0,0.0,0.0,0.0,0.0,0.0,0.0,0.0,0.0,6.39163416466,-0.0672358386192,7.20745311566,0.0,0.0,0.0,0.0,0.0,0.0,0.0,0.0,0.0
82692000000,181,82692000000,imu_link,-0.00194052979679,-0.375777959571,0.00749228155578,0.926677411596,0.0,0.0,0.0,0.0,0.0,0.0,0.0,0.0,0.0,0.000681612191307,-0.0130314128425,-0.00163556621174,0.0,0.0,0.0,0.0,0.0,0.0,0.0,0.0,0.0,6.39311773481,-0.0671806180998,7.20841105943,0.0,0.0,0.0,0.0,0.0,0.0,0.0,0.0,0.0
82696000000,182,82696000000,imu_link,-0.00193508104794,-0.375802431947,0.0074901107752,0.926667516343,0.0,0.0,0.0,0.0,0.0,0.0,0.0,0.0,0.0,0.00201547250466,-0.0132165139321,-0.00201624220392,0.0,0.0,0.0,0.0,0.0,0.0,0.0,0.0,0.0,6.39465814226,-0.0670371630001,7.21002433293,0.0,0.0,0.0,0.0,0.0,0.0,0.0,0.0,0.0
82700000000,183,82700000000,imu_link,-0.00192663666958,-0.375827331345,0.00748829014866,0.926657450515,0.0,0.0,0.0,0.0,0.0,0.0,0.0,0.0,0.0,0.00346747890275,-0.0134579759842,-0.00241666079371,0.0,0.0,0.0,0.0,0.0,0.0,0.0,0.0,0.0,6.39521553896,-0.0667598317546,7.20750361208,0.0,0.0,0.0,0.0,0.0,0.0,0.0,0.0,0.0
82704000000,184,82704000000,imu_link,-0.00191543699834,-0.375852672267,0.00748680541052,0.926647207731,0.0,0.0,0.0,0.0,0.0,0.0,0.0,0.0,0.0,0.00480537966733,-0.0137064388564,-0.00277855401521,0.0,0.0,0.0,0.0,0.0,0.0,0.0,0.0,0.0,6.39672321988,-0.0663852909181,7.20595826491,0.0,0.0,0.0,0.0,0.0,0.0,0.0,0.0,0.0
82708000000,185,82708000000,imu_link,-0.0019021860211,-0.375878267747,0.00748559918056,0.926636862708,0.0,0.0,0.0,0.0,0.0,0.0,0.0,0.0,0.0,0.00580708634765,-0.0138515409309,-0.0030348700909,0.0,0.0,0.0,0.0,0.0,0.0,0.0,0.0,0.0,6.39897327129,-0.0659912990631,7.20445711162,0.0,0.0,0.0,0.0,0.0,0.0,0.0,0.0,0.0
82712000000,186,82712000000,imu_link,-0.00188765952046,-0.375903731305,0.00748457726738,0.926626571298,0.0,0.0,0.0,0.0,0.0,0.0,0.0,0.0,0.0,0.00643324492908,-0.0137852922313,-0.00318926869191,0.0,0.0,0.0,0.0,0.0,0.0,0.0,0.0,0.0,6.4011504228,-0.0656901206362,7.20089625206,0.0,0.0,0.0,0.0,0.0,0.0,0.0,0.0,0.0
82716000000,187,82716000000,imu_link,-0.00187248114301,-0.375928564928,0.00748364102622,0.926616535036,0.0,0.0,0.0,0.0,0.0,0.0,0.0,0.0,0.0,0.00675396855213,-0.0134479998893,-0.00327245745088,0.0,0.0,0.0,0.0,0.0,0.0,0.0,0.0,0.0,6.40365667584,-0.0656047773278,7.19772973993,0.0,0.0,0.0,0.0,0.0,0.0,0.0,0.0,0.0
82720000000,188,82720000000,imu_link,-0.00185708625417,-0.375952567434,0.007482728981,0.926606835199,0.0,0.0,0.0,0.0,0.0,0.0,0.0,0.0,0.0,0.00686225290114,-0.013000533446,-0.00330242439523,0.0,0.0,0.0,0.0,0.0,0.0,0.0,0.0,0.0,6.40446791882,-0.0656957712978,7.19396372408,0.0,0.0,0.0,0.0,0.0,0.0,0.0,0.0,0.0
82724000000,189,82724000000,imu_link,-0.00184179872281,-0.375975866778,0.00748178677565,0.926597419727,0.0,0.0,0.0,0.0,0.0,0.0,0.0,0.0,0.0,0.00680973925745,-0.0126208725511,-0.00329662802723,0.0,0.0,0.0,0.0,0.0,0.0,0.0,0.0,0.0,6.40510268499,-0.0658438703878,7.19254580986,0.0,0.0,0.0,0.0,0.0,0.0,0.0,0.0,0.0
82728000000,190,82728000000,imu_link,-0.00182699486639,-0.375998726927,0.00748081802988,0.926588180801,0.0,0.0,0.0,0.0,0.0,0.0,0.0,0.0,0.0,0.00658246957124,-0.0123823715016,-0.0032182551033,0.0,0.0,0.0,0.0,0.0,0.0,0.0,0.0,0.0,6.40647440988,-0.0659969220254,7.19370394649,0.0,0.0,0.0,0.0,0.0,0.0,0.0,0.0,0.0
82732000000,191,82732000000,imu_link,-0.00181318158015,-0.376021156494,0.00747980908679,0.926579114106,0.0,0.0,0.0,0.0,0.0,0.0,0.0,0.0,0.0,0.0061177550716,-0.0121467643243,-0.00305090259348,0.0,0.0,0.0,0.0,0.0,0.0,0.0,0.0,0.0,6.40673790379,-0.0661475774879,7.19055761027,0.0,0.0,0.0,0.0,0.0,0.0,0.0,0.0,0.0
82736000000,192,82736000000,imu_link,-0.00180072823671,-0.376043257193,0.00747873157357,0.926570177953,0.0,0.0,0.0,0.0,0.0,0.0,0.0,0.0,0.0,0.00547616414052,-0.0119647120134,-0.0028271768562,0.0,0.0,0.0,0.0,0.0,0.0,0.0,0.0,0.0,6.40795312404,-0.0664115421667,7.18979352362,0.0,0.0,0.0,0.0,0.0,0.0,0.0,0.0,0.0
82740000000,193,82740000000,imu_link,-0.00178988987439,-0.376065278115,0.00747752924119,0.926561271286,0.0,0.0,0.0,0.0,0.0,0.0,0.0,0.0,0.0,0.00470482363511,-0.0119160571188,-0.00258139076339,0.0,0.0,0.0,0.0,0.0,0.0,0.0,0.0,0.0,6.40853035574,-0.0667307472939,7.18870311765,0.0,0.0,0.0,0.0,0.0,0.0,0.0,0.0,0.0
82744000000,194,82744000000,imu_link,-0.00178077296393,-0.376087356291,0.00747616818417,0.926552338616,0.0,0.0,0.0,0.0,0.0,0.0,0.0,0.0,0.0,0.00387722558261,-0.0119408927406,-0.00233118969402,0.0,0.0,0.0,0.0,0.0,0.0,0.0,0.0,0.0,6.41004678423,-0.0670920337357,7.18881519275,0.0,0.0,0.0,0.0,0.0,0.0,0.0,0.0,0.0
82748000000,195,82748000000,imu_link,-0.00177328347585,-0.376109402236,0.0074746664972,0.926543416347,0.0,0.0,0.0,0.0,0.0,0.0,0.0,0.0,0.0,0.00309696474565,-0.0119177961294,-0.00209032389597,0.0,0.0,0.0,0.0,0.0,0.0,0.0,0.0,0.0,6.41032543201,-0.067469596153,7.18446350841,0.0,0.0,0.0,0.0,0.0,0.0,0.0,0.0,0.0
82752000000,196,82752000000,imu_link,-0.0017672110279,-0.376131074634,0.0074730790501,0.926534643038,0.0,0.0,0.0,0.0,0.0,0.0,0.0,0.0,0.0,0.00242589068401,-0.0117113585269,-0.00186379858598,0.0,0.0,0.0,0.0,0.0,0.0,0.0,0.0,0.0,6.41175641422,-0.067832901525,7.18009601329,0.0,0.0,0.0,0.0,0.0,0.0,0.0,0.0,0.0
82756000000,197,82756000000,imu_link,-0.00176199539854,-0.376152249287,0.00747153228234,0.926526069214,0.0,0.0,0.0,0.0,0.0,0.0,0.0,0.0,0.0,0.00203864113355,-0.011440086986,-0.00168412070533,0.0,0.0,0.0,0.0,0.0,0.0,0.0,0.0,0.0,6.41434473714,-0.0682220981851,7.17982726258,0.0,0.0,0.0,0.0,0.0,0.0,0.0,0.0,0.0
82760000000,198,82760000000,imu_link,-0.00175690052196,-0.376173174739,0.00747017221934,0.926517594239,0.0,0.0,0.0,0.0,0.0,0.0,0.0,0.0,0.0,0.0020188335742,-0.0113057642888,-0.00157506630578,0.0,0.0,0.0,0.0,0.0,0.0,0.0,0.0,0.0,6.41712692958,-0.0686363827616,7.1833961167,0.0,0.0,0.0,0.0,0.0,0.0,0.0,0.0,0.0
82764000000,199,82764000000,imu_link,-0.00175129578036,-0.376194533231,0.00746913527498,0.926508941213,0.0,0.0,0.0,0.0,0.0,0.0,0.0,0.0,0.0,0.00231403346932,-0.0115420504115,-0.00152099289188,0.0,0.0,0.0,0.0,0.0,0.0,0.0,0.0,0.0,6.41979224874,-0.0689889016062,7.19030501286,0.0,0.0,0.0,0.0,0.0,0.0,0.0,0.0,0.0
82768000000,200,82768000000,imu_link,-0.00174512706722,-0.376217295964,0.00746842263454,0.926499715819,0.0,0.0,0.0,0.0,0.0,0.0,0.0,0.0,0.0,0.00263055105835,-0.0123026230307,-0.00147593123164,0.0,0.0,0.0,0.0,0.0,0.0,0.0,0.0,0.0,6.42262924986,-0.0691189499197,7.19967152891,0.0,0.0,0.0,0.0,0.0,0.0,0.0,0.0,0.0
82772000000,201,82772000000,imu_link,-0.00173876168925,-0.376242046592,0.00746793819656,0.926489680991,0.0,0.0,0.0,0.0,0.0,0.0,0.0,0.0,0.0,0.00275645336672,-0.0133767095777,-0.00140592279605,0.0,0.0,0.0,0.0,0.0,0.0,0.0,0.0,0.0,6.42456366413,-0.0691207122877,7.2039870224,0.0,0.0,0.0,0.0,0.0,0.0,0.0,0.0,0.0
82776000000,202,82776000000,imu_link,-0.00173246357205,-0.376268974373,0.00746762090655,0.926478759677,0.0,0.0,0.0,0.0,0.0,0.0,0.0,0.0,0.0,0.00274783909811,-0.0145519253036,-0.00131442186495,0.0,0.0,0.0,0.0,0.0,0.0,0.0,0.0,0.0,6.42567906494,-0.0691506026317,7.20339722207,0.0,0.0,0.0,0.0,0.0,0.0,0.0,0.0,0.0
82780000000,203,82780000000,imu_link,-0.00172635654152,-0.376297751738,0.0074674581196,0.926467084574,0.0,0.0,0.0,0.0,0.0,0.0,0.0,0.0,0.0,0.00268082862349,-0.0155499596958,-0.00120568762888,0.0,0.0,0.0,0.0,0.0,0.0,0.0,0.0,0.0,6.42564504534,-0.0692214349566,7.19630075368,0.0,0.0,0.0,0.0,0.0,0.0,0.0,0.0,0.0
82784000000,204,82784000000,imu_link,-0.00172031439952,-0.376327707315,0.00746748737989,0.926454928131,0.0,0.0,0.0,0.0,0.0,0.0,0.0,0.0,0.0,0.00268208895025,-0.016186234182,-0.001103736018,0.0,0.0,0.0,0.0,0.0,0.0,0.0,0.0,0.0,6.42787187047,-0.069390107481,7.19037351392,0.0,0.0,0.0,0.0,0.0,0.0,0.0,0.0,0.0
82788000000,205,82788000000,imu_link,-0.00171413339389,-0.376358040247,0.0074677507278,0.926442615593,0.0,0.0,0.0,0.0,0.0,0.0,0.0,0.0,0.0,0.00278891801028,-0.016391126673,-0.00102117108374,0.0,0.0,0.0,0.0,0.0,0.0,0.0,0.0,0.0,6.43090019423,-0.0695532952342,7.18554095429,0.0,0.0,0.0,0.0,0.0,0.0,0.0,0.0,0.0
82792000000,206,82792000000,imu_link,-0.00170772164666,-0.376388238878,0.00746826131378,0.926430354854,0.0,0.0,0.0,0.0,0.0,0.0,0.0,0.0,0.0,0.00294287331138,-0.0163202414265,-0.000950144170103,0.0,0.0,0.0,0.0,0.0,0.0,0.0,0.0,0.0,6.43261949737,-0.0696620443723,7.18099609605,0.0,0.0,0.0,0.0,0.0,0.0,0.0,0.0,0.0
82796000000,207,82796000000,imu_link,-0.00170111376614,-0.376417992717,0.00746899252206,0.92641827223,0.0,0.0,0.0,0.0,0.0,0.0,0.0,0.0,0.0,0.00307705804461,-0.0160816077728,-0.000885145027795,0.0,0.0,0.0,0.0,0.0,0.0,0.0,0.0,0.0,6.43388304655,-0.0697119568989,7.1770268491,0.0,0.0,0.0,0.0,0.0,0.0,0.0,0.0,0.0
82800000000,208,82800000000,imu_link,-0.00169456129054,-0.376447158597,0.00746989717894,0.926406425864,0.0,0.0,0.0,0.0,0.0,0.0,0.0,0.0,0.0,0.00308643524846,-0.01576473431,-0.000794756554781,0.0,0.0,0.0,0.0,0.0,0.0,0.0,0.0,0.0,6.43519102987,-0.0697327901814,7.17458394104,0.0,0.0,0.0,0.0,0.0,0.0,0.0,0.0,0.0
82804000000,209,82804000000,imu_link,-0.00168833866651,-0.376475618749,0.00747092896082,0.926394863555,0.0,0.0,0.0,0.0,0.0,0.0,0.0,0.0,0.0,0.00296045140168,-0.0153832483349,-0.000674248993408,0.0,0.0,0.0,0.0,0.0,0.0,0.0,0.0,0.0,6.43599468155,-0.0698093043282,7.17127640341,0.0,0.0,0.0,0.0,0.0,0.0,0.0,0.0,0.0
82808000000,210,82808000000,imu_link,-0.00168249900835,-0.376503085951,0.00747203284745,0.926383702464,0.0,0.0,0.0,0.0,0.0,0.0,0.0,0.0,0.0,0.00280068325546,-0.0148464224095,-0.000569422119484,0.0,0.0,0.0,0.0,0.0,0.0,0.0,0.0,0.0,6.43783473452,-0.0700154763893,7.16916565266,0.0,0.0,0.0,0.0,0.0,0.0,0.0,0.0,0.0
82812000000,211,82812000000,imu_link,-0.00167688537855,-0.376529313726,0.00747314789127,0.926373043661,0.0,0.0,0.0,0.0,0.0,0.0,0.0,0.0,0.0,0.00270314218934,-0.014176938669,-0.000522537898572,0.0,0.0,0.0,0.0,0.0,0.0,0.0,0.0,0.0,6.43872076457,-0.0703169427109,7.16559541219,0.0,0.0,0.0,0.0,0.0,0.0,0.0,0.0,0.0
82816000000,212,82816000000,imu_link,-0.00167102909127,-0.376554237383,0.00747424686026,0.926362914631,0.0,0.0,0.0,0.0,0.0,0.0,0.0,0.0,0.0,0.00281782865945,-0.0134740440546,-0.000576553481563,0.0,0.0,0.0,0.0,0.0,0.0,0.0,0.0,0.0,6.43988925447,-0.0706186484767,7.16450563294,0.0,0.0,0.0,0.0,0.0,0.0,0.0,0.0,0.0
82820000000,213,82820000000,imu_link,-0.00166463962866,-0.376578119004,0.00747532076349,0.926353209549,0.0,0.0,0.0,0.0,0.0,0.0,0.0,0.0,0.0,0.00306431470601,-0.0129135441991,-0.000689261896356,0.0,0.0,0.0,0.0,0.0,0.0,0.0,0.0,0.0,6.44100361328,-0.0707457597824,7.16590292693,0.0,0.0,0.0,0.0,0.0,0.0,0.0,0.0,0.0
82824000000,214,82824000000,imu_link,-0.00165777567005,-0.376601456817,0.00747636675279,0.926343725862,0.0,0.0,0.0,0.0,0.0,0.0,0.0,0.0,0.0,0.00328105110917,-0.0126217294539,-0.000791908264648,0.0,0.0,0.0,0.0,0.0,0.0,0.0,0.0,0.0,6.44235954724,-0.0707429730803,7.16937415813,0.0,0.0,0.0,0.0,0.0,0.0,0.0,0.0,0.0
82828000000,215,82828000000,imu_link,-0.0016508160173,-0.37662464117,0.00747738475285,0.926334304227,0.0,0.0,0.0,0.0,0.0,0.0,0.0,0.0,0.0,0.00332072863862,-0.0125393013136,-0.000822996123393,0.0,0.0,0.0,0.0,0.0,0.0,0.0,0.0,0.0,6.44394126495,-0.070726012012,7.17204757649,0.0,0.0,0.0,0.0,0.0,0.0,0.0,0.0,0.0
82832000000,216,82832000000,imu_link,-0.00164423334672,-0.376647701528,0.007478375529,0.92632493183,0.0,0.0,0.0,0.0,0.0,0.0,0.0,0.0,0.0,0.00314150050624,-0.01247116644,-0.000764696701408,0.0,0.0,0.0,0.0,0.0,0.0,0.0,0.0,0.0,6.44485155826,-0.0707385789444,7.1705339635,0.0,0.0,0.0,0.0,0.0,0.0,0.0,0.0,0.0
82836000000,217,82836000000,imu_link,-0.00163820547433,-0.376670670947,0.00747934443614,0.926315594891,0.0,0.0,0.0,0.0,0.0,0.0,0.0,0.0,0.0,0.00288078954323,-0.0124202769205,-0.000670401693847,0.0,0.0,0.0,0.0,0.0,0.0,0.0,0.0,0.0,6.44520782107,-0.0708606228874,7.16789171991,0.0,0.0,0.0,0.0,0.0,0.0,0.0,0.0,0.0
82840000000,218,82840000000,imu_link,-0.00163276602335,-0.376693335667,0.00748033143957,0.926306379974,0.0,0.0,0.0,0.0,0.0,0.0,0.0,0.0,0.0,0.00261290516854,-0.0122539865117,-0.000551406455195,0.0,0.0,0.0,0.0,0.0,0.0,0.0,0.0,0.0,6.4463091371,-0.071020858848,7.16432234718,0.0,0.0,0.0,0.0,0.0,0.0,0.0,0.0,0.0
82844000000,219,82844000000,imu_link,-0.00162772737835,-0.376715407825,0.00748139069566,0.926297404079,0.0,0.0,0.0,0.0,0.0,0.0,0.0,0.0,0.0,0.00244329056174,-0.0119330804538,-0.000442862162512,0.0,0.0,0.0,0.0,0.0,0.0,0.0,0.0,0.0,6.44756530112,-0.0712176816344,7.16047610611,0.0,0.0,0.0,0.0,0.0,0.0,0.0,0.0,0.0
82848000000,220,82848000000,imu_link,-0.00162316313155,-0.376736674714,0.00748252451275,0.926288753626,0.0,0.0,0.0,0.0,0.0,0.0,0.0,0.0,0.0,0.00224089492709,-0.011497107845,-0.000319534770614,0.0,0.0,0.0,0.0,0.0,0.0,0.0,0.0,0.0,6.44912761715,-0.0713304796788,7.15802541438,0.0,0.0,0.0,0.0,0.0,0.0,0.0,0.0,0.0
82852000000,221,82852000000,imu_link,-0.0016194221838,-0.376757121641,0.00748366963913,0.926280434563,0.0,0.0,0.0,0.0,0.0,0.0,0.0,0.0,0.0,0.00186505555272,-0.0110518523108,-0.000159787817923,0.0,0.0,0.0,0.0,0.0,0.0,0.0,0.0,0.0,6.44942507183,-0.0714706667974,7.15493711774,0.0,0.0,0.0,0.0,0.0,0.0,0.0,0.0,0.0
82856000000,222,82856000000,imu_link,-0.00161678960483,-0.37677695959,0.00748475521553,0.926272361216,0.0,0.0,0.0,0.0,0.0,0.0,0.0,0.0,0.0,0.00134298510855,-0.0107193271365,2.09987777097e-05,0.0,0.0,0.0,0.0,0.0,0.0,0.0,0.0,0.0,6.45055050295,-0.0717743515158,7.15557957094,0.0,0.0,0.0,0.0,0.0,0.0,0.0,0.0,0.0
82860000000,223,82860000000,imu_link,-0.00161534645328,-0.376796567687,0.00748571854616,0.926264379782,0.0,0.0,0.0,0.0,0.0,0.0,0.0,0.0,0.0,0.000770023037442,-0.0105910088705,0.000188298596068,0.0,0.0,0.0,0.0,0.0,0.0,0.0,0.0,0.0,6.45260515023,-0.0721106733691,7.15913339734,0.0,0.0,0.0,0.0,0.0,0.0,0.0,0.0,0.0
82864000000,224,82864000000,imu_link,-0.00161460740821,-0.376816181341,0.00748658430083,0.926256395162,0.0,0.0,0.0,0.0,0.0,0.0,0.0,0.0,0.0,0.000425522146269,-0.0105914688639,0.000275767918845,0.0,0.0,0.0,0.0,0.0,0.0,0.0,0.0,0.0,6.45525436149,-0.0724817059967,7.16278408014,0.0,0.0,0.0,0.0,0.0,0.0,0.0,0.0,0.0
82868000000,225,82868000000,imu_link,-0.00161399312919,-0.376836018518,0.00748742318936,0.926248319117,0.0,0.0,0.0,0.0,0.0,0.0,0.0,0.0,0.0,0.000361767147443,-0.0107117249519,0.00028699416462,0.0,0.0,0.0,0.0,0.0,0.0,0.0,0.0,0.0,6.45706106078,-0.0727277583515,7.16446183492,0.0,0.0,0.0,0.0,0.0,0.0,0.0,0.0,0.0
82872000000,226,82872000000,imu_link,-0.00161299783234,-0.376856175554,0.00748830954852,0.926240112716,0.0,0.0,0.0,0.0,0.0,0.0,0.0,0.0,0.0,0.000545867380515,-0.0108858854848,0.0002374182295,0.0,0.0,0.0,0.0,0.0,0.0,0.0,0.0,0.0,6.45809592308,-0.072873783352,7.16354082496,0.0,0.0,0.0,0.0,0.0,0.0,0.0,0.0,0.0
82876000000,227,82876000000,imu_link,-0.00161151344819,-0.376876526586,0.00748925168165,0.926231827267,0.0,0.0,0.0,0.0,0.0,0.0,0.0,0.0,0.0,0.000782092797495,-0.0109924997001,0.000171229999697,0.0,0.0,0.0,0.0,0.0,0.0,0.0,0.0,0.0,6.45784950655,-0.0728858138659,7.15809185111,0.0,0.0,0.0,0.0,0.0,0.0,0.0,0.0,0.0
82880000000,228,82880000000,imu_link,-0.00160964063664,-0.376896818722,0.00749021854207,0.926223565734,0.0,0.0,0.0,0.0,0.0,0.0,0.0,0.0,0.0,0.000966879083622,-0.010962192471,0.000109444916618,0.0,0.0,0.0,0.0,0.0,0.0,0.0,0.0,0.0,6.45984438342,-0.0728696489274,7.15626110987,0.0,0.0,0.0,0.0,0.0,0.0,0.0,0.0,0.0
82884000000,229,82884000000,imu_link,-0.0016074585448,-0.376916790504,0.00749116247541,0.926215434766,0.0,0.0,0.0,0.0,0.0,0.0,0.0,0.0,0.0,0.00110709471184,-0.0107903672793,4.03125862657e-05,0.0,0.0,0.0,0.0,0.0,0.0,0.0,0.0,0.0,6.46078933458,-0.0728550667875,7.15216656646,0.0,0.0,0.0,0.0,0.0,0.0,0.0,0.0,0.0
82888000000,230,82888000000,imu_link,-0.00160486877495,-0.376936262506,0.00749206906417,0.926207507692,0.0,0.0,0.0,0.0,0.0,0.0,0.0,0.0,0.0,0.00129089148261,-0.010521986463,-5.41743410591e-05,0.0,0.0,0.0,0.0,0.0,0.0,0.0,0.0,0.0,6.46309617277,-0.0729004671349,7.15152331656,0.0,0.0,0.0,0.0,0.0,0.0,0.0,0.0,0.0
82892000000,231,82892000000,imu_link,-0.0016016733185,-0.37695512311,0.00749294590398,0.926199830255,0.0,0.0,0.0,0.0,0.0,0.0,0.0,0.0,0.0,0.00156827112157,-0.0101940429402,-0.000182548352446,0.0,0.0,0.0,0.0,0.0,0.0,0.0,0.0,0.0,6.46345411442,-0.0729136003156,7.14750996228,0.0,0.0,0.0,0.0,0.0,0.0,0.0,0.0,0.0
82896000000,232,82896000000,imu_link,-0.0015976918526,-0.376973267487,0.0074938187547,0.926192445263,0.0,0.0,0.0,0.0,0.0,0.0,0.0,0.0,0.0,0.00193443770785,-0.00981017999327,-0.000333062898006,0.0,0.0,0.0,0.0,0.0,0.0,0.0,0.0,0.0,6.46538034654,-0.0729596111523,7.14679136506,0.0,0.0,0.0,0.0,0.0,0.0,0.0,0.0,0.0
82900000000,233,82900000000,imu_link,-0.00159297670283,-0.37699066171,0.00749470489426,0.926185366332,0.0,0.0,0.0,0.0,0.0,0.0,0.0,0.0,0.0,0.00227976395611,-0.00940785828989,-0.000465746015763,0.0,0.0,0.0,0.0,0.0,0.0,0.0,0.0,0.0,6.46638827371,-0.0729771036471,7.14516700465,0.0,0.0,0.0,0.0,0.0,0.0,0.0,0.0,0.0
82904000000,234,82904000000,imu_link,-0.00158787627493,-0.377007614241,0.0074955919459,0.926178467443,0.0,0.0,0.0,0.0,0.0,0.0,0.0,0.0,0.0,0.00246015393842,-0.00917082102914,-0.000538269646258,0.0,0.0,0.0,0.0,0.0,0.0,0.0,0.0,0.0,6.46916312914,-0.0729926630885,7.14966698814,0.0,0.0,0.0,0.0,0.0,0.0,0.0,0.0,0.0
82908000000,235,82908000000,imu_link,-0.00158304612953,-0.377024521504,0.00749643835371,0.926171586458,0.0,0.0,0.0,0.0,0.0,0.0,0.0,0.0,0.0,0.00232751138111,-0.00914543749491,-0.000506173246184,0.0,0.0,0.0,0.0,0.0,0.0,0.0,0.0,0.0,6.47214015584,-0.0729399894643,7.15579587515,0.0,0.0,0.0,0.0,0.0,0.0,0.0,0.0,0.0
82912000000,236,82912000000,imu_link,-0.00157905077982,-0.37704198587,0.00749721179351,0.926164477458,0.0,0.0,0.0,0.0,0.0,0.0,0.0,0.0,0.0,0.00192490536839,-0.00944322104842,-0.000382180780704,0.0,0.0,0.0,0.0,0.0,0.0,0.0,0.0,0.0,6.47459025456,-0.0729575716259,7.16234031472,0.0,0.0,0.0,0.0,0.0,0.0,0.0,0.0,0.0
82916000000,237,82916000000,imu_link,-0.00157606775504,-0.377060339839,0.00749786415787,0.926157005137,0.0,0.0,0.0,0.0,0.0,0.0,0.0,0.0,0.0,0.00142966878252,-0.00991978382127,-0.000246744583293,0.0,0.0,0.0,0.0,0.0,0.0,0.0,0.0,0.0,6.47529451986,-0.0731010403872,7.16290115231,0.0,0.0,0.0,0.0,0.0,0.0,0.0,0.0,0.0
82920000000,238,82920000000,imu_link,-0.00157406881663,-0.377079582446,0.00749837458725,0.926149170052,0.0,0.0,0.0,0.0,0.0,0.0,0.0,0.0,0.0,0.000943583203004,-0.0103958838005,-0.000126281950931,0.0,0.0,0.0,0.0,0.0,0.0,0.0,0.0,0.0,6.47573946621,-0.073322274457,7.15985654759,0.0,0.0,0.0,0.0,0.0,0.0,0.0,0.0,0.0
82924000000,239,82924000000,imu_link,-0.00157296541215,-0.377099805826,0.00749874472028,0.926140934768,0.0,0.0,0.0,0.0,0.0,0.0,0.0,0.0,0.0,0.000498440689483,-0.0109220399892,-2.16773253228e-05,0.0,0.0,0.0,0.0,0.0,0.0,0.0,0.0,0.0,6.47643460671,-0.0735410451023,7.15815222938,0.0,0.0,0.0,0.0,0.0,0.0,0.0,0.0,0.0
82928000000,240,82928000000,imu_link,-0.00157272363707,-0.377121489028,0.00749900251642,0.926132103976,0.0,0.0,0.0,0.0,0.0,0.0,0.0,0.0,0.0,7.23226709435e-05,-0.011707004632,8.98475775315e-05,0.0,0.0,0.0,0.0,0.0,0.0,0.0,0.0,0.0,6.47849915334,-0.0737533224953,7.16225702595,0.0,0.0,0.0,0.0,0.0,0.0,0.0,0.0,0.0
82932000000,241,82932000000,imu_link,-0.00157333753685,-0.377144898834,0.00749913768688,0.926122569008,0.0,0.0,0.0,0.0,0.0,0.0,0.0,0.0,0.0,-0.000354061335396,-0.012636011514,0.000195693048466,0.0,0.0,0.0,0.0,0.0,0.0,0.0,0.0,0.0,6.4789373327,-0.0739174448683,7.1611688879,0.0,0.0,0.0,0.0,0.0,0.0,0.0,0.0,0.0
82936000000,242,82936000000,imu_link,-0.00157481786035,-0.377169963906,0.00749914103533,0.92611235882,0.0,0.0,0.0,0.0,0.0,0.0,0.0,0.0,0.0,-0.000786864326802,-0.0135264768385,0.000299264657494,0.0,0.0,0.0,0.0,0.0,0.0,0.0,0.0,0.0,6.47956405497,-0.0740711659896,7.15759037141,0.0,0.0,0.0,0.0,0.0,0.0,0.0,0.0,0.0
82940000000,243,82940000000,imu_link,-0.00157733057544,-0.377196375222,0.00749898150059,0.926101599083,0.0,0.0,0.0,0.0,0.0,0.0,0.0,0.0,0.0,-0.00130111750864,-0.0142495004878,0.000419534672927,0.0,0.0,0.0,0.0,0.0,0.0,0.0,0.0,0.0,6.48043213703,-0.0741807171596,7.15269100989,0.0,0.0,0.0,0.0,0.0,0.0,0.0,0.0,0.0
82944000000,244,82944000000,imu_link,-0.00158120093903,-0.377223699826,0.00749862605899,0.926090465722,0.0,0.0,0.0,0.0,0.0,0.0,0.0,0.0,0.0,-0.0019704444422,-0.0147376193604,0.000585550510151,0.0,0.0,0.0,0.0,0.0,0.0,0.0,0.0,0.0,6.48331000434,-0.0743482967517,7.15104402869,0.0,0.0,0.0,0.0,0.0,0.0,0.0,0.0,0.0
82948000000,245,82948000000,imu_link,-0.00158660627086,-0.377251749543,0.00749806745545,0.926079035035,0.0,0.0,0.0,0.0,0.0,0.0,0.0,0.0,0.0,-0.00272247666301,-0.0151235431464,0.000781532031486,0.0,0.0,0.0,0.0,0.0,0.0,0.0,0.0,0.0,6.48505646873,-0.0746221915402,7.14932508164,0.0,0.0,0.0,0.0,0.0,0.0,0.0,0.0,0.0
82952000000,246,82952000000,imu_link,-0.00159353751287,-0.377280204417,0.00749731548148,0.926067437206,0.0,0.0,0.0,0.0,0.0,0.0,0.0,0.0,0.0,-0.00346715958163,-0.0153367997549,0.000980125233302,0.0,0.0,0.0,0.0,0.0,0.0,0.0,0.0,0.0,6.48586221036,-0.0749014297686,7.14438855655,0.0,0.0,0.0,0.0,0.0,0.0,0.0,0.0,0.0
82956000000,247,82956000000,imu_link,-0.00160186219794,-0.377308778475,0.00749637990716,0.926055788822,0.0,0.0,0.0,0.0,0.0,0.0,0.0,0.0,0.0,-0.00414749215231,-0.0153961525521,0.00115806587515,0.0,0.0,0.0,0.0,0.0,0.0,0.0,0.0,0.0,6.48659009361,-0.075141308362,7.14001570513,0.0,0.0,0.0,0.0,0.0,0.0,0.0,0.0,0.0
82960000000,248,82960000000,imu_link,-0.00161115064088,-0.377337281435,0.00749526491311,0.926044168081,0.0,0.0,0.0,0.0,0.0,0.0,0.0,0.0,0.0,-0.00462729862513,-0.0153542618166,0.00125676002035,0.0,0.0,0.0,0.0,0.0,0.0,0.0,0.0,0.0,6.4872416168,-0.0753535154865,7.13685597146,0.0,0.0,0.0,0.0,0.0,0.0,0.0,0.0,0.0
82964000000,249,82964000000,imu_link,-0.00162079270682,-0.377365513742,0.00749400419945,0.926032657076,0.0,0.0,0.0,0.0,0.0,0.0,0.0,0.0,0.0,-0.00481742389122,-0.0152067964586,0.00125581297708,0.0,0.0,0.0,0.0,0.0,0.0,0.0,0.0,0.0,6.4895529825,-0.0755587324922,7.1367027954,0.0,0.0,0.0,0.0,0.0,0.0,0.0,0.0,0.0
82968000000,250,82968000000,imu_link,-0.00163023020326,-0.377393162238,0.0074926711068,0.926021383838,0.0,0.0,0.0,0.0,0.0,0.0,0.0,0.0,0.0,-0.00473398131158,-0.0148923279781,0.00118328378728,0.0,0.0,0.0,0.0,0.0,0.0,0.0,0.0,0.0,6.49128581442,-0.0756770703894,7.13459850586,0.0,0.0,0.0,0.0,0.0,0.0,0.0,0.0,0.0
82972000000,251,82972000000,imu_link,-0.0016391522083,-0.377419989589,0.00749132223654,0.92601044526,0.0,0.0,0.0,0.0,0.0,0.0,0.0,0.0,0.0,-0.00449493139674,-0.0144508984862,0.00107812270312,0.0,0.0,0.0,0.0,0.0,0.0,0.0,0.0,0.0,6.49171385708,-0.0756763443914,7.13041464379,0.0,0.0,0.0,0.0,0.0,0.0,0.0,0.0,0.0
82976000000,252,82976000000,imu_link,-0.00164732111013,-0.377445792209,0.00749000329955,0.925999924475,0.0,0.0,0.0,0.0,0.0,0.0,0.0,0.0,0.0,-0.00413641126077,-0.0139004463846,0.000949138792231,0.0,0.0,0.0,0.0,0.0,0.0,0.0,0.0,0.0,6.49228095837,-0.0756030007315,7.12658160613,0.0,0.0,0.0,0.0,0.0,0.0,0.0,0.0,0.0
82980000000,253,82980000000,imu_link,-0.00165458180968,-0.377470574792,0.00748873675301,0.925989819786,0.0,0.0,0.0,0.0,0.0,0.0,0.0,0.0,0.0,-0.00370186359609,-0.0133530864701,0.000801278888262,0.0,0.0,0.0,0.0,0.0,0.0,0.0,0.0,0.0,6.49197335908,-0.0754915682806,7.12312014238,0.0,0.0,0.0,0.0,0.0,0.0,0.0,0.0,0.0
82984000000,254,82984000000,imu_link,-0.00166071872726,-0.377494409787,0.00748751383302,0.925980102232,0.0,0.0,0.0,0.0,0.0,0.0,0.0,0.0,0.0,-0.00316945600214,-0.0128455361767,0.000608714798438,0.0,0.0,0.0,0.0,0.0,0.0,0.0,0.0,0.0,6.49298534709,-0.0753612531543,7.12260410232,0.0,0.0,0.0,0.0,0.0,0.0,0.0,0.0,0.0
82988000000,255,82988000000,imu_link,-0.00166566921346,-0.377517476414,0.00748628501877,0.925970699366,0.0,0.0,0.0,0.0,0.0,0.0,0.0,0.0,0.0,-0.00261812471772,-0.0124348296505,0.000381510111274,0.0,0.0,0.0,0.0,0.0,0.0,0.0,0.0,0.0,6.49439554382,-0.0752334587501,7.12371633041,0.0,0.0,0.0,0.0,0.0,0.0,0.0,0.0,0.0
82992000000,256,82992000000,imu_link,-0.00166944348084,-0.377539800706,0.00748502596497,0.925961600839,0.0,0.0,0.0,0.0,0.0,0.0,0.0,0.0,0.0,-0.00207622848472,-0.0120380704606,0.000144967131811,0.0,0.0,0.0,0.0,0.0,0.0,0.0,0.0,0.0,6.49359414758,-0.075112794525,7.11893576193,0.0,0.0,0.0,0.0,0.0,0.0,0.0,0.0,0.0
82996000000,257,82996000000,imu_link,-0.00167224112747,-0.377561208272,0.0074837369457,0.925952877472,0.0,0.0,0.0,0.0,0.0,0.0,0.0,0.0,0.0,-0.00162598439535,-0.0115464551809,-5.39017494738e-05,0.0,0.0,0.0,0.0,0.0,0.0,0.0,0.0,0.0,6.49478400176,-0.0749641813299,7.11654632591,0.0,0.0,0.0,0.0,0.0,0.0,0.0,0.0,0.0
83000000000,258,83000000000,imu_link,-0.00167430514395,-0.377581516637,0.00748238496688,0.925944603587,0.0,0.0,0.0,0.0,0.0,0.0,0.0,0.0,0.0,-0.00129372757637,-0.0109553897075,-0.000222308512361,0.0,0.0,0.0,0.0,0.0,0.0,0.0,0.0,0.0,6.49585241584,-0.0747794207393,7.11433947379,0.0,0.0,0.0,0.0,0.0,0.0,0.0,0.0,0.0
83004000000,259,83004000000,imu_link,-0.00167578324302,-0.377600748914,0.00748090762222,0.925936770083,0.0,0.0,0.0,0.0,0.0,0.0,0.0,0.0,0.0,-0.00104173743487,-0.0103761382029,-0.000391711915267,0.0,0.0,0.0,0.0,0.0,0.0,0.0,0.0,0.0,6.49693239557,-0.074578355457,7.11395427007,0.0,0.0,0.0,0.0,0.0,0.0,0.0,0.0,0.0
83008000000,260,83008000000,imu_link,-0.0016767702561,-0.377619275728,0.00747926517743,0.925929226039,0.0,0.0,0.0,0.0,0.0,0.0,0.0,0.0,0.0,-0.000842669827575,-0.00999657942431,-0.000561356885227,0.0,0.0,0.0,0.0,0.0,0.0,0.0,0.0,0.0,6.49844042453,-0.0744445449412,7.11738622028,0.0,0.0,0.0,0.0,0.0,0.0,0.0,0.0,0.0
83012000000,261,83012000000,imu_link,-0.00167744141533,-0.377637763019,0.00747740539176,0.925921700005,0.0,0.0,0.0,0.0,0.0,0.0,0.0,0.0,0.0,-0.000737313818994,-0.00997588005038,-0.000721648493295,0.0,0.0,0.0,0.0,0.0,0.0,0.0,0.0,0.0,6.50106892792,-0.0743640400883,7.12481630393,0.0,0.0,0.0,0.0,0.0,0.0,0.0,0.0,0.0
83016000000,262,83016000000,imu_link,-0.00167810018032,-0.377656737815,0.00747529161091,0.92591397677,0.0,0.0,0.0,0.0,0.0,0.0,0.0,0.0,0.0,-0.000781522898209,-0.0102386444509,-0.000841250186313,0.0,0.0,0.0,0.0,0.0,0.0,0.0,0.0,0.0,6.50289966093,-0.0742838996135,7.12951352532,0.0,0.0,0.0,0.0,0.0,0.0,0.0,0.0,0.0
83020000000,263,83020000000,imu_link,-0.00167911526226,-0.377676289609,0.00747289539723,0.925906019353,0.0,0.0,0.0,0.0,0.0,0.0,0.0,0.0,0.0,-0.0010021667459,-0.0105484209483,-0.000904330527448,0.0,0.0,0.0,0.0,0.0,0.0,0.0,0.0,0.0,6.50469543506,-0.0742281906875,7.13032243375,0.0,0.0,0.0,0.0,0.0,0.0,0.0,0.0,0.0
83024000000,264,83024000000,imu_link,-0.00168097258034,-0.37769614891,0.00747018431793,0.925897937019,0.0,0.0,0.0,0.0,0.0,0.0,0.0,0.0,0.0,-0.0014527950106,-0.0107109604982,-0.000890843632229,0.0,0.0,0.0,0.0,0.0,0.0,0.0,0.0,0.0,6.50678317815,-0.0742088705988,7.1287509394,0.0,0.0,0.0,0.0,0.0,0.0,0.0,0.0,0.0
83028000000,265,83028000000,imu_link,-0.0016840089549,-0.377716050821,0.00746714955361,0.925889837261,0.0,0.0,0.0,0.0,0.0,0.0,0.0,0.0,0.0,-0.0020599390774,-0.0107293011385,-0.000818001464365,0.0,0.0,0.0,0.0,0.0,0.0,0.0,0.0,0.0,6.50797274843,-0.0742596961054,7.12546543128,0.0,0.0,0.0,0.0,0.0,0.0,0.0,0.0,0.0
83032000000,266,83032000000,imu_link,-0.00168830728209,-0.377735909703,0.00746380158047,0.925881754764,0.0,0.0,0.0,0.0,0.0,0.0,0.0,0.0,0.0,-0.00270313044599,-0.0107011456342,-0.000724698228952,0.0,0.0,0.0,0.0,0.0,0.0,0.0,0.0,0.0,6.50785307226,-0.0743913959072,7.12098176411,0.0,0.0,0.0,0.0,0.0,0.0,0.0,0.0,0.0
83036000000,267,83036000000,imu_link,-0.00169363776019,-0.37775588701,0.00746020788016,0.925873623514,0.0,0.0,0.0,0.0,0.0,0.0,0.0,0.0,0.0,-0.00322784838975,-0.0107611183938,-0.000643433173414,0.0,0.0,0.0,0.0,0.0,0.0,0.0,0.0,0.0,6.5085370126,-0.0746410040453,7.12029839841,0.0,0.0,0.0,0.0,0.0,0.0,0.0,0.0,0.0
83040000000,268,83040000000,imu_link,-0.00169937903881,-0.377776237959,0.00745645975588,0.925865339751,0.0,0.0,0.0,0.0,0.0,0.0,0.0,0.0,0.0,-0.00344871322616,-0.0109612340057,-0.000637078077527,0.0,0.0,0.0,0.0,0.0,0.0,0.0,0.0,0.0,6.51023171009,-0.0749565873221,7.12241697493,0.0,0.0,0.0,0.0,0.0,0.0,0.0,0.0,0.0
83044000000,269,83044000000,imu_link,-0.00170479376794,-0.377796973605,0.00745265506377,0.925856899497,0.0,0.0,0.0,0.0,0.0,0.0,0.0,0.0,0.0,-0.00330979500031,-0.0111700511787,-0.000724689930231,0.0,0.0,0.0,0.0,0.0,0.0,0.0,0.0,0.0,6.51238144176,-0.0751126758286,7.1236185779,0.0,0.0,0.0,0.0,0.0,0.0,0.0,0.0,0.0
83048000000,270,83048000000,imu_link,-0.00170966966446,-0.37781810028,0.00744880637822,0.925848300433,0.0,0.0,0.0,0.0,0.0,0.0,0.0,0.0,0.0,-0.0030702568215,-0.0113830395654,-0.000846581941537,0.0,0.0,0.0,0.0,0.0,0.0,0.0,0.0,0.0,6.51277640203,-0.0749868717573,7.12132386339,0.0,0.0,0.0,0.0,0.0,0.0,0.0,0.0,0.0
83052000000,271,83052000000,imu_link,-0.00171431359661,-0.377839480853,0.00744487702444,0.925839598226,0.0,0.0,0.0,0.0,0.0,0.0,0.0,0.0,0.0,-0.00297914765824,-0.0115208540751,-0.000927578283486,0.0,0.0,0.0,0.0,0.0,0.0,0.0,0.0,0.0,6.51226672548,-0.0747580412556,7.11603104973,0.0,0.0,0.0,0.0,0.0,0.0,0.0,0.0,0.0
83056000000,272,83056000000,imu_link,-0.00171930404139,-0.377860894071,0.00744079251531,0.925830882684,0.0,0.0,0.0,0.0,0.0,0.0,0.0,0.0,0.0,-0.00316900007399,-0.0115370632172,-0.000933918028252,0.0,0.0,0.0,0.0,0.0,0.0,0.0,0.0,0.0,6.514173921,-0.074590888567,7.11450687108,0.0,0.0,0.0,0.0,0.0,0.0,0.0,0.0,0.0
83060000000,273,83060000000,imu_link,-0.00172509170134,-0.377882020724,0.00743647902905,0.925822283838,0.0,0.0,0.0,0.0,0.0,0.0,0.0,0.0,0.0,-0.00358013758439,-0.0113791971206,-0.000889484673281,0.0,0.0,0.0,0.0,0.0,0.0,0.0,0.0,0.0,6.51643932036,-0.0745465547742,7.11314819175,0.0,0.0,0.0,0.0,0.0,0.0,0.0,0.0,0.0
83064000000,274,83064000000,imu_link,-0.00173166848644,-0.377902720507,0.00743189037896,0.925813859349,0.0,0.0,0.0,0.0,0.0,0.0,0.0,0.0,0.0,-0.00399568454333,-0.0111454794422,-0.000868043072506,0.0,0.0,0.0,0.0,0.0,0.0,0.0,0.0,0.0,6.51777374869,-0.0746245801513,7.11138124315,0.0,0.0,0.0,0.0,0.0,0.0,0.0,0.0,0.0
83068000000,275,83068000000,imu_link,-0.00173871449208,-0.377922863828,0.00742703309554,0.925805662678,0.0,0.0,0.0,0.0,0.0,0.0,0.0,0.0,0.0,-0.00426138358541,-0.0108428670148,-0.000904100202064,0.0,0.0,0.0,0.0,0.0,0.0,0.0,0.0,0.0,6.51910659883,-0.0747489160437,7.10985016146,0.0,0.0,0.0,0.0,0.0,0.0,0.0,0.0,0.0
83072000000,276,83072000000,imu_link,-0.00174582884673,-0.377942521047,0.00742193824407,0.925797665637,0.0,0.0,0.0,0.0,0.0,0.0,0.0,0.0,0.0,-0.00433593503268,-0.010579665854,-0.00100147453226,0.0,0.0,0.0,0.0,0.0,0.0,0.0,0.0,0.0,6.51944585359,-0.0748309447079,7.10807494031,0.0,0.0,0.0,0.0,0.0,0.0,0.0,0.0,0.0
83076000000,277,83076000000,imu_link,-0.00175280242427,-0.377961911358,0.0074166598928,0.925789778731,0.0,0.0,0.0,0.0,0.0,0.0,0.0,0.0,0.0,-0.00430435903824,-0.010435664674,-0.00111319491763,0.0,0.0,0.0,0.0,0.0,0.0,0.0,0.0,0.0,6.51985408505,-0.0748144823161,7.10736663184,0.0,0.0,0.0,0.0,0.0,0.0,0.0,0.0,0.0
83080000000,278,83080000000,imu_link,-0.00175975676251,-0.377981164917,0.00741118008261,0.925781948751,0.0,0.0,0.0,0.0,0.0,0.0,0.0,0.0,0.0,-0.00433296815301,-0.0103615000063,-0.0012101763409,0.0,0.0,0.0,0.0,0.0,0.0,0.0,0.0,0.0,6.52018633313,-0.0747523227841,7.1058001088,0.0,0.0,0.0,0.0,0.0,0.0,0.0,0.0,0.0
83084000000,279,83084000000,imu_link,-0.00176692918556,-0.37800032145,0.00740547188962,0.925774159248,0.0,0.0,0.0,0.0,0.0,0.0,0.0,0.0,0.0,-0.00447668468201,-0.010307928072,-0.00127474131766,0.0,0.0,0.0,0.0,0.0,0.0,0.0,0.0,0.0,6.5210099224,-0.0747260154927,7.10454991635,0.0,0.0,0.0,0.0,0.0,0.0,0.0,0.0,0.0
83088000000,280,83088000000,imu_link,-0.00177460582359,-0.378019577273,0.00739950652972,0.925766329737,0.0,0.0,0.0,0.0,0.0,0.0,0.0,0.0,0.0,-0.00475908686696,-0.010359355975,-0.00129842343395,0.0,0.0,0.0,0.0,0.0,0.0,0.0,0.0,0.0,6.52230642084,-0.0746226236712,7.10566709144,0.0,0.0,0.0,0.0,0.0,0.0,0.0,0.0,0.0
83092000000,281,83092000000,imu_link,-0.00178300624241,-0.37803912692,0.00739326178624,0.925758380511,0.0,0.0,0.0,0.0,0.0,0.0,0.0,0.0,0.0,-0.00514811233741,-0.0105150635393,-0.00129076151889,0.0,0.0,0.0,0.0,0.0,0.0,0.0,0.0,0.0,6.52284580982,-0.0744984359857,7.10545379153,0.0,0.0,0.0,0.0,0.0,0.0,0.0,0.0,0.0
83096000000,282,83096000000,imu_link,-0.00179214441752,-0.378059133884,0.00738677748238,0.925750244409,0.0,0.0,0.0,0.0,0.0,0.0,0.0,0.0,0.0,-0.00553674310162,-0.0107591282337,-0.00126191555924,0.0,0.0,0.0,0.0,0.0,0.0,0.0,0.0,0.0,6.52346644308,-0.0744725917526,7.10513849472,0.0,0.0,0.0,0.0,0.0,0.0,0.0,0.0,0.0
83100000000,283,83100000000,imu_link,-0.00180182763357,-0.378079601901,0.00738010628293,0.9257419198,0.0,0.0,0.0,0.0,0.0,0.0,0.0,0.0,0.0,-0.00582622955547,-0.0110059915011,-0.00124511292701,0.0,0.0,0.0,0.0,0.0,0.0,0.0,0.0,0.0,6.52420065514,-0.0745036969515,7.10363721603,0.0,0.0,0.0,0.0,0.0,0.0,0.0,0.0,0.0
83104000000,284,83104000000,imu_link,-0.00181160007794,-0.378100372651,0.00737327458753,0.925733471971,0.0,0.0,0.0,0.0,0.0,0.0,0.0,0.0,0.0,-0.00589909897882,-0.0111689372132,-0.00130235218658,0.0,0.0,0.0,0.0,0.0,0.0,0.0,0.0,0.0,6.52554040961,-0.0745775607927,7.10209358631,0.0,0.0,0.0,0.0,0.0,0.0,0.0,0.0,0.0
83108000000,285,83108000000,imu_link,-0.00182096932043,-0.378121304815,0.00736634878219,0.925724959057,0.0,0.0,0.0,0.0,0.0,0.0,0.0,0.0,0.0,-0.00573091577908,-0.0112573562052,-0.00142204420311,0.0,0.0,0.0,0.0,0.0,0.0,0.0,0.0,0.0,6.52743440998,-0.0745944427051,7.10142955646,0.0,0.0,0.0,0.0,0.0,0.0,0.0,0.0,0.0
83112000000,286,83112000000,imu_link,-0.00182972730573,-0.37814233562,0.00735937524312,0.925716406739,0.0,0.0,0.0,0.0,0.0,0.0,0.0,0.0,0.0,-0.00545741151667,-0.011312670957,-0.00155964771733,0.0,0.0,0.0,0.0,0.0,0.0,0.0,0.0,0.0,6.52814405124,-0.0744735957488,7.09877222655,0.0,0.0,0.0,0.0,0.0,0.0,0.0,0.0,0.0
83116000000,287,83116000000,imu_link,-0.00183784229199,-0.378163627661,0.00735239603846,0.925707748332,0.0,0.0,0.0,0.0,0.0,0.0,0.0,0.0,0.0,-0.00516192366104,-0.0114560051825,-0.00168369128476,0.0,0.0,0.0,0.0,0.0,0.0,0.0,0.0,0.0,6.52943942102,-0.07431251714,7.0993874529,0.0,0.0,0.0,0.0,0.0,0.0,0.0,0.0,0.0
83120000000,288,83120000000,imu_link,-0.00184552643503,-0.37818546644,0.00734541888485,0.92569886671,0.0,0.0,0.0,0.0,0.0,0.0,0.0,0.0,0.0,-0.00496433342386,-0.0117528568275,-0.00176388838347,0.0,0.0,0.0,0.0,0.0,0.0,0.0,0.0,0.0,6.53079572724,-0.0741070460331,7.1012216242,0.0,0.0,0.0,0.0,0.0,0.0,0.0,0.0,0.0
83124000000,289,83124000000,imu_link,-0.00185296692223,-0.3782080405,0.00733844556449,0.925689684415,0.0,0.0,0.0,0.0,0.0,0.0,0.0,0.0,0.0,-0.00485381053763,-0.012150934645,-0.00180776193157,0.0,0.0,0.0,0.0,0.0,0.0,0.0,0.0,0.0,6.53240250368,-0.0739507694662,7.10254645785,0.0,0.0,0.0,0.0,0.0,0.0,0.0,0.0,0.0
83128000000,290,83128000000,imu_link,-0.00186016023461,-0.378231288894,0.00733147475301,0.925680226311,0.0,0.0,0.0,0.0,0.0,0.0,0.0,0.0,0.0,-0.00474166232543,-0.0125161126507,-0.00185295521079,0.0,0.0,0.0,0.0,0.0,0.0,0.0,0.0,0.0,6.53326046786,-0.073880157991,7.10004484222,0.0,0.0,0.0,0.0,0.0,0.0,0.0,0.0,0.0
83132000000,291,83132000000,imu_link,-0.00186712467586,-0.378255045143,0.00732448902478,0.925670560475,0.0,0.0,0.0,0.0,0.0,0.0,0.0,0.0,0.0,-0.00464060744907,-0.0127912788279,-0.00190285324948,0.0,0.0,0.0,0.0,0.0,0.0,0.0,0.0,0.0,6.53366120005,-0.0737394353421,7.09602417963,0.0,0.0,0.0,0.0,0.0,0.0,0.0,0.0,0.0
83136000000,292,83136000000,imu_link,-0.0018739461685,-0.37827923418,0.00731744371275,0.925660717721,0.0,0.0,0.0,0.0,0.0,0.0,0.0,0.0,0.0,-0.00458746485837,-0.01302551596,-0.00195722236476,0.0,0.0,0.0,0.0,0.0,0.0,0.0,0.0,0.0,6.53472982069,-0.0735623581781,7.09444277575,0.0,0.0,0.0,0.0,0.0,0.0,0.0,0.0,0.0
83140000000,293,83140000000,imu_link,-0.00188069971767,-0.378303717178,0.00731032844824,0.925650754678,0.0,0.0,0.0,0.0,0.0,0.0,0.0,0.0,0.0,-0.00457043757816,-0.013184505005,-0.00200228463414,0.0,0.0,0.0,0.0,0.0,0.0,0.0,0.0,0.0,6.53551430475,-0.073400773069,7.09201582154,0.0,0.0,0.0,0.0,0.0,0.0,0.0,0.0,0.0
83144000000,294,83144000000,imu_link,-0.00188733772597,-0.378328383761,0.00730313972611,0.925640716556,0.0,0.0,0.0,0.0,0.0,0.0,0.0,0.0,0.0,-0.00453159860766,-0.0132840269403,-0.00205803565736,0.0,0.0,0.0,0.0,0.0,0.0,0.0,0.0,0.0,6.53579096196,-0.0732810279085,7.08890046065,0.0,0.0,0.0,0.0,0.0,0.0,0.0,0.0,0.0
83148000000,295,83148000000,imu_link,-0.00189381427873,-0.378353166595,0.00729590314858,0.925630630755,0.0,0.0,0.0,0.0,0.0,0.0,0.0,0.0,0.0,-0.0044663957143,-0.013347393795,-0.00211066131904,0.0,0.0,0.0,0.0,0.0,0.0,0.0,0.0,0.0,6.53748770377,-0.0732059775523,7.08883892078,0.0,0.0,0.0,0.0,0.0,0.0,0.0,0.0,0.0
83152000000,296,83152000000,imu_link,-0.0019000163868,-0.378378140619,0.00728868766635,0.925620466321,0.0,0.0,0.0,0.0,0.0,0.0,0.0,0.0,0.0,-0.00433615968692,-0.0134517764242,-0.0021527107886,0.0,0.0,0.0,0.0,0.0,0.0,0.0,0.0,0.0,6.53801831015,-0.0731209885851,7.08762805212,0.0,0.0,0.0,0.0,0.0,0.0,0.0,0.0,0.0
83156000000,297,83156000000,imu_link,-0.00190573936514,-0.378403344367,0.00728154588432,0.925610207495,0.0,0.0,0.0,0.0,0.0,0.0,0.0,0.0,0.0,-0.00410139713847,-0.0135777692227,-0.002209121936,0.0,0.0,0.0,0.0,0.0,0.0,0.0,0.0,0.0,6.53867100556,-0.0730434973362,7.08604997055,0.0,0.0,0.0,0.0,0.0,0.0,0.0,0.0,0.0
83160000000,298,83160000000,imu_link,-0.00191087856352,-0.378428898857,0.0072744979706,0.925599804847,0.0,0.0,0.0,0.0,0.0,0.0,0.0,0.0,0.0,-0.00381487476497,-0.0137695203609,-0.0022759419294,0.0,0.0,0.0,0.0,0.0,0.0,0.0,0.0,0.0,6.53916680629,-0.0729410545583,7.08516688456,0.0,0.0,0.0,0.0,0.0,0.0,0.0,0.0,0.0
83164000000,299,83164000000,imu_link,-0.00191551134514,-0.378454848552,0.00726755830682,0.925589239901,0.0,0.0,0.0,0.0,0.0,0.0,0.0,0.0,0.0,-0.00356161520887,-0.013985075441,-0.00232145251916,0.0,0.0,0.0,0.0,0.0,0.0,0.0,0.0,0.0,6.54037156965,-0.0728044450982,7.08502247134,0.0,0.0,0.0,0.0,0.0,0.0,0.0,0.0,0.0
83168000000,300,83168000000,imu_link,-0.00191980764378,-0.37848107011,0.0072607028429,0.925578562901,0.0,0.0,0.0,0.0,0.0,0.0,0.0,0.0,0.0,-0.00339105498548,-0.0141333995257,-0.00234601028212,0.0,0.0,0.0,0.0,0.0,0.0,0.0,0.0,0.0,6.54113287811,-0.0726357704162,7.08244618862,0.0,0.0,0.0,0.0,0.0,0.0,0.0,0.0,0.0
83172000000,301,83172000000,imu_link,-0.00192383820911,-0.37850710786,0.00725393194749,0.925567960021,0.0,0.0,0.0,0.0,0.0,0.0,0.0,0.0,0.0,-0.00325133423363,-0.0140353546701,-0.00235725303914,0.0,0.0,0.0,0.0,0.0,0.0,0.0,0.0,0.0,6.54299294645,-0.0725794707108,7.0788991417,0.0,0.0,0.0,0.0,0.0,0.0,0.0,0.0,0.0
83176000000,302,83176000000,imu_link,-0.00192745958574,-0.3785323414,0.00724728139507,0.925557685034,0.0,0.0,0.0,0.0,0.0,0.0,0.0,0.0,0.0,-0.00303596066857,-0.0136027239191,-0.00237941631681,0.0,0.0,0.0,0.0,0.0,0.0,0.0,0.0,0.0,6.54483269011,-0.072566847799,7.07370918572,0.0,0.0,0.0,0.0,0.0,0.0,0.0,0.0,0.0
83180000000,303,83180000000,imu_link,-0.00193041523082,-0.37855632959,0.00724079708462,0.925547918631,0.0,0.0,0.0,0.0,0.0,0.0,0.0,0.0,0.0,-0.00269140736975,-0.0129327170694,-0.00242912625575,0.0,0.0,0.0,0.0,0.0,0.0,0.0,0.0,0.0,6.54644126742,-0.0725074467055,7.07052115595,0.0,0.0,0.0,0.0,0.0,0.0,0.0,0.0,0.0
83184000000,304,83184000000,imu_link,-0.00193251611849,-0.37857911172,0.00723449760325,0.925538645112,0.0,0.0,0.0,0.0,0.0,0.0,0.0,0.0,0.0,-0.00225602164476,-0.0122845650024,-0.00250599942583,0.0,0.0,0.0,0.0,0.0,0.0,0.0,0.0,0.0,6.54642236244,-0.0723247411795,7.06849200896,0.0,0.0,0.0,0.0,0.0,0.0,0.0,0.0,0.0
83188000000,305,83188000000,imu_link,-0.00193391601136,-0.378600972555,0.00722833657394,0.925529748144,0.0,0.0,0.0,0.0,0.0,0.0,0.0,0.0,0.0,-0.0019017188262,-0.0117896102175,-0.00257509092191,0.0,0.0,0.0,0.0,0.0,0.0,0.0,0.0,0.0,6.54687309794,-0.0721010100132,7.06961214022,0.0,0.0,0.0,0.0,0.0,0.0,0.0,0.0,0.0
83192000000,306,83192000000,imu_link,-0.00193499457373,-0.378622187345,0.0072222375608,0.925521115011,0.0,0.0,0.0,0.0,0.0,0.0,0.0,0.0,0.0,-0.00173868862777,-0.0114419203419,-0.00260754888011,0.0,0.0,0.0,0.0,0.0,0.0,0.0,0.0,0.0,6.54754709965,-0.0719002757422,7.07093626444,0.0,0.0,0.0,0.0,0.0,0.0,0.0,0.0,0.0
83196000000,307,83196000000,imu_link,-0.00193589648558,-0.378642802249,0.0072161737688,0.925512726788,0.0,0.0,0.0,0.0,0.0,0.0,0.0,0.0,0.0,-0.00164787077891,-0.0111186244689,-0.00262499584316,0.0,0.0,0.0,0.0,0.0,0.0,0.0,0.0,0.0,6.54820535345,-0.0718202277797,7.07024735918,0.0,0.0,0.0,0.0,0.0,0.0,0.0,0.0,0.0
83200000000,308,83200000000,imu_link,-0.0019365388336,-0.37866256514,0.00721013808511,0.925504686907,0.0,0.0,0.0,0.0,0.0,0.0,0.0,0.0,0.0,-0.00151902314361,-0.0106593650088,-0.00266156167966,0.0,0.0,0.0,0.0,0.0,0.0,0.0,0.0,0.0,6.54873273152,-0.0717881515896,7.06645082709,0.0,0.0,0.0,0.0,0.0,0.0,0.0,0.0,0.0
83204000000,309,83204000000,imu_link,-0.00193667219271,-0.378681119686,0.00720413131449,0.925497141749,0.0,0.0,0.0,0.0,0.0,0.0,0.0,0.0,0.0,-0.00127317799141,-0.0100083971749,-0.0027451631126,0.0,0.0,0.0,0.0,0.0,0.0,0.0,0.0,0.0,6.55136468474,-0.0718143101203,7.06577940282,0.0,0.0,0.0,0.0,0.0,0.0,0.0,0.0,0.0
83208000000,310,83208000000,imu_link,-0.00193622550637,-0.378698488248,0.00719815505694,0.925490082385,0.0,0.0,0.0,0.0,0.0,0.0,0.0,0.0,0.0,-0.000994243020338,-0.00936972311531,-0.00284147079427,0.0,0.0,0.0,0.0,0.0,0.0,0.0,0.0,0.0,6.55130383655,-0.0717357697232,7.06318264706,0.0,0.0,0.0,0.0,0.0,0.0,0.0,0.0,0.0
83212000000,311,83212000000,imu_link,-0.00193518340784,-0.378714990315,0.00719221262004,0.925483378162,0.0,0.0,0.0,0.0,0.0,0.0,0.0,0.0,0.0,-0.000708852672424,-0.00890368712917,-0.00293900061916,0.0,0.0,0.0,0.0,0.0,0.0,0.0,0.0,0.0,6.55211875753,-0.0716380534859,7.064829215,0.0,0.0,0.0,0.0,0.0,0.0,0.0,0.0,0.0
83216000000,312,83216000000,imu_link,-0.00193342609497,-0.378731069741,0.00718636599797,0.925476847263,0.0,0.0,0.0,0.0,0.0,0.0,0.0,0.0,0.0,-0.000358062351927,-0.00867795741243,-0.0030303086513,0.0,0.0,0.0,0.0,0.0,0.0,0.0,0.0,0.0,6.55418172077,-0.0716216859038,7.06959992308,0.0,0.0,0.0,0.0,0.0,0.0,0.0,0.0,0.0
83220000000,313,83220000000,imu_link,-0.00193078462513,-0.37874682867,0.00718066174973,0.925470447902,0.0,0.0,0.0,0.0,0.0,0.0,0.0,0.0,0.0,7.93105130013e-05,-0.00850805727738,-0.00313201847367,0.0,0.0,0.0,0.0,0.0,0.0,0.0,0.0,0.0,6.55546342552,-0.0716271652162,7.07004791623,0.0,0.0,0.0,0.0,0.0,0.0,0.0,0.0,0.0
83224000000,314,83224000000,imu_link,-0.00192719116031,-0.37876208707,0.0071751253584,0.925464253717,0.0,0.0,0.0,0.0,0.0,0.0,0.0,0.0,0.0,0.000553614890724,-0.00824117029285,-0.00323488115316,0.0,0.0,0.0,0.0,0.0,0.0,0.0,0.0,0.0,6.55642205394,-0.0715101496211,7.06775659657,0.0,0.0,0.0,0.0,0.0,0.0,0.0,0.0,0.0
83228000000,315,83228000000,imu_link,-0.0019227764035,-0.378776550015,0.00716974122902,0.925458385288,0.0,0.0,0.0,0.0,0.0,0.0,0.0,0.0,0.0,0.000965656255085,-0.00781448857752,-0.00332036396482,0.0,0.0,0.0,0.0,0.0,0.0,0.0,0.0,0.0,6.55670287499,-0.0712844303024,7.06313715435,0.0,0.0,0.0,0.0,0.0,0.0,0.0,0.0,0.0
83232000000,316,83232000000,imu_link,-0.00191757150414,-0.378790077207,0.00716447643526,0.925452900264,0.0,0.0,0.0,0.0,0.0,0.0,0.0,0.0,0.0,0.00135760220284,-0.00731182312731,-0.00341526245939,0.0,0.0,0.0,0.0,0.0,0.0,0.0,0.0,0.0,6.55699310618,-0.0711271610439,7.06002240686,0.0,0.0,0.0,0.0,0.0,0.0,0.0,0.0,0.0
83236000000,317,83236000000,imu_link,-0.00191142573156,-0.378802873876,0.00715931991201,0.925447715073,0.0,0.0,0.0,0.0,0.0,0.0,0.0,0.0,0.0,0.001816379403,-0.00692047833039,-0.00354373320572,0.0,0.0,0.0,0.0,0.0,0.0,0.0,0.0,0.0,6.55851053736,-0.0710410438078,7.06251420238,0.0,0.0,0.0,0.0,0.0,0.0,0.0,0.0,0.0
83240000000,318,83240000000,imu_link,-0.0019043608616,-0.378815195219,0.0071542937248,0.925442725058,0.0,0.0,0.0,0.0,0.0,0.0,0.0,0.0,0.0,0.00226824155881,-0.00666698168823,-0.00365774636764,0.0,0.0,0.0,0.0,0.0,0.0,0.0,0.0,0.0,6.56011358,-0.0709386021895,7.06489769452,0.0,0.0,0.0,0.0,0.0,0.0,0.0,0.0,0.0
83244000000,319,83244000000,imu_link,-0.00189677643079,-0.378827208202,0.00714940735948,0.925437860982,0.0,0.0,0.0,0.0,0.0,0.0,0.0,0.0,0.0,0.00253635976419,-0.00650243433349,-0.00369161345082,0.0,0.0,0.0,0.0,0.0,0.0,0.0,0.0,0.0,6.562412223,-0.0707886904937,7.06786144136,0.0,0.0,0.0,0.0,0.0,0.0,0.0,0.0,0.0
83248000000,320,83248000000,imu_link,-0.00188936572254,-0.378838925398,0.00714463875018,0.925433116458,0.0,0.0,0.0,0.0,0.0,0.0,0.0,0.0,0.0,0.0024794503694,-0.00634241439839,-0.00360436693862,0.0,0.0,0.0,0.0,0.0,0.0,0.0,0.0,0.0,6.56476111051,-0.0706553571663,7.06998165602,0.0,0.0,0.0,0.0,0.0,0.0,0.0,0.0,0.0
83252000000,321,83252000000,imu_link,-0.00188276269073,-0.378850323003,0.00713995268264,0.925428500232,0.0,0.0,0.0,0.0,0.0,0.0,0.0,0.0,0.0,0.00212262300124,-0.00616742501583,-0.00341334026991,0.0,0.0,0.0,0.0,0.0,0.0,0.0,0.0,0.0,6.56552084139,-0.0706153592966,7.0686093671,0.0,0.0,0.0,0.0,0.0,0.0,0.0,0.0,0.0
83256000000,322,83256000000,imu_link,-0.00187732650913,-0.378861386084,0.00713531566521,0.925424017978,0.0,0.0,0.0,0.0,0.0,0.0,0.0,0.0,0.0,0.00159331646528,-0.00598313913901,-0.00316977665787,0.0,0.0,0.0,0.0,0.0,0.0,0.0,0.0,0.0,6.56587159325,-0.0706936239838,7.06621943679,0.0,0.0,0.0,0.0,0.0,0.0,0.0,0.0,0.0
83260000000,323,83260000000,imu_link,-0.00187313510811,-0.378872195911,0.00713066557085,0.925419636781,0.0,0.0,0.0,0.0,0.0,0.0,0.0,0.0,0.0,0.00101586275813,-0.00584235825181,-0.00294015067849,0.0,0.0,0.0,0.0,0.0,0.0,0.0,0.0,0.0,6.56687644521,-0.070899614026,7.06578101247,0.0,0.0,0.0,0.0,0.0,0.0,0.0,0.0,0.0
83264000000,324,83264000000,imu_link,-0.00187016425988,-0.378882897204,0.00712597773968,0.925415297654,0.0,0.0,0.0,0.0,0.0,0.0,0.0,0.0,0.0,0.000444378646166,-0.00577978241001,-0.002726443461,0.0,0.0,0.0,0.0,0.0,0.0,0.0,0.0,0.0,6.56776094735,-0.0711701511706,7.06583596131,0.0,0.0,0.0,0.0,0.0,0.0,0.0,0.0,0.0
83268000000,325,83268000000,imu_link,-0.00186838122907,-0.378893595791,0.00712123883832,0.925410957455,0.0,0.0,0.0,0.0,0.0,0.0,0.0,0.0,0.0,-0.000114899737636,-0.00577445325696,-0.00252504582201,0.0,0.0,0.0,0.0,0.0,0.0,0.0,0.0,0.0,6.56862405166,-0.0714274298217,7.06554373638,0.0,0.0,0.0,0.0,0.0,0.0,0.0,0.0,0.0
83272000000,326,83272000000,imu_link,-0.00186788902506,-0.378904651054,0.00711643781382,0.925406468917,0.0,0.0,0.0,0.0,0.0,0.0,0.0,0.0,0.0,-0.000725349959036,-0.00596293760765,-0.00230905255912,0.0,0.0,0.0,0.0,0.0,0.0,0.0,0.0,0.0,6.57033578789,-0.0716073320942,7.06906515175,0.0,0.0,0.0,0.0,0.0,0.0,0.0,0.0,0.0
83276000000,327,83276000000,imu_link,-0.00186885521777,-0.378916469243,0.00711153410722,0.925401665656,0.0,0.0,0.0,0.0,0.0,0.0,0.0,0.0,0.0,-0.00142261678986,-0.00637028501806,-0.00207985992757,0.0,0.0,0.0,0.0,0.0,0.0,0.0,0.0,0.0,6.57214042123,-0.0717804541747,7.07316648664,0.0,0.0,0.0,0.0,0.0,0.0,0.0,0.0,0.0
83280000000,328,83280000000,imu_link,-0.00187125043419,-0.378929393424,0.00710655829086,0.925396406979,0.0,0.0,0.0,0.0,0.0,0.0,0.0,0.0,0.0,-0.00210184724911,-0.00696316274125,-0.00184189898421,0.0,0.0,0.0,0.0,0.0,0.0,0.0,0.0,0.0,6.57311077358,-0.071991178992,7.07510534942,0.0,0.0,0.0,0.0,0.0,0.0,0.0,0.0,0.0
83284000000,329,83284000000,imu_link,-0.00187503577378,-0.378943578685,0.00710156014371,0.925390629009,0.0,0.0,0.0,0.0,0.0,0.0,0.0,0.0,0.0,-0.00275425246659,-0.0076400892491,-0.00158818683678,0.0,0.0,0.0,0.0,0.0,0.0,0.0,0.0,0.0,6.57342521442,-0.0721974962337,7.07386827942,0.0,0.0,0.0,0.0,0.0,0.0,0.0,0.0,0.0
83288000000,330,83288000000,imu_link,-0.00188020727877,-0.378958936928,0.007096565396,0.925384367548,0.0,0.0,0.0,0.0,0.0,0.0,0.0,0.0,0.0,-0.0033995988879,-0.00826951167007,-0.00132335761384,0.0,0.0,0.0,0.0,0.0,0.0,0.0,0.0,0.0,6.57311554252,-0.0723781990221,7.0693599253,0.0,0.0,0.0,0.0,0.0,0.0,0.0,0.0,0.0
83292000000,331,83292000000,imu_link,-0.00188662361652,-0.378975268002,0.00709159675407,0.925377704588,0.0,0.0,0.0,0.0,0.0,0.0,0.0,0.0,0.0,-0.00397445610015,-0.00879131676867,-0.00107489835759,0.0,0.0,0.0,0.0,0.0,0.0,0.0,0.0,0.0,6.57451019008,-0.0725884026265,7.06697536715,0.0,0.0,0.0,0.0,0.0,0.0,0.0,0.0,0.0
83296000000,332,83296000000,imu_link,-0.00189412710357,-0.378992454488,0.00708672420651,0.925370687921,0.0,0.0,0.0,0.0,0.0,0.0,0.0,0.0,0.0,-0.00446262603966,-0.00925036453684,-0.000823987956038,0.0,0.0,0.0,0.0,0.0,0.0,0.0,0.0,0.0,6.57606784568,-0.0727879215332,7.06584019419,0.0,0.0,0.0,0.0,0.0,0.0,0.0,0.0,0.0
83300000000,333,83300000000,imu_link,-0.00190254605952,-0.379010346699,0.0070820244781,0.92536337854,0.0,0.0,0.0,0.0,0.0,0.0,0.0,0.0,0.0,-0.00485622936624,-0.00962928183693,-0.000570180341797,0.0,0.0,0.0,0.0,0.0,0.0,0.0,0.0,0.0,6.57676615012,-0.0729508235718,7.06296892049,0.0,0.0,0.0,0.0,0.0,0.0,0.0,0.0,0.0
83304000000,334,83304000000,imu_link,-0.00191169209945,-0.379028574112,0.0070775461466,0.92535592816,0.0,0.0,0.0,0.0,0.0,0.0,0.0,0.0,0.0,-0.00515200303137,-0.00980872949455,-0.000329777459412,0.0,0.0,0.0,0.0,0.0,0.0,0.0,0.0,0.0,6.57817706501,-0.0730881895243,7.05951581674,0.0,0.0,0.0,0.0,0.0,0.0,0.0,0.0,0.0
83308000000,335,83308000000,imu_link,-0.0019213831204,-0.379046744418,0.00707326570626,0.925348497997,0.0,0.0,0.0,0.0,0.0,0.0,0.0,0.0,0.0,-0.00536642912561,-0.00977673647755,-0.00013495285349,0.0,0.0,0.0,0.0,0.0,0.0,0.0,0.0,0.0,6.57945530656,-0.0732304219936,7.05549320985,0.0,0.0,0.0,0.0,0.0,0.0,0.0,0.0,0.0
83312000000,336,83312000000,imu_link,-0.00193135284275,-0.379064492993,0.00706913310104,0.925341238347,0.0,0.0,0.0,0.0,0.0,0.0,0.0,0.0,0.0,-0.00546570355421,-0.00954845245653,-1.39308057811e-05,0.0,0.0,0.0,0.0,0.0,0.0,0.0,0.0,0.0,6.58062583495,-0.0733167846255,7.05176427906,0.0,0.0,0.0,0.0,0.0,0.0,0.0,0.0,0.0
83316000000,337,83316000000,imu_link,-0.00194125705873,-0.379081795415,0.00706510356066,0.9253341603,0.0,0.0,0.0,0.0,0.0,0.0,0.0,0.0,0.0,-0.00541410924878,-0.00930794234516,2.11276498417e-05,0.0,0.0,0.0,0.0,0.0,0.0,0.0,0.0,0.0,6.58122022115,-0.0733350503968,7.05055328891,0.0,0.0,0.0,0.0,0.0,0.0,0.0,0.0,0.0
83320000000,338,83320000000,imu_link,-0.00195063171579,-0.379098950193,0.00706121360279,0.925327142291,0.0,0.0,0.0,0.0,0.0,0.0,0.0,0.0,0.0,-0.00514206333427,-0.00923025816319,-1.47339746823e-05,0.0,0.0,0.0,0.0,0.0,0.0,0.0,0.0,0.0,6.58261286885,-0.073333708908,7.05360665262,0.0,0.0,0.0,0.0,0.0,0.0,0.0,0.0,0.0
83324000000,339,83324000000,imu_link,-0.0019590453556,-0.379116326473,0.00705751540969,0.92532003362,0.0,0.0,0.0,0.0,0.0,0.0,0.0,0.0,0.0,-0.00466195721994,-0.00935350476391,-0.00010806765588,0.0,0.0,0.0,0.0,0.0,0.0,0.0,0.0,0.0,6.58394622897,-0.0732822100409,7.05714845345,0.0,0.0,0.0,0.0,0.0,0.0,0.0,0.0,0.0
83328000000,340,83328000000,imu_link,-0.00196597977801,-0.37913418127,0.00705405020424,0.92531272978,0.0,0.0,0.0,0.0,0.0,0.0,0.0,0.0,0.0,-0.0039352974977,-0.0096173388797,-0.000280451332797,0.0,0.0,0.0,0.0,0.0,0.0,0.0,0.0,0.0,6.58537038561,-0.0731980697363,7.05991192658,0.0,0.0,0.0,0.0,0.0,0.0,0.0,0.0,0.0
83332000000,341,83332000000,imu_link,-0.0019711690879,-0.379152482819,0.00705084295285,0.925305244164,0.0,0.0,0.0,0.0,0.0,0.0,0.0,0.0,0.0,-0.0030807648747,-0.00986489931809,-0.000491721176116,0.0,0.0,0.0,0.0,0.0,0.0,0.0,0.0,0.0,6.58530045695,-0.0730052615955,7.05665009331,0.0,0.0,0.0,0.0,0.0,0.0,0.0,0.0,0.0
83336000000,342,83336000000,imu_link,-0.00197448423511,-0.379170914378,0.0070479018994,0.925297706784,0.0,0.0,0.0,0.0,0.0,0.0,0.0,0.0,0.0,-0.00216372314912,-0.00994173116075,-0.000723806360591,0.0,0.0,0.0,0.0,0.0,0.0,0.0,0.0,0.0,6.58590398263,-0.0727644405492,7.05204873801,0.0,0.0,0.0,0.0,0.0,0.0,0.0,0.0,0.0
83340000000,343,83340000000,imu_link,-0.00197586270147,-0.379188887255,0.00704522893512,0.925290359021,0.0,0.0,0.0,0.0,0.0,0.0,0.0,0.0,0.0,-0.00121509059462,-0.0097006634826,-0.000967157108524,0.0,0.0,0.0,0.0,0.0,0.0,0.0,0.0,0.0,6.58816489901,-0.072538159486,7.04831197279,0.0,0.0,0.0,0.0,0.0,0.0,0.0,0.0,0.0
83344000000,344,83344000000,imu_link,-0.00197539803746,-0.379205831597,0.0070428073295,0.925283434386,0.0,0.0,0.0,0.0,0.0,0.0,0.0,0.0,0.0,-0.000310677851455,-0.00915133502873,-0.00120078890952,0.0,0.0,0.0,0.0,0.0,0.0,0.0,0.0,0.0,6.58961482805,-0.0722619879101,7.04326464512,0.0,0.0,0.0,0.0,0.0,0.0,0.0,0.0,0.0
83348000000,345,83348000000,imu_link,-0.00197324103855,-0.379221445252,0.00704062499203,0.925277056551,0.0,0.0,0.0,0.0,0.0,0.0,0.0,0.0,0.0,0.000522858768246,-0.00843822447306,-0.00141157629476,0.0,0.0,0.0,0.0,0.0,0.0,0.0,0.0,0.0,6.58928516928,-0.0719696207512,7.03768191434,0.0,0.0,0.0,0.0,0.0,0.0,0.0,0.0,0.0
83352000000,346,83352000000,imu_link,-0.00196957229447,-0.379235691428,0.00703866788064,0.925271240387,0.0,0.0,0.0,0.0,0.0,0.0,0.0,0.0,0.0,0.0012703237191,-0.0077046209813,-0.00159464920171,0.0,0.0,0.0,0.0,0.0,0.0,0.0,0.0,0.0,6.5882975022,-0.0717541994272,7.03313131027,0.0,0.0,0.0,0.0,0.0,0.0,0.0,0.0,0.0
83356000000,347,83356000000,imu_link,-0.00196483876473,-0.379248798721,0.00703694844065,0.925265891208,0.0,0.0,0.0,0.0,0.0,0.0,0.0,0.0,0.0,0.00181246622269,-0.00709316607633,-0.00168711823781,0.0,0.0,0.0,0.0,0.0,0.0,0.0,0.0,0.0,6.58952328584,-0.071566398844,7.0353306753,0.0,0.0,0.0,0.0,0.0,0.0,0.0,0.0,0.0
83360000000,348,83360000000,imu_link,-0.0019595362933,-0.379261206161,0.00703541511475,0.925260828444,0.0,0.0,0.0,0.0,0.0,0.0,0.0,0.0,0.0,0.00211371296105,-0.00671726423487,-0.00170922113969,0.0,0.0,0.0,0.0,0.0,0.0,0.0,0.0,0.0,6.59114434698,-0.0714116806646,7.04018276595,0.0,0.0,0.0,0.0,0.0,0.0,0.0,0.0,0.0
83364000000,349,83364000000,imu_link,-0.00195395231558,-0.379273203777,0.007034007539,0.925255933083,0.0,0.0,0.0,0.0,0.0,0.0,0.0,0.0,0.0,0.0022693980612,-0.00649703630752,-0.00170461485021,0.0,0.0,0.0,0.0,0.0,0.0,0.0,0.0,0.0,6.59107370912,-0.0713162496021,7.04038275109,0.0,0.0,0.0,0.0,0.0,0.0,0.0,0.0,0.0
83368000000,350,83368000000,imu_link,-0.00194832228943,-0.37928500499,0.00703267552355,0.925251117538,0.0,0.0,0.0,0.0,0.0,0.0,0.0,0.0,0.0,0.00230579908301,-0.00639127387935,-0.00167847983965,0.0,0.0,0.0,0.0,0.0,0.0,0.0,0.0,0.0,6.5910573612,-0.0712951187368,7.03995739752,0.0,0.0,0.0,0.0,0.0,0.0,0.0,0.0,0.0
83372000000,351,83372000000,imu_link,-0.00194275823068,-0.379296888863,0.00703140430032,0.925246267295,0.0,0.0,0.0,0.0,0.0,0.0,0.0,0.0,0.0,0.00228648520458,-0.00643592276586,-0.00163780409596,0.0,0.0,0.0,0.0,0.0,0.0,0.0,0.0,0.0,6.59138618919,-0.0713448309861,7.04060707467,0.0,0.0,0.0,0.0,0.0,0.0,0.0,0.0,0.0
83376000000,352,83376000000,imu_link,-0.00193726009519,-0.379308934126,0.00703021207008,0.925241349937,0.0,0.0,0.0,0.0,0.0,0.0,0.0,0.0,0.0,0.0022703358837,-0.00652315808062,-0.00158867868334,0.0,0.0,0.0,0.0,0.0,0.0,0.0,0.0,0.0,6.59162229355,-0.0714453298091,7.03901837625,0.0,0.0,0.0,0.0,0.0,0.0,0.0,0.0,0.0
83380000000,353,83380000000,imu_link,-0.00193191550964,-0.379321321278,0.00702908437079,0.925236291387,0.0,0.0,0.0,0.0,0.0,0.0,0.0,0.0,0.0,0.00221020055182,-0.00670762341044,-0.00152953875688,0.0,0.0,0.0,0.0,0.0,0.0,0.0,0.0,0.0,6.59230478956,-0.0715241416889,7.03912872903,0.0,0.0,0.0,0.0,0.0,0.0,0.0,0.0,0.0
83384000000,354,83384000000,imu_link,-0.00192671635654,-0.379334080893,0.00702798677183,0.925231079374,0.0,0.0,0.0,0.0,0.0,0.0,0.0,0.0,0.0,0.00214717243181,-0.00690855596216,-0.00148785141762,0.0,0.0,0.0,0.0,0.0,0.0,0.0,0.0,0.0,6.59298955029,-0.0716371386738,7.03809104801,0.0,0.0,0.0,0.0,0.0,0.0,0.0,0.0,0.0
83388000000,355,83388000000,imu_link,-0.00192174251792,-0.379347367399,0.0070268611448,0.925225650842,0.0,0.0,0.0,0.0,0.0,0.0,0.0,0.0,0.0,0.00203556237649,-0.00719255126146,-0.00145782964816,0.0,0.0,0.0,0.0,0.0,0.0,0.0,0.0,0.0,6.59411120152,-0.0717258621598,7.03891047015,0.0,0.0,0.0,0.0,0.0,0.0,0.0,0.0,0.0
83392000000,356,83392000000,imu_link,-0.00191718390832,-0.379361334102,0.00702566641995,0.925219942828,0.0,0.0,0.0,0.0,0.0,0.0,0.0,0.0,0.0,0.00182770769431,-0.00755870435837,-0.00141070880206,0.0,0.0,0.0,0.0,0.0,0.0,0.0,0.0,0.0,6.59467061423,-0.0717897611221,7.03863337701,0.0,0.0,0.0,0.0,0.0,0.0,0.0,0.0,0.0
83396000000,357,83396000000,imu_link,-0.0019131315032,-0.379375923156,0.0070243973939,0.925213978871,0.0,0.0,0.0,0.0,0.0,0.0,0.0,0.0,0.0,0.00157700739819,-0.00789330802919,-0.00134876158082,0.0,0.0,0.0,0.0,0.0,0.0,0.0,0.0,0.0,6.59557303209,-0.0719104286852,7.03693972961,0.0,0.0,0.0,0.0,0.0,0.0,0.0,0.0,0.0
83400000000,358,83400000000,imu_link,-0.00190940195599,-0.379390907038,0.00702308398719,0.925207852394,0.0,0.0,0.0,0.0,0.0,0.0,0.0,0.0,0.0,0.00141769041007,-0.00810561025705,-0.00130785699662,0.0,0.0,0.0,0.0,0.0,0.0,0.0,0.0,0.0,6.59634244974,-0.0721469702458,7.03361059853,0.0,0.0,0.0,0.0,0.0,0.0,0.0,0.0,0.0
83404000000,359,83404000000,imu_link,-0.00190563073985,-0.379406002987,0.00702175892574,0.925201679835,0.0,0.0,0.0,0.0,0.0,0.0,0.0,0.0,0.0,0.00143431825784,-0.00816632935854,-0.00132109810322,0.0,0.0,0.0,0.0,0.0,0.0,0.0,0.0,0.0,6.59838948536,-0.0723871766399,7.0324237099,0.0,0.0,0.0,0.0,0.0,0.0,0.0,0.0,0.0
83408000000,360,83408000000,imu_link,-0.00190184429354,-0.379421238389,0.00702040827238,0.925195450008,0.0,0.0,0.0,0.0,0.0,0.0,0.0,0.0,0.0,0.00143596471113,-0.00824173357726,-0.0013357579589,0.0,0.0,0.0,0.0,0.0,0.0,0.0,0.0,0.0,6.59924885737,-0.0724419661755,7.0318512049,0.0,0.0,0.0,0.0,0.0,0.0,0.0,0.0,0.0
83412000000,361,83412000000,imu_link,-0.00189837040897,-0.379436856441,0.00701898840079,0.925189062822,0.0,0.0,0.0,0.0,0.0,0.0,0.0,0.0,0.0,0.00127675011469,-0.00844743615272,-0.00130829338669,0.0,0.0,0.0,0.0,0.0,0.0,0.0,0.0,0.0,6.59922067457,-0.0724388309317,7.03164733745,0.0,0.0,0.0,0.0,0.0,0.0,0.0,0.0,0.0
83416000000,362,83416000000,imu_link,-0.00189559303112,-0.37945320834,0.00701746115142,0.925182373722,0.0,0.0,0.0,0.0,0.0,0.0,0.0,0.0,0.0,0.00093131636405,-0.00884164226108,-0.0012254625893,0.0,0.0,0.0,0.0,0.0,0.0,0.0,0.0,0.0,6.60182531061,-0.0724993812011,7.03742235601,0.0,0.0,0.0,0.0,0.0,0.0,0.0,0.0,0.0
83420000000,363,83420000000,imu_link,-0.00189377023477,-0.379470278853,0.00701581266822,0.925175388493,0.0,0.0,0.0,0.0,0.0,0.0,0.0,0.0,0.0,0.000463931997383,-0.00922678588292,-0.00110007684849,0.0,0.0,0.0,0.0,0.0,0.0,0.0,0.0,0.0,6.60343113363,-0.0726354867352,7.03783750186,0.0,0.0,0.0,0.0,0.0,0.0,0.0,0.0,0.0
83424000000,364,83424000000,imu_link,-0.00189312237296,-0.37948780891,0.00701403162314,0.925168212995,0.0,0.0,0.0,0.0,0.0,0.0,0.0,0.0,0.0,-0.000106522101734,-0.00947121881662,-0.000938239661134,0.0,0.0,0.0,0.0,0.0,0.0,0.0,0.0,0.0,6.60524924988,-0.0728034584857,7.03631939837,0.0,0.0,0.0,0.0,0.0,0.0,0.0,0.0,0.0
83428000000,365,83428000000,imu_link,-0.00189381346763,-0.379505592311,0.00701211117251,0.925160931499,0.0,0.0,0.0,0.0,0.0,0.0,0.0,0.0,0.0,-0.000753342261163,-0.00960369651564,-0.000748535696182,0.0,0.0,0.0,0.0,0.0,0.0,0.0,0.0,0.0,6.60665187175,-0.0730061751022,7.03470845883,0.0,0.0,0.0,0.0,0.0,0.0,0.0,0.0,0.0
83432000000,366,83432000000,imu_link,-0.00189577883724,-0.379523612749,0.00701005827249,0.925153550754,0.0,0.0,0.0,0.0,0.0,0.0,0.0,0.0,0.0,-0.00136885464434,-0.00972758501978,-0.000567883437243,0.0,0.0,0.0,0.0,0.0,0.0,0.0,0.0,0.0,6.60693078105,-0.0732473115329,7.03272461484,0.0,0.0,0.0,0.0,0.0,0.0,0.0,0.0,0.0
83436000000,367,83436000000,imu_link,-0.00189867131235,-0.379541973522,0.00700790642086,0.925146028814,0.0,0.0,0.0,0.0,0.0,0.0,0.0,0.0,0.0,-0.00181781607262,-0.00990846643012,-0.000437554648346,0.0,0.0,0.0,0.0,0.0,0.0,0.0,0.0,0.0,6.60829591338,-0.0735238582667,7.03373702595,0.0,0.0,0.0,0.0,0.0,0.0,0.0,0.0,0.0
83440000000,368,83440000000,imu_link,-0.00190178036586,-0.379560722228,0.00700574736782,0.925138346885,0.0,0.0,0.0,0.0,0.0,0.0,0.0,0.0,0.0,-0.00192087719829,-0.0101175087001,-0.000399593218533,0.0,0.0,0.0,0.0,0.0,0.0,0.0,0.0,0.0,6.60970397508,-0.0737988939301,7.03404511935,0.0,0.0,0.0,0.0,0.0,0.0,0.0,0.0,0.0
83444000000,369,83444000000,imu_link,-0.00190426514125,-0.379579898761,0.00700368487067,0.925130489514,0.0,0.0,0.0,0.0,0.0,0.0,0.0,0.0,0.0,-0.00161544642181,-0.0103509828413,-0.000473197429445,0.0,0.0,0.0,0.0,0.0,0.0,0.0,0.0,0.0,6.61283357478,-0.0740642061197,7.03750218758,0.0,0.0,0.0,0.0,0.0,0.0,0.0,0.0,0.0
83448000000,370,83448000000,imu_link,-0.00190547100145,-0.379599515666,0.00700180226333,0.925122452247,0.0,0.0,0.0,0.0,0.0,0.0,0.0,0.0,0.0,-0.000991436828149,-0.0105934759281,-0.000632501227615,0.0,0.0,0.0,0.0,0.0,0.0,0.0,0.0,0.0,6.61492594778,-0.0741406276548,7.03901626995,0.0,0.0,0.0,0.0,0.0,0.0,0.0,0.0,0.0
83452000000,371,83452000000,imu_link,-0.00190528222426,-0.37961952398,0.00700009148426,0.925114255447,0.0,0.0,0.0,0.0,0.0,0.0,0.0,0.0,0.0,-0.00031524095364,-0.01080985156,-0.000817536378734,0.0,0.0,0.0,0.0,0.0,0.0,0.0,0.0,0.0,6.61445677555,-0.0739577211042,7.03536708251,0.0,0.0,0.0,0.0,0.0,0.0,0.0,0.0,0.0
83456000000,372,83456000000,imu_link,-0.00190401416904,-0.379639844302,0.00699849650553,0.925105931445,0.0,0.0,0.0,0.0,0.0,0.0,0.0,0.0,0.0,0.000204753606295,-0.0109822054678,-0.000968681625622,0.0,0.0,0.0,0.0,0.0,0.0,0.0,0.0,0.0,6.61562918649,-0.0737156202068,7.03478713687,0.0,0.0,0.0,0.0,0.0,0.0,0.0,0.0,0.0
83460000000,373,83460000000,imu_link,-0.00190216105571,-0.379660496301,0.00699694658127,0.925097471659,0.0,0.0,0.0,0.0,0.0,0.0,0.0,0.0,0.0,0.000482636314806,-0.0111634882203,-0.0010587378473,0.0,0.0,0.0,0.0,0.0,0.0,0.0,0.0,0.0,6.61784522791,-0.0735145373574,7.03711996281,0.0,0.0,0.0,0.0,0.0,0.0,0.0,0.0,0.0
83464000000,374,83464000000,imu_link,-0.00190023347506,-0.379681540925,0.00699539760289,0.92508885033,0.0,0.0,0.0,0.0,0.0,0.0,0.0,0.0,0.0,0.000515733410462,-0.0113760239299,-0.00107224475002,0.0,0.0,0.0,0.0,0.0,0.0,0.0,0.0,0.0,6.61912015833,-0.0733911315754,7.03814722488,0.0,0.0,0.0,0.0,0.0,0.0,0.0,0.0,0.0
83468000000,375,83468000000,imu_link,-0.00189857883128,-0.379702806073,0.00699383839506,0.925080137439,0.0,0.0,0.0,0.0,0.0,0.0,0.0,0.0,0.0,0.000386687691372,-0.0114944435466,-0.00102505103957,0.0,0.0,0.0,0.0,0.0,0.0,0.0,0.0,0.0,6.62077423992,-0.0733940049234,7.03737516209,0.0,0.0,0.0,0.0,0.0,0.0,0.0,0.0,0.0
83472000000,376,83472000000,imu_link,-0.00189750215286,-0.379723868127,0.00699227509356,0.925071506182,0.0,0.0,0.0,0.0,0.0,0.0,0.0,0.0,0.0,0.000119366068122,-0.0113829812977,-0.0009173096726,0.0,0.0,0.0,0.0,0.0,0.0,0.0,0.0,0.0,6.62190117136,-0.073429571755,7.03323217455,0.0,0.0,0.0,0.0,0.0,0.0,0.0,0.0,0.0
83476000000,377,83476000000,imu_link,-0.00189704890463,-0.379744221044,0.00699071451215,0.925063164167,0.0,0.0,0.0,0.0,0.0,0.0,0.0,0.0,0.0,-0.000165722589646,-0.0109978868058,-0.000798024305056,0.0,0.0,0.0,0.0,0.0,0.0,0.0,0.0,0.0,6.62217392247,-0.0735408964895,7.026886406,0.0,0.0,0.0,0.0,0.0,0.0,0.0,0.0,0.0
83480000000,378,83480000000,imu_link,-0.00189689242521,-0.379763430085,0.00698918246176,0.9250552904,0.0,0.0,0.0,0.0,0.0,0.0,0.0,0.0,0.0,-0.000293127885969,-0.01037889045,-0.000729031386468,0.0,0.0,0.0,0.0,0.0,0.0,0.0,0.0,0.0,6.62394302263,-0.0737251257368,7.02414456138,0.0,0.0,0.0,0.0,0.0,0.0,0.0,0.0,0.0
83484000000,379,83484000000,imu_link,-0.0018965913407,-0.379781267871,0.00698771968947,0.925047978912,0.0,0.0,0.0,0.0,0.0,0.0,0.0,0.0,0.0,-0.000207764128026,-0.00963845196354,-0.00072511058252,0.0,0.0,0.0,0.0,0.0,0.0,0.0,0.0,0.0,6.62573015146,-0.0738729972739,7.02352722789,0.0,0.0,0.0,0.0,0.0,0.0,0.0,0.0,0.0
83488000000,380,83488000000,imu_link,-0.00189621353494,-0.379797702677,0.00698633528692,0.925041242613,0.0,0.0,0.0,0.0,0.0,0.0,0.0,0.0,0.0,-0.000151949759208,-0.00888065938686,-0.000704110538281,0.0,0.0,0.0,0.0,0.0,0.0,0.0,0.0,0.0,6.62626661578,-0.0739171233082,7.02221290046,0.0,0.0,0.0,0.0,0.0,0.0,0.0,0.0,0.0
83492000000,381,83492000000,imu_link,-0.00189627913584,-0.379812840643,0.00698502362809,0.925035036987,0.0,0.0,0.0,0.0,0.0,0.0,0.0,0.0,0.0,-0.00033818732419,-0.00817858998174,-0.000586886837069,0.0,0.0,0.0,0.0,0.0,0.0,0.0,0.0,0.0,6.62629185882,-0.0738803465582,7.02173379644,0.0,0.0,0.0,0.0,0.0,0.0,0.0,0.0,0.0
83496000000,382,83496000000,imu_link,-0.00189728747473,-0.379827094777,0.00698380776625,0.925029191325,0.0,0.0,0.0,0.0,0.0,0.0,0.0,0.0,0.0,-0.000752599605226,-0.00769824105911,-0.000363966233279,0.0,0.0,0.0,0.0,0.0,0.0,0.0,0.0,0.0,6.62875213633,-0.0739466661242,7.02841073288,0.0,0.0,0.0,0.0,0.0,0.0,0.0,0.0,0.0
83500000000,383,83500000000,imu_link,-0.00189939367204,-0.379840864396,0.00698269761843,0.925023541307,0.0,0.0,0.0,0.0,0.0,0.0,0.0,0.0,0.0,-0.00123842114649,-0.00743325666355,-0.000106797311377,0.0,0.0,0.0,0.0,0.0,0.0,0.0,0.0,0.0,6.62945846803,-0.0741012245796,7.03149144173,0.0,0.0,0.0,0.0,0.0,0.0,0.0,0.0,0.0
83504000000,384,83504000000,imu_link,-0.00190213588772,-0.379854419317,0.00698170055751,0.925017977048,0.0,0.0,0.0,0.0,0.0,0.0,0.0,0.0,0.0,-0.00151027858906,-0.00731555613577,6.62040784385e-05,0.0,0.0,0.0,0.0,0.0,0.0,0.0,0.0,0.0,6.63034572907,-0.07437293796,7.03347677032,0.0,0.0,0.0,0.0,0.0,0.0,0.0,0.0,0.0
