%time,field.header.seq,field.header.stamp,field.header.frame_id,field.orientation.x,field.orientation.y,field.orientation.z,field.orientation.w,field.orientation_covariance0,field.orientation_covariance1,field.orientation_covariance2,field.orientation_covariance3,field.orientation_covariance4,field.orientation_covariance5,field.orientation_covariance6,field.orientation_covariance7,field.orientation_covariance8,field.angular_velocity.x,field.angular_velocity.y,field.angular_velocity.z,field.angular_velocity_covariance0,field.angular_velocity_covariance1,field.angular_velocity_covariance2,field.angular_velocity_covariance3,field.angular_velocity_covariance4,field.angular_velocity_covariance5,field.angular_velocity_covariance6,field.angular_velocity_covariance7,field.angular_velocity_covariance8,field.linear_acceleration.x,field.linear_acceleration.y,field.linear_acceleration.z,field.linear_acceleration_covariance0,field.linear_acceleration_covariance1,field.linear_acceleration_covariance2,field.linear_acceleration_covariance3,field.linear_acceleration_covariance4,field.linear_acceleration_covariance5,field.linear_acceleration_covariance6,field.linear_acceleration_covariance7,field.linear_acceleration_covariance8
26388000000,0,26388000000,imu_link,0.000479128551302,-0.378005401833,0.000432771081781,0.925803164463,0.0,0.0,0.0,0.0,0.0,0.0,0.0,0.0,0.0,0.00202021797336,-0.00501485399378,0.000566079410596,0.0,0.0,0.0,0.0,0.0,0.0,0.0,0.0,0.0,6.70390475937,0.00208206997082,6.97807546946,0.0,0.0,0.0,0.0,0.0,0.0,0.0,0.0,0.0
26392000000,1,26392000000,imu_link,0.000481737353235,-0.378014335914,0.000435317163347,0.925799514081,0.0,0.0,0.0,0.0,0.0,0.0,0.0,0.0,0.0,0.00168777613051,-0.00482548684807,0.000688444750867,0.0,0.0,0.0,0.0,0.0,0.0,0.0,0.0,0.0,6.70289293212,0.00180761364622,6.97434119855,0.0,0.0,0.0,0.0,0.0,0.0,0.0,0.0,0.0
26396000000,2,26396000000,imu_link,0.000483663346681,-0.378022711753,0.000437788897306,0.925796091917,0.0,0.0,0.0,0.0,0.0,0.0,0.0,0.0,0.0,0.00135771855243,-0.00452381130191,0.000782900822557,0.0,0.0,0.0,0.0,0.0,0.0,0.0,0.0,0.0,6.70317974449,0.00158560349203,6.97187025526,0.0,0.0,0.0,0.0,0.0,0.0,0.0,0.0,0.0
26400000000,3,26400000000,imu_link,0.000484697426481,-0.378030249023,0.000440128995577,0.9257930126,0.0,0.0,0.0,0.0,0.0,0.0,0.0,0.0,0.0,0.000920073475604,-0.00407067416926,0.000890270888437,0.0,0.0,0.0,0.0,0.0,0.0,0.0,0.0,0.0,6.70339515862,0.00145362710816,6.96862851796,0.0,0.0,0.0,0.0,0.0,0.0,0.0,0.0,0.0
26404000000,4,26404000000,imu_link,0.000484597266489,-0.378036827767,0.000442310072509,0.925790325278,0.0,0.0,0.0,0.0,0.0,0.0,0.0,0.0,0.0,0.000365096338892,-0.00355267138172,0.00103073037942,0.0,0.0,0.0,0.0,0.0,0.0,0.0,0.0,0.0,6.70373591293,0.00131366727411,6.96705787737,0.0,0.0,0.0,0.0,0.0,0.0,0.0,0.0,0.0
26408000000,5,26408000000,imu_link,0.000483400635995,-0.378042480788,0.00044437442923,0.925788016543,0.0,0.0,0.0,0.0,0.0,0.0,0.0,0.0,0.0,-0.00016440382497,-0.00305238456337,0.00118364624568,0.0,0.0,0.0,0.0,0.0,0.0,0.0,0.0,0.0,6.70398335179,0.00114399900469,6.9667013231,0.0,0.0,0.0,0.0,0.0,0.0,0.0,0.0,0.0
26412000000,6,26412000000,imu_link,0.000481236677182,-0.378047590907,0.000446397586845,0.925785929981,0.0,0.0,0.0,0.0,0.0,0.0,0.0,0.0,0.0,-0.000619894887204,-0.00275887825246,0.00134724044167,0.0,0.0,0.0,0.0,0.0,0.0,0.0,0.0,0.0,6.70518249264,0.000984923525382,6.97106161097,0.0,0.0,0.0,0.0,0.0,0.0,0.0,0.0,0.0
26416000000,7,26416000000,imu_link,0.000478448252176,-0.378052612738,0.000448399728513,0.925783879762,0.0,0.0,0.0,0.0,0.0,0.0,0.0,0.0,0.0,-0.000912917447827,-0.0027110061339,0.00145552192216,0.0,0.0,0.0,0.0,0.0,0.0,0.0,0.0,0.0,6.70628899173,0.000798929452609,6.97602154707,0.0,0.0,0.0,0.0,0.0,0.0,0.0,0.0,0.0
26420000000,8,26420000000,imu_link,0.000475376940854,-0.3780579872,0.000450364107773,0.92578168566,0.0,0.0,0.0,0.0,0.0,0.0,0.0,0.0,0.0,-0.0010510459712,-0.00290137958111,0.00149163157942,0.0,0.0,0.0,0.0,0.0,0.0,0.0,0.0,0.0,6.70824078942,0.000670076213957,6.98242638846,0.0,0.0,0.0,0.0,0.0,0.0,0.0,0.0,0.0
26424000000,9,26424000000,imu_link,0.000472043893231,-0.378063967595,0.000452252810089,0.925779244231,0.0,0.0,0.0,0.0,0.0,0.0,0.0,0.0,0.0,-0.00118658410381,-0.00322857156425,0.00150627688166,0.0,0.0,0.0,0.0,0.0,0.0,0.0,0.0,0.0,6.70815121015,0.000642676930714,6.98323260597,0.0,0.0,0.0,0.0,0.0,0.0,0.0,0.0,0.0
26428000000,10,26428000000,imu_link,0.000468246238461,-0.378070602749,0.000454019240127,0.925776535644,0.0,0.0,0.0,0.0,0.0,0.0,0.0,0.0,0.0,-0.00142484430444,-0.00358207769288,0.00153771887279,0.0,0.0,0.0,0.0,0.0,0.0,0.0,0.0,0.0,6.7087288034,0.000667643549089,6.98318242609,0.0,0.0,0.0,0.0,0.0,0.0,0.0,0.0,0.0
26432000000,11,26432000000,imu_link,0.000463868042012,-0.37807775434,0.000455640079821,0.925773616438,0.0,0.0,0.0,0.0,0.0,0.0,0.0,0.0,0.0,-0.00172115987688,-0.00386084736419,0.00158023840413,0.0,0.0,0.0,0.0,0.0,0.0,0.0,0.0,0.0,6.70839786793,0.00065469154737,6.97978826839,0.0,0.0,0.0,0.0,0.0,0.0,0.0,0.0,0.0
26436000000,12,26436000000,imu_link,0.000459101345067,-0.378085162186,0.000457138990022,0.925770592741,0.0,0.0,0.0,0.0,0.0,0.0,0.0,0.0,0.0,-0.00192407519145,-0.00399915668737,0.00159732378741,0.0,0.0,0.0,0.0,0.0,0.0,0.0,0.0,0.0,6.70870670529,0.000536925064285,6.9766837519,0.0,0.0,0.0,0.0,0.0,0.0,0.0,0.0,0.0
26440000000,13,26440000000,imu_link,0.000454233099839,-0.378092508923,0.000458553419018,0.925767593998,0.0,0.0,0.0,0.0,0.0,0.0,0.0,0.0,0.0,-0.00198704270331,-0.00396614937483,0.00157739589818,0.0,0.0,0.0,0.0,0.0,0.0,0.0,0.0,0.0,6.70878818962,0.00040654284857,6.97251836115,0.0,0.0,0.0,0.0,0.0,0.0,0.0,0.0,0.0
26444000000,14,26444000000,imu_link,0.000449471289988,-0.378099518196,0.000459878672956,0.925764732979,0.0,0.0,0.0,0.0,0.0,0.0,0.0,0.0,0.0,-0.00195458760923,-0.00378395110881,0.00151588877864,0.0,0.0,0.0,0.0,0.0,0.0,0.0,0.0,0.0,6.70959640847,0.000351213635961,6.9705248009,0.0,0.0,0.0,0.0,0.0,0.0,0.0,0.0,0.0
26448000000,15,26448000000,imu_link,0.000444917805715,-0.378106240359,0.000461025223313,0.925761989123,0.0,0.0,0.0,0.0,0.0,0.0,0.0,0.0,0.0,-0.00189190155545,-0.0036289914294,0.0013936946773,0.0,0.0,0.0,0.0,0.0,0.0,0.0,0.0,0.0,6.71114872377,0.000349652874833,6.9728702626,0.0,0.0,0.0,0.0,0.0,0.0,0.0,0.0,0.0
26452000000,16,26452000000,imu_link,0.000440382462062,-0.378113083451,0.000461883091127,0.925759195931,0.0,0.0,0.0,0.0,0.0,0.0,0.0,0.0,0.0,-0.00193809784225,-0.00369436251695,0.00125667774868,0.0,0.0,0.0,0.0,0.0,0.0,0.0,0.0,0.0,6.71191996127,0.000451589183227,6.97686851219,0.0,0.0,0.0,0.0,0.0,0.0,0.0,0.0,0.0
26456000000,17,26456000000,imu_link,0.000435738984243,-0.378120490377,0.000462386313798,0.925756172589,0.0,0.0,0.0,0.0,0.0,0.0,0.0,0.0,0.0,-0.00205527846191,-0.00399891444918,0.00111314052086,0.0,0.0,0.0,0.0,0.0,0.0,0.0,0.0,0.0,6.71218927832,0.00054595798,6.98032382158,0.0,0.0,0.0,0.0,0.0,0.0,0.0,0.0,0.0
26460000000,18,26460000000,imu_link,0.000431077384677,-0.378128729851,0.000462548219053,0.925752809276,0.0,0.0,0.0,0.0,0.0,0.0,0.0,0.0,0.0,-0.00212831458548,-0.00444862734136,0.000958838256244,0.0,0.0,0.0,0.0,0.0,0.0,0.0,0.0,0.0,6.71333241217,0.00058853088735,6.98335114325,0.0,0.0,0.0,0.0,0.0,0.0,0.0,0.0,0.0
26464000000,19,26464000000,imu_link,0.000426564280478,-0.37813758431,0.000462409759741,0.925749194735,0.0,0.0,0.0,0.0,0.0,0.0,0.0,0.0,0.0,-0.00211645590102,-0.00478088722676,0.000791922059516,0.0,0.0,0.0,0.0,0.0,0.0,0.0,0.0,0.0,6.71352533197,0.000623585644264,6.9802229354,0.0,0.0,0.0,0.0,0.0,0.0,0.0,0.0,0.0
26468000000,20,26468000000,imu_link,0.000422403622679,-0.378146373148,0.000462011774514,0.925745606846,0.0,0.0,0.0,0.0,0.0,0.0,0.0,0.0,0.0,-0.00200237617965,-0.00474561076432,0.000605137332277,0.0,0.0,0.0,0.0,0.0,0.0,0.0,0.0,0.0,6.71543543888,0.000671911575831,6.97588350812,0.0,0.0,0.0,0.0,0.0,0.0,0.0,0.0,0.0
26472000000,21,26472000000,imu_link,0.000418592067266,-0.378154418608,0.000461401768571,0.925742322451,0.0,0.0,0.0,0.0,0.0,0.0,0.0,0.0,0.0,-0.00188076598509,-0.00434426404657,0.000440765697154,0.0,0.0,0.0,0.0,0.0,0.0,0.0,0.0,0.0,6.71723522077,0.000779904171051,6.97174159839,0.0,0.0,0.0,0.0,0.0,0.0,0.0,0.0,0.0
26476000000,22,26476000000,imu_link,0.00041515292069,-0.378161493247,0.000460623288638,0.925739434452,0.0,0.0,0.0,0.0,0.0,0.0,0.0,0.0,0.0,-0.00174010226159,-0.00382007065987,0.000292075284709,0.0,0.0,0.0,0.0,0.0,0.0,0.0,0.0,0.0,6.71667608116,0.00089346852329,6.96767870705,0.0,0.0,0.0,0.0,0.0,0.0,0.0,0.0,0.0
26480000000,23,26480000000,imu_link,0.000412323231689,-0.378167848097,0.000459729541447,0.9257368402,0.0,0.0,0.0,0.0,0.0,0.0,0.0,0.0,0.0,-0.00147969282411,-0.00343152436757,0.000123267802604,0.0,0.0,0.0,0.0,0.0,0.0,0.0,0.0,0.0,6.71684559662,0.000968343612152,6.9693128305,0.0,0.0,0.0,0.0,0.0,0.0,0.0,0.0,0.0
26484000000,24,26484000000,imu_link,0.000410434535387,-0.378174306771,0.000458794379306,0.925734203079,0.0,0.0,0.0,0.0,0.0,0.0,0.0,0.0,0.0,-0.00105198294897,-0.00348791213898,-7.37972025085e-05,0.0,0.0,0.0,0.0,0.0,0.0,0.0,0.0,0.0,6.71883167633,0.00102293943539,6.97916422138,0.0,0.0,0.0,0.0,0.0,0.0,0.0,0.0,0.0
26488000000,25,26488000000,imu_link,0.000409749562052,-0.378181666783,0.000457901819801,0.92573119713,0.0,0.0,0.0,0.0,0.0,0.0,0.0,0.0,0.0,-0.000486894651984,-0.00397512003356,-0.000281416815021,0.0,0.0,0.0,0.0,0.0,0.0,0.0,0.0,0.0,6.72040906238,0.00112246175844,6.98805091543,0.0,0.0,0.0,0.0,0.0,0.0,0.0,0.0,0.0
26492000000,26,26492000000,imu_link,0.000410402313885,-0.378190327728,0.000457112994004,0.925727658996,0.0,0.0,0.0,0.0,0.0,0.0,0.0,0.0,0.0,0.000151718583629,-0.00467819320486,-0.00048596524458,0.0,0.0,0.0,0.0,0.0,0.0,0.0,0.0,0.0,6.71949228125,0.00128902265389,6.98853252056,0.0,0.0,0.0,0.0,0.0,0.0,0.0,0.0,0.0
26496000000,27,26496000000,imu_link,0.000412312286265,-0.378200173533,0.000456441983052,0.925723636081,0.0,0.0,0.0,0.0,0.0,0.0,0.0,0.0,0.0,0.000755747388741,-0.00531855474924,-0.000668813405358,0.0,0.0,0.0,0.0,0.0,0.0,0.0,0.0,0.0,6.71981353175,0.00151905793177,6.98665844576,0.0,0.0,0.0,0.0,0.0,0.0,0.0,0.0,0.0
26500000000,28,26500000000,imu_link,0.000415186720459,-0.37821071316,0.000455860233056,0.925719329096,0.0,0.0,0.0,0.0,0.0,0.0,0.0,0.0,0.0,0.00121893940936,-0.00569361813507,-0.000809669863238,0.0,0.0,0.0,0.0,0.0,0.0,0.0,0.0,0.0,6.71983202786,0.00179625481837,6.98090088629,0.0,0.0,0.0,0.0,0.0,0.0,0.0,0.0,0.0
26504000000,29,26504000000,imu_link,0.000418732470449,-0.378221428572,0.000455328845848,0.925714949813,0.0,0.0,0.0,0.0,0.0,0.0,0.0,0.0,0.0,0.00153916322823,-0.0057887961993,-0.000913255402376,0.0,0.0,0.0,0.0,0.0,0.0,0.0,0.0,0.0,6.72003939537,0.00203649588165,6.97525351792,0.0,0.0,0.0,0.0,0.0,0.0,0.0,0.0,0.0
26508000000,30,26508000000,imu_link,0.000422653260971,-0.378232007908,0.000454796982692,0.925710625799,0.0,0.0,0.0,0.0,0.0,0.0,0.0,0.0,0.0,0.00171268294387,-0.00571544618314,-0.000984440953801,0.0,0.0,0.0,0.0,0.0,0.0,0.0,0.0,0.0,6.71969941916,0.00221697670609,6.97077931246,0.0,0.0,0.0,0.0,0.0,0.0,0.0,0.0,0.0
26512000000,31,26512000000,imu_link,0.000426871278655,-0.378242317379,0.000454227173816,0.925706411776,0.0,0.0,0.0,0.0,0.0,0.0,0.0,0.0,0.0,0.00184311809458,-0.00556981255435,-0.00105829678564,0.0,0.0,0.0,0.0,0.0,0.0,0.0,0.0,0.0,6.71764101319,0.00230957693347,6.96503166392,0.0,0.0,0.0,0.0,0.0,0.0,0.0,0.0,0.0
26516000000,32,26516000000,imu_link,0.000431495098455,-0.378252115965,0.000453591055595,0.925702406195,0.0,0.0,0.0,0.0,0.0,0.0,0.0,0.0,0.0,0.00201847594453,-0.00529403287425,-0.001165890427,0.0,0.0,0.0,0.0,0.0,0.0,0.0,0.0,0.0,6.71787373463,0.00235265999695,6.96245586479,0.0,0.0,0.0,0.0,0.0,0.0,0.0,0.0,0.0
26520000000,33,26520000000,imu_link,0.000436654141344,-0.378261093882,0.000452875442255,0.9256987356,0.0,0.0,0.0,0.0,0.0,0.0,0.0,0.0,0.0,0.00225128384871,-0.00485096927012,-0.00130416250234,0.0,0.0,0.0,0.0,0.0,0.0,0.0,0.0,0.0,6.71830476485,0.00242452073206,6.9593422994,0.0,0.0,0.0,0.0,0.0,0.0,0.0,0.0,0.0
26524000000,34,26524000000,imu_link,0.00044229062377,-0.37826903168,0.000452068077913,0.925695489719,0.0,0.0,0.0,0.0,0.0,0.0,0.0,0.0,0.0,0.002455056315,-0.00428935277851,-0.0014372510528,0.0,0.0,0.0,0.0,0.0,0.0,0.0,0.0,0.0,6.71817146166,0.00254389262492,6.95595611524,0.0,0.0,0.0,0.0,0.0,0.0,0.0,0.0,0.0
26528000000,35,26528000000,imu_link,0.000448125353779,-0.378275819158,0.000451140383506,0.925692713754,0.0,0.0,0.0,0.0,0.0,0.0,0.0,0.0,0.0,0.00252421228475,-0.00366812348413,-0.00153080161825,0.0,0.0,0.0,0.0,0.0,0.0,0.0,0.0,0.0,6.71826979068,0.00264347951879,6.95436269512,0.0,0.0,0.0,0.0,0.0,0.0,0.0,0.0,0.0
26532000000,36,26532000000,imu_link,0.000453758986136,-0.378281567459,0.0004500884906,0.92569036251,0.0,0.0,0.0,0.0,0.0,0.0,0.0,0.0,0.0,0.00240778356765,-0.00310679581531,-0.00155057989683,0.0,0.0,0.0,0.0,0.0,0.0,0.0,0.0,0.0,6.7169312445,0.0026738554633,6.95221569991,0.0,0.0,0.0,0.0,0.0,0.0,0.0,0.0,0.0
26536000000,37,26536000000,imu_link,0.000459019502511,-0.378286410939,0.000448935544395,0.925688381183,0.0,0.0,0.0,0.0,0.0,0.0,0.0,0.0,0.0,0.00221609503176,-0.00261797676785,-0.00152706901236,0.0,0.0,0.0,0.0,0.0,0.0,0.0,0.0,0.0,6.71754759396,0.0026383055161,6.95369812768,0.0,0.0,0.0,0.0,0.0,0.0,0.0,0.0,0.0
26540000000,38,26540000000,imu_link,0.000463893225639,-0.378290296013,0.000447694094136,0.925686791693,0.0,0.0,0.0,0.0,0.0,0.0,0.0,0.0,0.0,0.00202045528433,-0.00210020422272,-0.00149518120364,0.0,0.0,0.0,0.0,0.0,0.0,0.0,0.0,0.0,6.71666972586,0.00256526667674,6.9503536444,0.0,0.0,0.0,0.0,0.0,0.0,0.0,0.0,0.0
26544000000,39,26544000000,imu_link,0.000468408568349,-0.378293102877,0.000446374034714,0.925685643002,0.0,0.0,0.0,0.0,0.0,0.0,0.0,0.0,0.0,0.00183985184528,-0.00151772458399,-0.00146412777701,0.0,0.0,0.0,0.0,0.0,0.0,0.0,0.0,0.0,6.71701910765,0.00253315098529,6.94891385246,0.0,0.0,0.0,0.0,0.0,0.0,0.0,0.0,0.0
26548000000,40,26548000000,imu_link,0.000472660848661,-0.378294610493,0.000445002725755,0.925685025393,0.0,0.0,0.0,0.0,0.0,0.0,0.0,0.0,0.0,0.0017085672235,-0.000815878027383,-0.00143851373219,0.0,0.0,0.0,0.0,0.0,0.0,0.0,0.0,0.0,6.71780134737,0.00251467816008,6.94725701233,0.0,0.0,0.0,0.0,0.0,0.0,0.0,0.0,0.0
26552000000,41,26552000000,imu_link,0.00047658874489,-0.378294777954,0.000443582658536,0.925684955625,0.0,0.0,0.0,0.0,0.0,0.0,0.0,0.0,0.0,0.0015493747,-9.19141433317e-05,-0.00140016336736,0.0,0.0,0.0,0.0,0.0,0.0,0.0,0.0,0.0,6.71743423034,0.00251404263773,6.94513430587,0.0,0.0,0.0,0.0,0.0,0.0,0.0,0.0,0.0
26556000000,42,26556000000,imu_link,0.000479972973265,-0.378293809983,0.000442120343616,0.925685350151,0.0,0.0,0.0,0.0,0.0,0.0,0.0,0.0,0.0,0.00128989227204,0.000521542477042,-0.00131725758593,0.0,0.0,0.0,0.0,0.0,0.0,0.0,0.0,0.0,6.71809754657,0.00253266615718,6.94732033519,0.0,0.0,0.0,0.0,0.0,0.0,0.0,0.0,0.0
26560000000,43,26560000000,imu_link,0.000482542365521,-0.378292159238,0.000440623253532,0.925686024127,0.0,0.0,0.0,0.0,0.0,0.0,0.0,0.0,0.0,0.000906257598498,0.000890588701054,-0.00117945491838,0.0,0.0,0.0,0.0,0.0,0.0,0.0,0.0,0.0,6.71977827254,0.00253918369179,6.95370187097,0.0,0.0,0.0,0.0,0.0,0.0,0.0,0.0,0.0
26564000000,44,26564000000,imu_link,0.000483869916305,-0.378290437934,0.000439093311681,0.925686727589,0.0,0.0,0.0,0.0,0.0,0.0,0.0,0.0,0.0,0.000325274598168,0.000929089049825,-0.000959794203002,0.0,0.0,0.0,0.0,0.0,0.0,0.0,0.0,0.0,6.72214035301,0.00253943549717,6.96257912433,0.0,0.0,0.0,0.0,0.0,0.0,0.0,0.0,0.0
26568000000,45,26568000000,imu_link,0.000483633209076,-0.378289398893,0.000437532454094,0.925687153065,0.0,0.0,0.0,0.0,0.0,0.0,0.0,0.0,0.0,-0.000404661939832,0.000561063939305,-0.000678005327164,0.0,0.0,0.0,0.0,0.0,0.0,0.0,0.0,0.0,6.72438957924,0.00245858465605,6.97229420132,0.0,0.0,0.0,0.0,0.0,0.0,0.0,0.0,0.0
26572000000,46,26572000000,imu_link,0.000481759530549,-0.378289608491,0.000435936563343,0.925687069141,0.0,0.0,0.0,0.0,0.0,0.0,0.0,0.0,0.0,-0.00116909990593,-0.00011286082766,-0.000384182376873,0.0,0.0,0.0,0.0,0.0,0.0,0.0,0.0,0.0,6.72532120183,0.00225491998459,6.97779103271,0.0,0.0,0.0,0.0,0.0,0.0,0.0,0.0,0.0
26576000000,47,26576000000,imu_link,0.000478426001465,-0.378291194816,0.000434303490181,0.925686423371,0.0,0.0,0.0,0.0,0.0,0.0,0.0,0.0,0.0,-0.00185197990309,-0.000856030899803,-0.000124814777738,0.0,0.0,0.0,0.0,0.0,0.0,0.0,0.0,0.0,6.72513340123,0.00199149041431,6.97703302574,0.0,0.0,0.0,0.0,0.0,0.0,0.0,0.0,0.0
26580000000,48,26580000000,imu_link,0.000474139981188,-0.37829412342,0.000432649853801,0.925685229542,0.0,0.0,0.0,0.0,0.0,0.0,0.0,0.0,0.0,-0.00229688380293,-0.00158075679108,4.62672949858e-05,0.0,0.0,0.0,0.0,0.0,0.0,0.0,0.0,0.0,6.72635258646,0.00171533270054,6.97764151035,0.0,0.0,0.0,0.0,0.0,0.0,0.0,0.0,0.0
26584000000,49,26584000000,imu_link,0.00046936457401,-0.378298021666,0.000431000916071,0.925683639662,0.0,0.0,0.0,0.0,0.0,0.0,0.0,0.0,0.0,-0.00252262004667,-0.00210435334316,0.000141323673175,0.0,0.0,0.0,0.0,0.0,0.0,0.0,0.0,0.0,6.7281254779,0.00153426062021,6.97577565812,0.0,0.0,0.0,0.0,0.0,0.0,0.0,0.0,0.0
26588000000,50,26588000000,imu_link,0.000464318692247,-0.378302539184,0.000429396676945,0.925681796771,0.0,0.0,0.0,0.0,0.0,0.0,0.0,0.0,0.0,-0.00263942637524,-0.00243876632254,0.00021337191289,0.0,0.0,0.0,0.0,0.0,0.0,0.0,0.0,0.0,6.72833061368,0.00149666031116,6.9713986861,0.0,0.0,0.0,0.0,0.0,0.0,0.0,0.0,0.0
26592000000,51,26592000000,imu_link,0.000459064684091,-0.378307556598,0.000427878265755,0.92567974959,0.0,0.0,0.0,0.0,0.0,0.0,0.0,0.0,0.0,-0.00271958121752,-0.00270871594296,0.000292623879936,0.0,0.0,0.0,0.0,0.0,0.0,0.0,0.0,0.0,6.72903553834,0.00153674968152,6.97015121644,0.0,0.0,0.0,0.0,0.0,0.0,0.0,0.0,0.0
26596000000,52,26596000000,imu_link,0.000453336997698,-0.378313199056,0.00042643983147,0.925677447092,0.0,0.0,0.0,0.0,0.0,0.0,0.0,0.0,0.0,-0.00292376557788,-0.00304618534399,0.000419436498847,0.0,0.0,0.0,0.0,0.0,0.0,0.0,0.0,0.0,6.72976976871,0.00162458542272,6.97143619037,0.0,0.0,0.0,0.0,0.0,0.0,0.0,0.0,0.0
26600000000,53,26600000000,imu_link,0.000446860121884,-0.378319742199,0.000425047762518,0.925674776751,0.0,0.0,0.0,0.0,0.0,0.0,0.0,0.0,0.0,-0.00326185780989,-0.00353246710346,0.000582892881941,0.0,0.0,0.0,0.0,0.0,0.0,0.0,0.0,0.0,6.73015159995,0.00166996211042,6.97349002958,0.0,0.0,0.0,0.0,0.0,0.0,0.0,0.0,0.0
26604000000,54,26604000000,imu_link,0.000439806097929,-0.378327256008,0.000423704200846,0.925671709845,0.0,0.0,0.0,0.0,0.0,0.0,0.0,0.0,0.0,-0.00351992560283,-0.0040566087209,0.000714818288697,0.0,0.0,0.0,0.0,0.0,0.0,0.0,0.0,0.0,6.72998567215,0.00159570992466,6.97266312839,0.0,0.0,0.0,0.0,0.0,0.0,0.0,0.0,0.0
26608000000,55,26608000000,imu_link,0.000432632762763,-0.378335503957,0.000422443510167,0.925668342775,0.0,0.0,0.0,0.0,0.0,0.0,0.0,0.0,0.0,-0.00355956045342,-0.00445313084407,0.000775968326268,0.0,0.0,0.0,0.0,0.0,0.0,0.0,0.0,0.0,6.73157552176,0.00150094512504,6.97206728277,0.0,0.0,0.0,0.0,0.0,0.0,0.0,0.0,0.0
26612000000,56,26612000000,imu_link,0.000425883314048,-0.378344048687,0.000421294746745,0.925664854014,0.0,0.0,0.0,0.0,0.0,0.0,0.0,0.0,0.0,-0.00334223465418,-0.00461357685047,0.000747676341497,0.0,0.0,0.0,0.0,0.0,0.0,0.0,0.0,0.0,6.7337924403,0.00146648789604,6.97083200515,0.0,0.0,0.0,0.0,0.0,0.0,0.0,0.0,0.0
26616000000,57,26616000000,imu_link,0.00041989902805,-0.378352586294,0.000420245063453,0.92566136763,0.0,0.0,0.0,0.0,0.0,0.0,0.0,0.0,0.0,-0.00296934835407,-0.00460997100514,0.000648784440588,0.0,0.0,0.0,0.0,0.0,0.0,0.0,0.0,0.0,6.73452743906,0.00155211641998,6.96811093273,0.0,0.0,0.0,0.0,0.0,0.0,0.0,0.0,0.0
26620000000,58,26620000000,imu_link,0.000414784135554,-0.378360898238,0.00041925049494,0.92565797294,0.0,0.0,0.0,0.0,0.0,0.0,0.0,0.0,0.0,-0.00255651178931,-0.00448835177743,0.000509757967008,0.0,0.0,0.0,0.0,0.0,0.0,0.0,0.0,0.0,6.73462425671,0.00170248478392,6.96546917961,0.0,0.0,0.0,0.0,0.0,0.0,0.0,0.0,0.0
26624000000,59,26624000000,imu_link,0.000410678992776,-0.378368941116,0.000418291441356,0.925654687653,0.0,0.0,0.0,0.0,0.0,0.0,0.0,0.0,0.0,-0.00208241790684,-0.00434332727783,0.000335091664114,0.0,0.0,0.0,0.0,0.0,0.0,0.0,0.0,0.0,6.73410295425,0.00184684455274,6.96331853609,0.0,0.0,0.0,0.0,0.0,0.0,0.0,0.0,0.0
26628000000,60,26628000000,imu_link,0.000407790374456,-0.378376837193,0.000417367028131,0.925651461722,0.0,0.0,0.0,0.0,0.0,0.0,0.0,0.0,0.0,-0.00151280519085,-0.00426440190488,0.000120934076124,0.0,0.0,0.0,0.0,0.0,0.0,0.0,0.0,0.0,6.73259410327,0.00198532738027,6.96069728359,0.0,0.0,0.0,0.0,0.0,0.0,0.0,0.0,0.0
26632000000,61,26632000000,imu_link,0.000406070530959,-0.378384777235,0.000416453551519,0.925648217213,0.0,0.0,0.0,0.0,0.0,0.0,0.0,0.0,0.0,-0.00096980243524,-0.00428850685731,-9.51099968655e-05,0.0,0.0,0.0,0.0,0.0,0.0,0.0,0.0,0.0,6.73208411508,0.0022164514692,6.96040009307,0.0,0.0,0.0,0.0,0.0,0.0,0.0,0.0,0.0
26636000000,62,26636000000,imu_link,0.000405320907981,-0.378392846472,0.000415529647026,0.925644919388,0.0,0.0,0.0,0.0,0.0,0.0,0.0,0.0,0.0,-0.000522749940668,-0.00435859223156,-0.000283457276517,0.0,0.0,0.0,0.0,0.0,0.0,0.0,0.0,0.0,6.73227145547,0.00248419799788,6.96053429358,0.0,0.0,0.0,0.0,0.0,0.0,0.0,0.0,0.0
26640000000,63,26640000000,imu_link,0.000405157505007,-0.37840084785,0.000414573144449,0.925641648978,0.0,0.0,0.0,0.0,0.0,0.0,0.0,0.0,0.0,-0.0002575930552,-0.00432212712519,-0.000409474578138,0.0,0.0,0.0,0.0,0.0,0.0,0.0,0.0,0.0,6.73210464714,0.00276064918776,6.95754752104,0.0,0.0,0.0,0.0,0.0,0.0,0.0,0.0,0.0
26644000000,64,26644000000,imu_link,0.000405101496333,-0.37840849294,0.000413572825089,0.925638524113,0.0,0.0,0.0,0.0,0.0,0.0,0.0,0.0,0.0,-0.000216134520575,-0.00412972386314,-0.000450175290782,0.0,0.0,0.0,0.0,0.0,0.0,0.0,0.0,0.0,6.73382820896,0.00296833357439,6.95705955002,0.0,0.0,0.0,0.0,0.0,0.0,0.0,0.0,0.0
26648000000,65,26648000000,imu_link,0.000404911525085,-0.378415930924,0.00041253432388,0.925635483916,0.0,0.0,0.0,0.0,0.0,0.0,0.0,0.0,0.0,-0.000285333471473,-0.00401783119477,-0.000442559756166,0.0,0.0,0.0,0.0,0.0,0.0,0.0,0.0,0.0,6.73517965903,0.00305765446358,6.96010434459,0.0,0.0,0.0,0.0,0.0,0.0,0.0,0.0,0.0
26652000000,66,26652000000,imu_link,0.000404746708727,-0.378423591381,0.000411454212013,0.925632352704,0.0,0.0,0.0,0.0,0.0,0.0,0.0,0.0,0.0,-0.000281591872066,-0.00413803072199,-0.000466513597237,0.0,0.0,0.0,0.0,0.0,0.0,0.0,0.0,0.0,6.73639967944,0.00304616660113,6.96526833479,0.0,0.0,0.0,0.0,0.0,0.0,0.0,0.0,0.0
26656000000,67,26656000000,imu_link,0.000405056616697,-0.378431785607,0.000410389060131,0.925629002977,0.0,0.0,0.0,0.0,0.0,0.0,0.0,0.0,0.0,-5.91167578616e-05,-0.00442650734489,-0.000549260342064,0.0,0.0,0.0,0.0,0.0,0.0,0.0,0.0,0.0,6.73768117327,0.00301477503464,6.96934676583,0.0,0.0,0.0,0.0,0.0,0.0,0.0,0.0,0.0
26660000000,68,26660000000,imu_link,0.0004060325542,-0.378440562217,0.000409367501188,0.925625414747,0.0,0.0,0.0,0.0,0.0,0.0,0.0,0.0,0.0,0.000257308647537,-0.0047412996497,-0.000654941382136,0.0,0.0,0.0,0.0,0.0,0.0,0.0,0.0,0.0,6.73703280423,0.00308025823948,6.96724306594,0.0,0.0,0.0,0.0,0.0,0.0,0.0,0.0,0.0
26664000000,69,26664000000,imu_link,0.000407586986598,-0.378449768508,0.00040837388286,0.925621650471,0.0,0.0,0.0,0.0,0.0,0.0,0.0,0.0,0.0,0.00053027815857,-0.00497358572525,-0.000751349810615,0.0,0.0,0.0,0.0,0.0,0.0,0.0,0.0,0.0,6.73601971695,0.00319164291436,6.96275891312,0.0,0.0,0.0,0.0,0.0,0.0,0.0,0.0,0.0
26668000000,70,26668000000,imu_link,0.000409374333525,-0.378459246849,0.00040739902902,0.925617774739,0.0,0.0,0.0,0.0,0.0,0.0,0.0,0.0,0.0,0.000641591396635,-0.00512062727499,-0.000786660427521,0.0,0.0,0.0,0.0,0.0,0.0,0.0,0.0,0.0,6.73642888529,0.00330316818251,6.96120309009,0.0,0.0,0.0,0.0,0.0,0.0,0.0,0.0,0.0
26672000000,71,26672000000,imu_link,0.000410706798559,-0.378468865971,0.000406438394912,0.925613841523,0.0,0.0,0.0,0.0,0.0,0.0,0.0,0.0,0.0,0.000433741897436,-0.00519656448014,-0.0006939617543,0.0,0.0,0.0,0.0,0.0,0.0,0.0,0.0,0.0,6.73696439495,0.00342493887972,6.96016544272,0.0,0.0,0.0,0.0,0.0,0.0,0.0,0.0,0.0
26676000000,72,26676000000,imu_link,0.000410943077468,-0.378478397531,0.000405507824078,0.925609944465,0.0,0.0,0.0,0.0,0.0,0.0,0.0,0.0,0.0,-6.78812513263e-05,-0.00514896854459,-0.000472637432317,0.0,0.0,0.0,0.0,0.0,0.0,0.0,0.0,0.0,6.73793570713,0.00344230477712,6.95894277318,0.0,0.0,0.0,0.0,0.0,0.0,0.0,0.0,0.0
26680000000,73,26680000000,imu_link,0.000409788810287,-0.378487587235,0.000404617476788,0.925606187678,0.0,0.0,0.0,0.0,0.0,0.0,0.0,0.0,0.0,-0.000703780534132,-0.0049639208922,-0.000190974630356,0.0,0.0,0.0,0.0,0.0,0.0,0.0,0.0,0.0,6.73882692255,0.00334729036215,6.95724222366,0.0,0.0,0.0,0.0,0.0,0.0,0.0,0.0,0.0
26684000000,74,26684000000,imu_link,0.000407254511254,-0.378496251129,0.000403768310074,0.925602646386,0.0,0.0,0.0,0.0,0.0,0.0,0.0,0.0,0.0,-0.0013346081544,-0.00467950576297,8.90949982454e-05,0.0,0.0,0.0,0.0,0.0,0.0,0.0,0.0,0.0,6.73877241549,0.00320029379047,6.95448098644,0.0,0.0,0.0,0.0,0.0,0.0,0.0,0.0,0.0
26688000000,75,26688000000,imu_link,0.00040371346583,-0.378504289954,0.000402960112686,0.925599361022,0.0,0.0,0.0,0.0,0.0,0.0,0.0,0.0,0.0,-0.00179270427044,-0.00434157743543,0.000298401575184,0.0,0.0,0.0,0.0,0.0,0.0,0.0,0.0,0.0,6.73843403367,0.00299031783208,6.95223273658,0.0,0.0,0.0,0.0,0.0,0.0,0.0,0.0,0.0
26692000000,76,26692000000,imu_link,0.000399737718807,-0.378511973971,0.000402226114166,0.925596220814,0.0,0.0,0.0,0.0,0.0,0.0,0.0,0.0,0.0,-0.0019797995501,-0.00414979892343,0.000414908131423,0.0,0.0,0.0,0.0,0.0,0.0,0.0,0.0,0.0,6.7390454615,0.00280143877751,6.95514445829,0.0,0.0,0.0,0.0,0.0,0.0,0.0,0.0,0.0
26696000000,77,26696000000,imu_link,0.00039559157913,-0.378519801778,0.000401591911696,0.92559302174,0.0,0.0,0.0,0.0,0.0,0.0,0.0,0.0,0.0,-0.00203978710163,-0.00422743103667,0.000493381962656,0.0,0.0,0.0,0.0,0.0,0.0,0.0,0.0,0.0,6.73964105461,0.00273552990741,6.95980539527,0.0,0.0,0.0,0.0,0.0,0.0,0.0,0.0,0.0
26700000000,78,26700000000,imu_link,0.000391244597121,-0.378528138709,0.000401074919682,0.925589614393,0.0,0.0,0.0,0.0,0.0,0.0,0.0,0.0,0.0,-0.00211061402706,-0.00450240614581,0.000585780475017,0.0,0.0,0.0,0.0,0.0,0.0,0.0,0.0,0.0,6.7404862209,0.00275798862502,6.96358466578,0.0,0.0,0.0,0.0,0.0,0.0,0.0,0.0,0.0
26704000000,79,26704000000,imu_link,0.000386524243356,-0.378537143893,0.000400658457395,0.925585933755,0.0,0.0,0.0,0.0,0.0,0.0,0.0,0.0,0.0,-0.0022644624198,-0.00486330011626,0.000703156499515,0.0,0.0,0.0,0.0,0.0,0.0,0.0,0.0,0.0,6.74003688127,0.00279578478813,6.96308321694,0.0,0.0,0.0,0.0,0.0,0.0,0.0,0.0,0.0
26708000000,80,26708000000,imu_link,0.000381238483775,-0.378546849558,0.000400314395794,0.925581966708,0.0,0.0,0.0,0.0,0.0,0.0,0.0,0.0,0.0,-0.00251251005513,-0.0052415579842,0.000843869330948,0.0,0.0,0.0,0.0,0.0,0.0,0.0,0.0,0.0,6.73967671446,0.00281273684982,6.96151705556,0.0,0.0,0.0,0.0,0.0,0.0,0.0,0.0,0.0
26712000000,81,26712000000,imu_link,0.000375435698011,-0.37855704995,0.000400040885371,0.925577797351,0.0,0.0,0.0,0.0,0.0,0.0,0.0,0.0,0.0,-0.0027384921068,-0.00550868885782,0.000974513895434,0.0,0.0,0.0,0.0,0.0,0.0,0.0,0.0,0.0,6.73824104054,0.00272695434676,6.95597493846,0.0,0.0,0.0,0.0,0.0,0.0,0.0,0.0,0.0
26716000000,82,26716000000,imu_link,0.000369388093733,-0.378567552177,0.000399845326184,0.925573504437,0.0,0.0,0.0,0.0,0.0,0.0,0.0,0.0,0.0,-0.00283707408189,-0.00567169743326,0.00105700912268,0.0,0.0,0.0,0.0,0.0,0.0,0.0,0.0,0.0,6.73897074932,0.0025998692991,6.95426627909,0.0,0.0,0.0,0.0,0.0,0.0,0.0,0.0,0.0
26720000000,83,26720000000,imu_link,0.000363493987751,-0.378578208395,0.000399734455522,0.925569148261,0.0,0.0,0.0,0.0,0.0,0.0,0.0,0.0,0.0,-0.00275002604208,-0.00575495224131,0.00106718820146,0.0,0.0,0.0,0.0,0.0,0.0,0.0,0.0,0.0,6.73988104857,0.00248829312542,6.95327699146,0.0,0.0,0.0,0.0,0.0,0.0,0.0,0.0,0.0
26724000000,84,26724000000,imu_link,0.000358001525031,-0.378588983257,0.000399701301196,0.925564743187,0.0,0.0,0.0,0.0,0.0,0.0,0.0,0.0,0.0,-0.00254945570677,-0.0058191805453,0.00102715876629,0.0,0.0,0.0,0.0,0.0,0.0,0.0,0.0,0.0,6.74017740071,0.00251349072615,6.95258197014,0.0,0.0,0.0,0.0,0.0,0.0,0.0,0.0,0.0
26728000000,85,26728000000,imu_link,0.00035309151519,-0.378599854396,0.00039973728627,0.925560298299,0.0,0.0,0.0,0.0,0.0,0.0,0.0,0.0,0.0,-0.00226683118822,-0.00587137673904,0.000948925330833,0.0,0.0,0.0,0.0,0.0,0.0,0.0,0.0,0.0,6.74028955831,0.00262419083287,6.9517571984,0.0,0.0,0.0,0.0,0.0,0.0,0.0,0.0,0.0
26732000000,86,26732000000,imu_link,0.000348719357883,-0.378610750582,0.000399824151269,0.925555842767,0.0,0.0,0.0,0.0,0.0,0.0,0.0,0.0,0.0,-0.00200829527326,-0.00588508099266,0.000870662653676,0.0,0.0,0.0,0.0,0.0,0.0,0.0,0.0,0.0,6.73964338191,0.00276298069933,6.94898868019,0.0,0.0,0.0,0.0,0.0,0.0,0.0,0.0,0.0
26736000000,87,26736000000,imu_link,0.000344884825784,-0.378621420969,0.000399963058915,0.92555147921,0.0,0.0,0.0,0.0,0.0,0.0,0.0,0.0,0.0,-0.00174961314162,-0.00576327372271,0.00079291374287,0.0,0.0,0.0,0.0,0.0,0.0,0.0,0.0,0.0,6.74044991949,0.00287346602727,6.94712379927,0.0,0.0,0.0,0.0,0.0,0.0,0.0,0.0,0.0
26740000000,88,26740000000,imu_link,0.000341795631583,-0.378631612851,0.000400170801067,0.92554731094,0.0,0.0,0.0,0.0,0.0,0.0,0.0,0.0,0.0,-0.0013915957181,-0.00550500029273,0.000683546666784,0.0,0.0,0.0,0.0,0.0,0.0,0.0,0.0,0.0,6.74078411216,0.0029419089143,6.94458164418,0.0,0.0,0.0,0.0,0.0,0.0,0.0,0.0,0.0
26744000000,89,26744000000,imu_link,0.000339563096703,-0.378641175409,0.000400441613529,0.925543399646,0.0,0.0,0.0,0.0,0.0,0.0,0.0,0.0,0.0,-0.000983134144366,-0.00516527645771,0.000550395827205,0.0,0.0,0.0,0.0,0.0,0.0,0.0,0.0,0.0,6.74145410986,0.00305099037773,6.94345638156,0.0,0.0,0.0,0.0,0.0,0.0,0.0,0.0,0.0
26748000000,90,26748000000,imu_link,0.000338206566107,-0.37865010733,0.000400751393399,0.925539745896,0.0,0.0,0.0,0.0,0.0,0.0,0.0,0.0,0.0,-0.000570284280069,-0.00482484638458,0.000402424558869,0.0,0.0,0.0,0.0,0.0,0.0,0.0,0.0,0.0,6.7419833936,0.00320087965699,6.94356247148,0.0,0.0,0.0,0.0,0.0,0.0,0.0,0.0,0.0
26752000000,91,26752000000,imu_link,0.000337649074561,-0.378658560611,0.000401049107394,0.925536287581,0.0,0.0,0.0,0.0,0.0,0.0,0.0,0.0,0.0,-0.000202734593314,-0.0045665072074,0.000245442624501,0.0,0.0,0.0,0.0,0.0,0.0,0.0,0.0,0.0,6.74269671883,0.00337506930683,6.94539318274,0.0,0.0,0.0,0.0,0.0,0.0,0.0,0.0,0.0
26756000000,92,26756000000,imu_link,0.000338087894282,-0.378666741239,0.000401317631367,0.925532940376,0.0,0.0,0.0,0.0,0.0,0.0,0.0,0.0,0.0,0.000252835912024,-0.00441950086211,4.32352061948e-05,0.0,0.0,0.0,0.0,0.0,0.0,0.0,0.0,0.0,6.74376273983,0.00344623616269,6.94854101414,0.0,0.0,0.0,0.0,0.0,0.0,0.0,0.0,0.0
26760000000,93,26760000000,imu_link,0.000339755957563,-0.37867469284,0.000401571448965,0.925529686347,0.0,0.0,0.0,0.0,0.0,0.0,0.0,0.0,0.0,0.000818934412613,-0.00429612228652,-0.000196364650122,0.0,0.0,0.0,0.0,0.0,0.0,0.0,0.0,0.0,6.74411990423,0.00349911662091,6.94883140172,0.0,0.0,0.0,0.0,0.0,0.0,0.0,0.0,0.0
26764000000,94,26764000000,imu_link,0.000342608918279,-0.378682482558,0.000401823623241,0.925526498033,0.0,0.0,0.0,0.0,0.0,0.0,0.0,0.0,0.0,0.00136697348679,-0.00420900476837,-0.000421511152652,0.0,0.0,0.0,0.0,0.0,0.0,0.0,0.0,0.0,6.74356039217,0.00363288963021,6.94730964922,0.0,0.0,0.0,0.0,0.0,0.0,0.0,0.0,0.0
26768000000,95,26768000000,imu_link,0.000346293138885,-0.378689938284,0.000402085758341,0.925523445976,0.0,0.0,0.0,0.0,0.0,0.0,0.0,0.0,0.0,0.00175357977087,-0.00402881132392,-0.000574378018968,0.0,0.0,0.0,0.0,0.0,0.0,0.0,0.0,0.0,6.74412838505,0.00385063093573,6.94611361337,0.0,0.0,0.0,0.0,0.0,0.0,0.0,0.0,0.0
26772000000,96,26772000000,imu_link,0.000350315725887,-0.37869671008,0.000402353840204,0.925520673548,0.0,0.0,0.0,0.0,0.0,0.0,0.0,0.0,0.0,0.00191137785914,-0.00365943553593,-0.000635868696538,0.0,0.0,0.0,0.0,0.0,0.0,0.0,0.0,0.0,6.74619763624,0.00405895582236,6.94602711921,0.0,0.0,0.0,0.0,0.0,0.0,0.0,0.0,0.0
26776000000,97,26776000000,imu_link,0.000354461535027,-0.378702376057,0.00040263273382,0.925518353472,0.0,0.0,0.0,0.0,0.0,0.0,0.0,0.0,0.0,0.00197059059681,-0.00306207715739,-0.000654482051394,0.0,0.0,0.0,0.0,0.0,0.0,0.0,0.0,0.0,6.74645561647,0.00414232928237,6.94172884599,0.0,0.0,0.0,0.0,0.0,0.0,0.0,0.0,0.0
26780000000,98,26780000000,imu_link,0.000358721632769,-0.378706773564,0.000402912025386,0.92551655233,0.0,0.0,0.0,0.0,0.0,0.0,0.0,0.0,0.0,0.00202371744108,-0.00237684335385,-0.000676267860286,0.0,0.0,0.0,0.0,0.0,0.0,0.0,0.0,0.0,6.74674167021,0.00414736233747,6.93989555879,0.0,0.0,0.0,0.0,0.0,0.0,0.0,0.0,0.0
26784000000,99,26784000000,imu_link,0.000363151600747,-0.378710025723,0.000403179864899,0.925515219747,0.0,0.0,0.0,0.0,0.0,0.0,0.0,0.0,0.0,0.00210030451058,-0.0017581367022,-0.000714032722233,0.0,0.0,0.0,0.0,0.0,0.0,0.0,0.0,0.0,6.74628034055,0.00414642348488,6.93932278906,0.0,0.0,0.0,0.0,0.0,0.0,0.0,0.0,0.0
26788000000,100,26788000000,imu_link,0.000367733148283,-0.378712488575,0.00040342688715,0.925514210057,0.0,0.0,0.0,0.0,0.0,0.0,0.0,0.0,0.0,0.00216660773789,-0.00133177231211,-0.000752576827905,0.0,0.0,0.0,0.0,0.0,0.0,0.0,0.0,0.0,6.74728737863,0.00416919131822,6.94354707495,0.0,0.0,0.0,0.0,0.0,0.0,0.0,0.0,0.0
26792000000,101,26792000000,imu_link,0.000372275824121,-0.378714465163,0.000403650575805,0.925513399338,0.0,0.0,0.0,0.0,0.0,0.0,0.0,0.0,0.0,0.00214426272325,-0.00106907000388,-0.000756143559906,0.0,0.0,0.0,0.0,0.0,0.0,0.0,0.0,0.0,6.74781327735,0.00422052934934,6.94650619389,0.0,0.0,0.0,0.0,0.0,0.0,0.0,0.0,0.0
26796000000,102,26796000000,imu_link,0.000376731330967,-0.378716307247,0.000403876351224,0.925512643664,0.0,0.0,0.0,0.0,0.0,0.0,0.0,0.0,0.0,0.0021043367324,-0.000996386360567,-0.000738707962979,0.0,0.0,0.0,0.0,0.0,0.0,0.0,0.0,0.0,6.74895890488,0.00421501115717,6.95080080078,0.0,0.0,0.0,0.0,0.0,0.0,0.0,0.0,0.0
26800000000,103,26800000000,imu_link,0.000381128224329,-0.378718141155,0.000404142779493,0.925511891317,0.0,0.0,0.0,0.0,0.0,0.0,0.0,0.0,0.0,0.00208491194497,-0.000991953396673,-0.000708798870146,0.0,0.0,0.0,0.0,0.0,0.0,0.0,0.0,0.0,6.74962279089,0.00414767711591,6.9521692251,0.0,0.0,0.0,0.0,0.0,0.0,0.0,0.0,0.0
26804000000,104,26804000000,imu_link,0.000385659629744,-0.37872020276,0.000404509556021,0.925511045672,0.0,0.0,0.0,0.0,0.0,0.0,0.0,0.0,0.0,0.00216613181885,-0.00111499630677,-0.000687770949951,0.0,0.0,0.0,0.0,0.0,0.0,0.0,0.0,0.0,6.74986056316,0.00402276343237,6.95366356288,0.0,0.0,0.0,0.0,0.0,0.0,0.0,0.0,0.0
26808000000,105,26808000000,imu_link,0.000390557378356,-0.378722664307,0.000405020081387,0.925510036123,0.0,0.0,0.0,0.0,0.0,0.0,0.0,0.0,0.0,0.00236283016588,-0.00133115467942,-0.000690510895348,0.0,0.0,0.0,0.0,0.0,0.0,0.0,0.0,0.0,6.75065338416,0.00392251391976,6.95567231926,0.0,0.0,0.0,0.0,0.0,0.0,0.0,0.0,0.0
26812000000,106,26812000000,imu_link,0.000395851917572,-0.378725682749,0.000405653325115,0.925508798431,0.0,0.0,0.0,0.0,0.0,0.0,0.0,0.0,0.0,0.00256961689667,-0.0016321188892,-0.000708704203697,0.0,0.0,0.0,0.0,0.0,0.0,0.0,0.0,0.0,6.75059880725,0.00390980680918,6.95604452549,0.0,0.0,0.0,0.0,0.0,0.0,0.0,0.0,0.0
26816000000,107,26816000000,imu_link,0.000401460957048,-0.378729475277,0.000406362292073,0.925507243761,0.0,0.0,0.0,0.0,0.0,0.0,0.0,0.0,0.0,0.00272939817406,-0.00205040315521,-0.000733000105562,0.0,0.0,0.0,0.0,0.0,0.0,0.0,0.0,0.0,6.75149529184,0.00395528669745,6.95859262639,0.0,0.0,0.0,0.0,0.0,0.0,0.0,0.0,0.0
26820000000,108,26820000000,imu_link,0.000407343984843,-0.378734249319,0.000407114353796,0.925505287247,0.0,0.0,0.0,0.0,0.0,0.0,0.0,0.0,0.0,0.00286422912782,-0.0025807442538,-0.000764662906453,0.0,0.0,0.0,0.0,0.0,0.0,0.0,0.0,0.0,6.75165349201,0.00399277949597,6.95968753111,0.0,0.0,0.0,0.0,0.0,0.0,0.0,0.0,0.0
26824000000,109,26824000000,imu_link,0.000413548079989,-0.378740259146,0.000407914890298,0.925502824785,0.0,0.0,0.0,0.0,0.0,0.0,0.0,0.0,0.0,0.00302183491657,-0.00324847262129,-0.000802675990954,0.0,0.0,0.0,0.0,0.0,0.0,0.0,0.0,0.0,6.75275131005,0.0039959937478,6.96267512681,0.0,0.0,0.0,0.0,0.0,0.0,0.0,0.0,0.0
26828000000,110,26828000000,imu_link,0.000420104525145,-0.378747453321,0.000408766764029,0.925499877377,0.0,0.0,0.0,0.0,0.0,0.0,0.0,0.0,0.0,0.00319446583744,-0.00388842661486,-0.000845300382086,0.0,0.0,0.0,0.0,0.0,0.0,0.0,0.0,0.0,6.75304192827,0.0040116762919,6.96146920711,0.0,0.0,0.0,0.0,0.0,0.0,0.0,0.0,0.0
26832000000,111,26832000000,imu_link,0.000426997036815,-0.378755485074,0.000409656372423,0.92549658691,0.0,0.0,0.0,0.0,0.0,0.0,0.0,0.0,0.0,0.00335702742309,-0.00434104316694,-0.000891234786701,0.0,0.0,0.0,0.0,0.0,0.0,0.0,0.0,0.0,6.753711759,0.00404075541053,6.95823416417,0.0,0.0,0.0,0.0,0.0,0.0,0.0,0.0,0.0
26836000000,112,26836000000,imu_link,0.000434213429953,-0.378763823315,0.000410574316095,0.925493170712,0.0,0.0,0.0,0.0,0.0,0.0,0.0,0.0,0.0,0.00351223315614,-0.00450674088129,-0.000939367438015,0.0,0.0,0.0,0.0,0.0,0.0,0.0,0.0,0.0,6.75500793267,0.00407050768678,6.95449918423,0.0,0.0,0.0,0.0,0.0,0.0,0.0,0.0,0.0
26840000000,113,26840000000,imu_link,0.000441752907635,-0.378772056647,0.000411517929263,0.92548979714,0.0,0.0,0.0,0.0,0.0,0.0,0.0,0.0,0.0,0.00366661304641,-0.00445018232993,-0.000988706862682,0.0,0.0,0.0,0.0,0.0,0.0,0.0,0.0,0.0,6.75565588871,0.00409469264998,6.95094932112,0.0,0.0,0.0,0.0,0.0,0.0,0.0,0.0,0.0
26844000000,114,26844000000,imu_link,0.000449666078814,-0.37877998036,0.000412494718404,0.925486549944,0.0,0.0,0.0,0.0,0.0,0.0,0.0,0.0,0.0,0.00384585666508,-0.00428304392088,-0.00104422156784,0.0,0.0,0.0,0.0,0.0,0.0,0.0,0.0,0.0,6.75560760926,0.00411976869423,6.94802031301,0.0,0.0,0.0,0.0,0.0,0.0,0.0,0.0,0.0
26848000000,115,26848000000,imu_link,0.000457984463544,-0.378787603962,0.00041350941372,0.925483425214,0.0,0.0,0.0,0.0,0.0,0.0,0.0,0.0,0.0,0.00404057992351,-0.0041210505594,-0.00110351686373,0.0,0.0,0.0,0.0,0.0,0.0,0.0,0.0,0.0,6.75524689861,0.00410923368528,6.94685176413,0.0,0.0,0.0,0.0,0.0,0.0,0.0,0.0,0.0
26852000000,116,26852000000,imu_link,0.000466577205993,-0.378795130069,0.000414539114335,0.925480340093,0.0,0.0,0.0,0.0,0.0,0.0,0.0,0.0,0.0,0.00417038968188,-0.00406848737785,-0.00114856545266,0.0,0.0,0.0,0.0,0.0,0.0,0.0,0.0,0.0,6.75420033815,0.00408785508497,6.94604992252,0.0,0.0,0.0,0.0,0.0,0.0,0.0,0.0,0.0
26856000000,117,26856000000,imu_link,0.000475092871,-0.378802816032,0.000415539118501,0.925477189444,0.0,0.0,0.0,0.0,0.0,0.0,0.0,0.0,0.0,0.00412908057229,-0.00415486079054,-0.00114765803812,0.0,0.0,0.0,0.0,0.0,0.0,0.0,0.0,0.0,6.75465348536,0.00410419880813,6.94838254107,0.0,0.0,0.0,0.0,0.0,0.0,0.0,0.0,0.0
26860000000,118,26860000000,imu_link,0.00048327658635,-0.378810636088,0.000416527103627,0.925473983932,0.0,0.0,0.0,0.0,0.0,0.0,0.0,0.0,0.0,0.0039731834034,-0.00422723601993,-0.00109030472674,0.0,0.0,0.0,0.0,0.0,0.0,0.0,0.0,0.0,6.75487990044,0.00409350344416,6.94792658971,0.0,0.0,0.0,0.0,0.0,0.0,0.0,0.0,0.0
26864000000,119,26864000000,imu_link,0.000491321283281,-0.378818588548,0.000417560713245,0.925470724127,0.0,0.0,0.0,0.0,0.0,0.0,0.0,0.0,0.0,0.00391748150375,-0.00429874720736,-0.00104281845834,0.0,0.0,0.0,0.0,0.0,0.0,0.0,0.0,0.0,6.75503330146,0.00398531827526,6.94711063405,0.0,0.0,0.0,0.0,0.0,0.0,0.0,0.0,0.0
26868000000,120,26868000000,imu_link,0.000499718895542,-0.378826588539,0.000418688555748,0.925467444482,0.0,0.0,0.0,0.0,0.0,0.0,0.0,0.0,0.0,0.00409863144176,-0.0043245501762,-0.00106604319467,0.0,0.0,0.0,0.0,0.0,0.0,0.0,0.0,0.0,6.75687822383,0.0038582939507,6.94877977029,0.0,0.0,0.0,0.0,0.0,0.0,0.0,0.0,0.0
26872000000,121,26872000000,imu_link,0.00050864032822,-0.378834758186,0.00041993024946,0.925464094892,0.0,0.0,0.0,0.0,0.0,0.0,0.0,0.0,0.0,0.00436256770558,-0.00441638579589,-0.00111252191883,0.0,0.0,0.0,0.0,0.0,0.0,0.0,0.0,0.0,6.75612697109,0.00384243094581,6.94759892582,0.0,0.0,0.0,0.0,0.0,0.0,0.0,0.0,0.0
26876000000,122,26876000000,imu_link,0.000517942291603,-0.378843215185,0.000421255989555,0.925460627249,0.0,0.0,0.0,0.0,0.0,0.0,0.0,0.0,0.0,0.00455454099281,-0.00457177186339,-0.00114561222649,0.0,0.0,0.0,0.0,0.0,0.0,0.0,0.0,0.0,6.75553948806,0.00390192912636,6.94669743654,0.0,0.0,0.0,0.0,0.0,0.0,0.0,0.0,0.0
26880000000,123,26880000000,imu_link,0.000527061575492,-0.378852120421,0.00042256472784,0.925456976038,0.0,0.0,0.0,0.0,0.0,0.0,0.0,0.0,0.0,0.00446674227006,-0.00481392263439,-0.00111872129129,0.0,0.0,0.0,0.0,0.0,0.0,0.0,0.0,0.0,6.75766298665,0.00401226895225,6.95091945905,0.0,0.0,0.0,0.0,0.0,0.0,0.0,0.0,0.0
26884000000,124,26884000000,imu_link,0.000535342386452,-0.378861397514,0.000423748397791,0.925453172948,0.0,0.0,0.0,0.0,0.0,0.0,0.0,0.0,0.0,0.00405502721655,-0.00501461755124,-0.001017635263,0.0,0.0,0.0,0.0,0.0,0.0,0.0,0.0,0.0,6.75981504864,0.00406188385812,6.95333528394,0.0,0.0,0.0,0.0,0.0,0.0,0.0,0.0,0.0
26888000000,125,26888000000,imu_link,0.000542378640782,-0.37887081955,0.000424750645131,0.925449311149,0.0,0.0,0.0,0.0,0.0,0.0,0.0,0.0,0.0,0.00344475576764,-0.00509259258341,-0.000865775860625,0.0,0.0,0.0,0.0,0.0,0.0,0.0,0.0,0.0,6.76113333907,0.00399528430018,6.95267691202,0.0,0.0,0.0,0.0,0.0,0.0,0.0,0.0,0.0
26892000000,126,26892000000,imu_link,0.000548006228163,-0.378879935204,0.000425591472748,0.925445575526,0.0,0.0,0.0,0.0,0.0,0.0,0.0,0.0,0.0,0.00276238307819,-0.00492666389974,-0.00067372723033,0.0,0.0,0.0,0.0,0.0,0.0,0.0,0.0,0.0,6.76201915411,0.00378555960431,6.94924601978,0.0,0.0,0.0,0.0,0.0,0.0,0.0,0.0,0.0
26896000000,127,26896000000,imu_link,0.00055225226195,-0.37888828123,0.00042627217057,0.925442155759,0.0,0.0,0.0,0.0,0.0,0.0,0.0,0.0,0.0,0.00209284899216,-0.00451045385695,-0.000486379560331,0.0,0.0,0.0,0.0,0.0,0.0,0.0,0.0,0.0,6.76246394742,0.00348087481261,6.94499230793,0.0,0.0,0.0,0.0,0.0,0.0,0.0,0.0,0.0
26900000000,128,26900000000,imu_link,0.000555250485126,-0.378895578763,0.000426791512959,0.925439165986,0.0,0.0,0.0,0.0,0.0,0.0,0.0,0.0,0.0,0.00148499761969,-0.00394361306659,-0.000325032874877,0.0,0.0,0.0,0.0,0.0,0.0,0.0,0.0,0.0,6.76160961639,0.00319293208901,6.94039595486,0.0,0.0,0.0,0.0,0.0,0.0,0.0,0.0,0.0
26904000000,129,26904000000,imu_link,0.000557244389831,-0.378901785875,0.00042715698162,0.925436623263,0.0,0.0,0.0,0.0,0.0,0.0,0.0,0.0,0.0,0.000991237335986,-0.00335418989574,-0.000206365474517,0.0,0.0,0.0,0.0,0.0,0.0,0.0,0.0,0.0,6.76129227097,0.00295850240117,6.93929006199,0.0,0.0,0.0,0.0,0.0,0.0,0.0,0.0,0.0
26908000000,130,26908000000,imu_link,0.000558324326442,-0.37890723947,0.000427401468002,0.925434389614,0.0,0.0,0.0,0.0,0.0,0.0,0.0,0.0,0.0,0.000545482182198,-0.0029468073446,-8.94700774446e-05,0.0,0.0,0.0,0.0,0.0,0.0,0.0,0.0,0.0,6.76133794121,0.00280629531868,6.94200484709,0.0,0.0,0.0,0.0,0.0,0.0,0.0,0.0,0.0
26912000000,131,26912000000,imu_link,0.000558403287528,-0.378912339692,0.000427578584533,0.925432301247,0.0,0.0,0.0,0.0,0.0,0.0,0.0,0.0,0.0,6.95850920903e-05,-0.00275557652153,6.88654752855e-05,0.0,0.0,0.0,0.0,0.0,0.0,0.0,0.0,0.0,6.76165192451,0.00270673697764,6.9455125701,0.0,0.0,0.0,0.0,0.0,0.0,0.0,0.0,0.0
26916000000,132,26916000000,imu_link,0.000557321161445,-0.378917535762,0.00042769527804,0.925430174331,0.0,0.0,0.0,0.0,0.0,0.0,0.0,0.0,0.0,-0.000479125936484,-0.00280699878326,0.00026091689657,0.0,0.0,0.0,0.0,0.0,0.0,0.0,0.0,0.0,6.76211797033,0.00261065113327,6.94950688001,0.0,0.0,0.0,0.0,0.0,0.0,0.0,0.0,0.0
26920000000,133,26920000000,imu_link,0.000555104404039,-0.378922909895,0.00042775537642,0.925427975177,0.0,0.0,0.0,0.0,0.0,0.0,0.0,0.0,0.0,-0.0010148773597,-0.00290285082737,0.000449760396625,0.0,0.0,0.0,0.0,0.0,0.0,0.0,0.0,0.0,6.76116538479,0.00247394308288,6.94763248478,0.0,0.0,0.0,0.0,0.0,0.0,0.0,0.0,0.0
26924000000,134,26924000000,imu_link,0.000551985238143,-0.37892841277,0.000427775434164,0.925425723824,0.0,0.0,0.0,0.0,0.0,0.0,0.0,0.0,0.0,-0.00144003359464,-0.00297212925041,0.000602251556849,0.0,0.0,0.0,0.0,0.0,0.0,0.0,0.0,0.0,6.76088085824,0.00231409809598,6.94574992313,0.0,0.0,0.0,0.0,0.0,0.0,0.0,0.0,0.0
26928000000,135,26928000000,imu_link,0.000548331552651,-0.378933994361,0.000427768940186,0.92542344052,0.0,0.0,0.0,0.0,0.0,0.0,0.0,0.0,0.0,-0.00169240130536,-0.00301449841228,0.000691266623538,0.0,0.0,0.0,0.0,0.0,0.0,0.0,0.0,0.0,6.76105288506,0.00217527354033,6.94476685527,0.0,0.0,0.0,0.0,0.0,0.0,0.0,0.0,0.0
26932000000,136,26932000000,imu_link,0.000544364968025,-0.378939732867,0.000427725794034,0.925421093109,0.0,0.0,0.0,0.0,0.0,0.0,0.0,0.0,0.0,-0.00184414376569,-0.00309919449629,0.000733648024616,0.0,0.0,0.0,0.0,0.0,0.0,0.0,0.0,0.0,6.7610249764,0.00211150238578,6.94460239342,0.0,0.0,0.0,0.0,0.0,0.0,0.0,0.0,0.0
26936000000,137,26936000000,imu_link,0.000540105812249,-0.378945721191,0.000427589013405,0.925418643558,0.0,0.0,0.0,0.0,0.0,0.0,0.0,0.0,0.0,-0.0019972860599,-0.00323410318688,0.000745845621614,0.0,0.0,0.0,0.0,0.0,0.0,0.0,0.0,0.0,6.76155031671,0.00210863692155,6.94546985352,0.0,0.0,0.0,0.0,0.0,0.0,0.0,0.0,0.0
26940000000,138,26940000000,imu_link,0.000535576785098,-0.378952017762,0.000427315971066,0.925416067935,0.0,0.0,0.0,0.0,0.0,0.0,0.0,0.0,0.0,-0.002148007812,-0.00340059799594,0.000734039556018,0.0,0.0,0.0,0.0,0.0,0.0,0.0,0.0,0.0,6.76183084036,0.00208211221752,6.94563819952,0.0,0.0,0.0,0.0,0.0,0.0,0.0,0.0,0.0
26944000000,139,26944000000,imu_link,0.000530919678892,-0.378958631574,0.000426917586822,0.925413362461,0.0,0.0,0.0,0.0,0.0,0.0,0.0,0.0,0.0,-0.0022310533126,-0.00357199802568,0.000700423454406,0.0,0.0,0.0,0.0,0.0,0.0,0.0,0.0,0.0,6.76232113307,0.00202118474215,6.94551543515,0.0,0.0,0.0,0.0,0.0,0.0,0.0,0.0,0.0
26948000000,140,26948000000,imu_link,0.00052637065727,-0.378965639379,0.000426438006372,0.92541049554,0.0,0.0,0.0,0.0,0.0,0.0,0.0,0.0,0.0,-0.00219646809819,-0.0037849367916,0.000642512686599,0.0,0.0,0.0,0.0,0.0,0.0,0.0,0.0,0.0,6.7639727511,0.00200789850883,6.94797086212,0.0,0.0,0.0,0.0,0.0,0.0,0.0,0.0,0.0
26952000000,141,26952000000,imu_link,0.000522098221544,-0.378973180662,0.000425909458427,0.92540740993,0.0,0.0,0.0,0.0,0.0,0.0,0.0,0.0,0.0,-0.00207782504364,-0.00407328936057,0.000567633926265,0.0,0.0,0.0,0.0,0.0,0.0,0.0,0.0,0.0,6.76387896973,0.00206818527569,6.94822141878,0.0,0.0,0.0,0.0,0.0,0.0,0.0,0.0,0.0
26956000000,142,26956000000,imu_link,0.000518317020014,-0.378981505937,0.000425384504396,0.925404002884,0.0,0.0,0.0,0.0,0.0,0.0,0.0,0.0,0.0,-0.00184993120713,-0.00449705700006,0.000476487662571,0.0,0.0,0.0,0.0,0.0,0.0,0.0,0.0,0.0,6.76413658896,0.0021596654425,6.95009426626,0.0,0.0,0.0,0.0,0.0,0.0,0.0,0.0,0.0
26960000000,143,26960000000,imu_link,0.00051528608461,-0.378990938539,0.000424933035186,0.925400141786,0.0,0.0,0.0,0.0,0.0,0.0,0.0,0.0,0.0,-0.0014889747232,-0.00509559863224,0.00036870428939,0.0,0.0,0.0,0.0,0.0,0.0,0.0,0.0,0.0,6.76472448873,0.00225240984894,6.95308458222,0.0,0.0,0.0,0.0,0.0,0.0,0.0,0.0,0.0
26964000000,144,26964000000,imu_link,0.000513114291446,-0.379001587666,0.000424576602894,0.925395781812,0.0,0.0,0.0,0.0,0.0,0.0,0.0,0.0,0.0,-0.00107357042142,-0.00575317741904,0.000250293739652,0.0,0.0,0.0,0.0,0.0,0.0,0.0,0.0,0.0,6.76463948996,0.00239778049383,6.95293624747,0.0,0.0,0.0,0.0,0.0,0.0,0.0,0.0,0.0
26968000000,145,26968000000,imu_link,0.000511733845351,-0.379013056542,0.000424330192606,0.925391085457,0.0,0.0,0.0,0.0,0.0,0.0,0.0,0.0,0.0,-0.000686654266921,-0.00619635797809,0.000151521513899,0.0,0.0,0.0,0.0,0.0,0.0,0.0,0.0,0.0,6.76577362831,0.00257456560087,6.95020032954,0.0,0.0,0.0,0.0,0.0,0.0,0.0,0.0,0.0
26972000000,146,26972000000,imu_link,0.000510715176874,-0.379024774308,0.000424177995383,0.925386286749,0.0,0.0,0.0,0.0,0.0,0.0,0.0,0.0,0.0,-0.000501434001177,-0.00633096727294,0.000126639656938,0.0,0.0,0.0,0.0,0.0,0.0,0.0,0.0,0.0,6.76729425923,0.00279103854716,6.94657962646,0.0,0.0,0.0,0.0,0.0,0.0,0.0,0.0,0.0
26976000000,147,26976000000,imu_link,0.000509630001137,-0.379036220182,0.000424115583518,0.92538159923,0.0,0.0,0.0,0.0,0.0,0.0,0.0,0.0,0.0,-0.000515161744816,-0.00618405648517,0.000180693664587,0.0,0.0,0.0,0.0,0.0,0.0,0.0,0.0,0.0,6.7683919898,0.00294394269437,6.94316050533,0.0,0.0,0.0,0.0,0.0,0.0,0.0,0.0,0.0
26980000000,148,26980000000,imu_link,0.000508359032835,-0.379047189439,0.000424138600408,0.925377106836,0.0,0.0,0.0,0.0,0.0,0.0,0.0,0.0,0.0,-0.00058488460961,-0.00592648862347,0.00025526899215,0.0,0.0,0.0,0.0,0.0,0.0,0.0,0.0,0.0,6.76838337234,0.0030027256634,6.94040748437,0.0,0.0,0.0,0.0,0.0,0.0,0.0,0.0,0.0
26984000000,149,26984000000,imu_link,0.000507194960529,-0.379057590279,0.00042425548143,0.925372847026,0.0,0.0,0.0,0.0,0.0,0.0,0.0,0.0,0.0,-0.000517574162581,-0.00561940781548,0.000278245734489,0.0,0.0,0.0,0.0,0.0,0.0,0.0,0.0,0.0,6.76849896466,0.00293024151101,6.93921139502,0.0,0.0,0.0,0.0,0.0,0.0,0.0,0.0,0.0
26988000000,150,26988000000,imu_link,0.00050654635414,-0.379067356332,0.000424471849143,0.925368846784,0.0,0.0,0.0,0.0,0.0,0.0,0.0,0.0,0.0,-0.000260150657694,-0.00527658848053,0.000226365199393,0.0,0.0,0.0,0.0,0.0,0.0,0.0,0.0,0.0,6.76883546826,0.00284507344702,6.93872836328,0.0,0.0,0.0,0.0,0.0,0.0,0.0,0.0,0.0
26992000000,151,26992000000,imu_link,0.000506544436954,-0.379076436652,0.000424759877477,0.925365126946,0.0,0.0,0.0,0.0,0.0,0.0,0.0,0.0,0.0,5.27189824258e-05,-0.00490628376705,0.000136718879474,0.0,0.0,0.0,0.0,0.0,0.0,0.0,0.0,0.0,6.76962225292,0.00287579089499,6.93923753844,0.0,0.0,0.0,0.0,0.0,0.0,0.0,0.0,0.0
26996000000,152,26996000000,imu_link,0.000507037701904,-0.379084791603,0.000425101389221,0.925361703863,0.0,0.0,0.0,0.0,0.0,0.0,0.0,0.0,0.0,0.000292047166822,-0.00451451345924,6.73620402067e-05,0.0,0.0,0.0,0.0,0.0,0.0,0.0,0.0,0.0,6.76921041257,0.00302153413397,6.93762094837,0.0,0.0,0.0,0.0,0.0,0.0,0.0,0.0,0.0
27000000000,153,27000000000,imu_link,0.00050762886493,-0.379092528635,0.000425451463653,0.925358533779,0.0,0.0,0.0,0.0,0.0,0.0,0.0,0.0,0.0,0.000339032923868,-0.00418067869365,5.25575673832e-05,0.0,0.0,0.0,0.0,0.0,0.0,0.0,0.0,0.0,6.76964570625,0.00321490121775,6.93895013482,0.0,0.0,0.0,0.0,0.0,0.0,0.0,0.0,0.0
27004000000,154,27004000000,imu_link,0.000507680605233,-0.37909995034,0.000425720902278,0.925355493135,0.0,0.0,0.0,0.0,0.0,0.0,0.0,0.0,0.0,7.42032219267e-05,-0.00401015464174,0.000117387043704,0.0,0.0,0.0,0.0,0.0,0.0,0.0,0.0,0.0,6.77164581472,0.00336343592747,6.94476880494,0.0,0.0,0.0,0.0,0.0,0.0,0.0,0.0,0.0
27008000000,155,27008000000,imu_link,0.000506674683369,-0.37910698098,0.000425851647764,0.925352613279,0.0,0.0,0.0,0.0,0.0,0.0,0.0,0.0,0.0,-0.000441400379432,-0.00379854991903,0.000253563158375,0.0,0.0,0.0,0.0,0.0,0.0,0.0,0.0,0.0,6.77341041968,0.00338569191176,6.94651411825,0.0,0.0,0.0,0.0,0.0,0.0,0.0,0.0,0.0
27012000000,156,27012000000,imu_link,0.000504430297143,-0.379113397098,0.000425809357369,0.925349985885,0.0,0.0,0.0,0.0,0.0,0.0,0.0,0.0,0.0,-0.00104714116204,-0.00346615049143,0.000408049361829,0.0,0.0,0.0,0.0,0.0,0.0,0.0,0.0,0.0,6.77313636957,0.00328869117378,6.94333106722,0.0,0.0,0.0,0.0,0.0,0.0,0.0,0.0,0.0
27016000000,157,27016000000,imu_link,0.000500988786253,-0.37911890796,0.000425577520525,0.925347730057,0.0,0.0,0.0,0.0,0.0,0.0,0.0,0.0,0.0,-0.00163685158787,-0.0029766711029,0.000546966531154,0.0,0.0,0.0,0.0,0.0,0.0,0.0,0.0,0.0,6.77313655782,0.00314325480561,6.93996769009,0.0,0.0,0.0,0.0,0.0,0.0,0.0,0.0,0.0
27020000000,158,27020000000,imu_link,0.00049670624647,-0.379123268777,0.000425176445631,0.925345945893,0.0,0.0,0.0,0.0,0.0,0.0,0.0,0.0,0.0,-0.00205792778111,-0.00235503031201,0.000627701042038,0.0,0.0,0.0,0.0,0.0,0.0,0.0,0.0,0.0,6.77341030018,0.00295455676545,6.9377495317,0.0,0.0,0.0,0.0,0.0,0.0,0.0,0.0,0.0
27024000000,159,27024000000,imu_link,0.000491951697835,-0.379126535226,0.000424673783811,0.92534461036,0.0,0.0,0.0,0.0,0.0,0.0,0.0,0.0,0.0,-0.00229544927339,-0.00176357747366,0.000669807122487,0.0,0.0,0.0,0.0,0.0,0.0,0.0,0.0,0.0,6.7744233806,0.00281849858528,6.9396335721,0.0,0.0,0.0,0.0,0.0,0.0,0.0,0.0,0.0
27028000000,160,27028000000,imu_link,0.000486998249333,-0.379128888322,0.000424149775374,0.925343649121,0.0,0.0,0.0,0.0,0.0,0.0,0.0,0.0,0.0,-0.00239141939587,-0.00127000506892,0.000697330603757,0.0,0.0,0.0,0.0,0.0,0.0,0.0,0.0,0.0,6.77461855398,0.00271049218832,6.94103226508,0.0,0.0,0.0,0.0,0.0,0.0,0.0,0.0,0.0
27032000000,161,27032000000,imu_link,0.000481994021217,-0.379130604333,0.00042369781861,0.925342948868,0.0,0.0,0.0,0.0,0.0,0.0,0.0,0.0,0.0,-0.00240118369764,-0.000925741899978,0.000740082413956,0.0,0.0,0.0,0.0,0.0,0.0,0.0,0.0,0.0,6.77519355863,0.00262691823009,6.94393474704,0.0,0.0,0.0,0.0,0.0,0.0,0.0,0.0,0.0
27036000000,162,27036000000,imu_link,0.000476996463938,-0.379132009025,0.000423375904615,0.925342376075,0.0,0.0,0.0,0.0,0.0,0.0,0.0,0.0,0.0,-0.00237341045964,-0.000757511318711,0.000798882905218,0.0,0.0,0.0,0.0,0.0,0.0,0.0,0.0,0.0,6.77520227925,0.00259111518682,6.94613445678,0.0,0.0,0.0,0.0,0.0,0.0,0.0,0.0,0.0
27040000000,163,27040000000,imu_link,0.000471946156471,-0.379133179244,0.00042319370815,0.925341899284,0.0,0.0,0.0,0.0,0.0,0.0,0.0,0.0,0.0,-0.00237130401894,-0.000630784344267,0.000873449579543,0.0,0.0,0.0,0.0,0.0,0.0,0.0,0.0,0.0,6.77475020204,0.0026558299466,6.94535754489,0.0,0.0,0.0,0.0,0.0,0.0,0.0,0.0,0.0
27044000000,164,27044000000,imu_link,0.000466853593845,-0.379134329644,0.000423126887977,0.925341430552,0.0,0.0,0.0,0.0,0.0,0.0,0.0,0.0,0.0,-0.00236898047155,-0.000620050770419,0.000934834622115,0.0,0.0,0.0,0.0,0.0,0.0,0.0,0.0,0.0,6.77473057568,0.00274723474793,6.9464737526,0.0,0.0,0.0,0.0,0.0,0.0,0.0,0.0,0.0
27048000000,165,27048000000,imu_link,0.000461824781672,-0.379135752565,0.000423125993335,0.925340850071,0.0,0.0,0.0,0.0,0.0,0.0,0.0,0.0,0.0,-0.002327019258,-0.000767320133716,0.000953338697469,0.0,0.0,0.0,0.0,0.0,0.0,0.0,0.0,0.0,6.77550676412,0.00279277222026,6.94982491052,0.0,0.0,0.0,0.0,0.0,0.0,0.0,0.0,0.0
27052000000,166,27052000000,imu_link,0.000457036166532,-0.379137539495,0.000423185478851,0.925340120268,0.0,0.0,0.0,0.0,0.0,0.0,0.0,0.0,0.0,-0.00220448358694,-0.000964080344488,0.000935856815131,0.0,0.0,0.0,0.0,0.0,0.0,0.0,0.0,0.0,6.7755415352,0.00281716239279,6.94982713249,0.0,0.0,0.0,0.0,0.0,0.0,0.0,0.0,0.0
27056000000,167,27056000000,imu_link,0.000452532531165,-0.379139660343,0.000423322706325,0.925339253445,0.0,0.0,0.0,0.0,0.0,0.0,0.0,0.0,0.0,-0.00205793387423,-0.00114459116425,0.000917907725336,0.0,0.0,0.0,0.0,0.0,0.0,0.0,0.0,0.0,6.77531676046,0.00287932185008,6.94812067066,0.0,0.0,0.0,0.0,0.0,0.0,0.0,0.0,0.0
27060000000,168,27060000000,imu_link,0.00044842348154,-0.379142346772,0.000423557924076,0.925338154622,0.0,0.0,0.0,0.0,0.0,0.0,0.0,0.0,0.0,-0.00185686225387,-0.00145030992105,0.000888620375139,0.0,0.0,0.0,0.0,0.0,0.0,0.0,0.0,0.0,6.77517216151,0.0029343932051,6.94873869324,0.0,0.0,0.0,0.0,0.0,0.0,0.0,0.0,0.0
27064000000,169,27064000000,imu_link,0.00044486617298,-0.379145944204,0.000423877639798,0.925336682195,0.0,0.0,0.0,0.0,0.0,0.0,0.0,0.0,0.0,-0.00158567950915,-0.00194272521431,0.000823404151751,0.0,0.0,0.0,0.0,0.0,0.0,0.0,0.0,0.0,6.77517267173,0.00299260253874,6.95090221677,0.0,0.0,0.0,0.0,0.0,0.0,0.0,0.0,0.0
27068000000,170,27068000000,imu_link,0.000441898019424,-0.379150857901,0.000424240756184,0.925334670105,0.0,0.0,0.0,0.0,0.0,0.0,0.0,0.0,0.0,-0.00130502747739,-0.0026541395432,0.000732203555333,0.0,0.0,0.0,0.0,0.0,0.0,0.0,0.0,0.0,6.77534878197,0.00308800549429,6.95397620693,0.0,0.0,0.0,0.0,0.0,0.0,0.0,0.0,0.0
27072000000,171,27072000000,imu_link,0.000439438488307,-0.379157326189,0.000424597404287,0.925332020741,0.0,0.0,0.0,0.0,0.0,0.0,0.0,0.0,0.0,-0.00107111967137,-0.00349431971413,0.000633267240004,0.0,0.0,0.0,0.0,0.0,0.0,0.0,0.0,0.0,6.77513407465,0.00322447541228,6.9548019504,0.0,0.0,0.0,0.0,0.0,0.0,0.0,0.0,0.0
27076000000,172,27076000000,imu_link,0.000437562206865,-0.379165374728,0.00042489150714,0.925328723543,0.0,0.0,0.0,0.0,0.0,0.0,0.0,0.0,0.0,-0.000813320260019,-0.00434840055299,0.000494242730673,0.0,0.0,0.0,0.0,0.0,0.0,0.0,0.0,0.0,6.7759353831,0.00330105901466,6.9555189178,0.0,0.0,0.0,0.0,0.0,0.0,0.0,0.0,0.0
27080000000,173,27080000000,imu_link,0.000436218993196,-0.379174833997,0.000425060039842,0.925324847986,0.0,0.0,0.0,0.0,0.0,0.0,0.0,0.0,0.0,-0.000590667895472,-0.00511088340607,0.000335516987438,0.0,0.0,0.0,0.0,0.0,0.0,0.0,0.0,0.0,6.77783851045,0.00339534073226,6.95611890445,0.0,0.0,0.0,0.0,0.0,0.0,0.0,0.0,0.0
27084000000,174,27084000000,imu_link,0.000435370644301,-0.379185314943,0.000425061406485,0.925320553488,0.0,0.0,0.0,0.0,0.0,0.0,0.0,0.0,0.0,-0.000393530902801,-0.00566314202592,0.000164667273802,0.0,0.0,0.0,0.0,0.0,0.0,0.0,0.0,0.0,6.77932702076,0.0035048045216,6.95411257485,0.0,0.0,0.0,0.0,0.0,0.0,0.0,0.0,0.0
27088000000,175,27088000000,imu_link,0.000434989996411,-0.379196227307,0.000424879381443,0.925316081919,0.0,0.0,0.0,0.0,0.0,0.0,0.0,0.0,0.0,-0.000211967086999,-0.00589645283518,-8.72190392279e-06,0.0,0.0,0.0,0.0,0.0,0.0,0.0,0.0,0.0,6.7798527994,0.0036199889698,6.94846307294,0.0,0.0,0.0,0.0,0.0,0.0,0.0,0.0,0.0
27092000000,176,27092000000,imu_link,0.000435081915988,-0.379207052033,0.000424548873398,0.925311645961,0.0,0.0,0.0,0.0,0.0,0.0,0.0,0.0,0.0,-2.14711732261e-05,-0.00584928689143,-0.000167043286024,0.0,0.0,0.0,0.0,0.0,0.0,0.0,0.0,0.0,6.77936125597,0.00372212316367,6.9420463127,0.0,0.0,0.0,0.0,0.0,0.0,0.0,0.0,0.0
27096000000,177,27096000000,imu_link,0.000435411554106,-0.379217481646,0.00042408778904,0.925307371731,0.0,0.0,0.0,0.0,0.0,0.0,0.0,0.0,0.0,6.38016546251e-05,-0.00563590063544,-0.000272647734921,0.0,0.0,0.0,0.0,0.0,0.0,0.0,0.0,0.0,6.77859355703,0.00385058434863,6.93741003321,0.0,0.0,0.0,0.0,0.0,0.0,0.0,0.0,0.0
27100000000,178,27100000000,imu_link,0.000435667229289,-0.379227397528,0.000423485718059,0.925303308012,0.0,0.0,0.0,0.0,0.0,0.0,0.0,0.0,0.0,2.91323826616e-06,-0.00535832127722,-0.000324008176642,0.0,0.0,0.0,0.0,0.0,0.0,0.0,0.0,0.0,6.77838005396,0.00395018685452,6.93553472159,0.0,0.0,0.0,0.0,0.0,0.0,0.0,0.0,0.0
27104000000,179,27104000000,imu_link,0.000435547318021,-0.379236651768,0.000422709969396,0.925299515601,0.0,0.0,0.0,0.0,0.0,0.0,0.0,0.0,0.0,-0.000203703124291,-0.00500072613073,-0.000333345682388,0.0,0.0,0.0,0.0,0.0,0.0,0.0,0.0,0.0,6.77756621937,0.0040090388045,6.93224208989,0.0,0.0,0.0,0.0,0.0,0.0,0.0,0.0,0.0
27108000000,180,27108000000,imu_link,0.00043503458503,-0.379245209603,0.000421747656564,0.925296008782,0.0,0.0,0.0,0.0,0.0,0.0,0.0,0.0,0.0,-0.000420732990903,-0.00462433841986,-0.000345385372518,0.0,0.0,0.0,0.0,0.0,0.0,0.0,0.0,0.0,6.77679306102,0.0039765220209,6.92989398809,0.0,0.0,0.0,0.0,0.0,0.0,0.0,0.0,0.0
27112000000,181,27112000000,imu_link,0.000434138606769,-0.379253031697,0.000420602115254,0.925292803693,0.0,0.0,0.0,0.0,0.0,0.0,0.0,0.0,0.0,-0.000632695394244,-0.00422669400871,-0.000357707358948,0.0,0.0,0.0,0.0,0.0,0.0,0.0,0.0,0.0,6.77511365802,0.00394640340009,6.92604486138,0.0,0.0,0.0,0.0,0.0,0.0,0.0,0.0,0.0
27116000000,182,27116000000,imu_link,0.000432886394033,-0.379260055478,0.000419278268799,0.925289925987,0.0,0.0,0.0,0.0,0.0,0.0,0.0,0.0,0.0,-0.000831220554609,-0.003795240292,-0.000372890229218,0.0,0.0,0.0,0.0,0.0,0.0,0.0,0.0,0.0,6.77432896945,0.00392812507113,6.92335021759,0.0,0.0,0.0,0.0,0.0,0.0,0.0,0.0,0.0
27120000000,183,27120000000,imu_link,0.000431508341753,-0.379266067069,0.000417835178027,0.925287463216,0.0,0.0,0.0,0.0,0.0,0.0,0.0,0.0,0.0,-0.000911929503636,-0.00324827096789,-0.000404501123491,0.0,0.0,0.0,0.0,0.0,0.0,0.0,0.0,0.0,6.77484187477,0.00383669985267,6.92155705918,0.0,0.0,0.0,0.0,0.0,0.0,0.0,0.0,0.0
27124000000,184,27124000000,imu_link,0.000430351239258,-0.379270913118,0.000416317249701,0.925285478077,0.0,0.0,0.0,0.0,0.0,0.0,0.0,0.0,0.0,-0.000823759691986,-0.00261852778027,-0.000481374883444,0.0,0.0,0.0,0.0,0.0,0.0,0.0,0.0,0.0,6.77532220152,0.00372134753251,6.92033259703,0.0,0.0,0.0,0.0,0.0,0.0,0.0,0.0,0.0
27128000000,185,27128000000,imu_link,0.000429896330155,-0.379274720514,0.000414778603106,0.925283918334,0.0,0.0,0.0,0.0,0.0,0.0,0.0,0.0,0.0,-0.0005026992665,-0.00205748312078,-0.000624432846964,0.0,0.0,0.0,0.0,0.0,0.0,0.0,0.0,0.0,6.77585950331,0.00368154511956,6.92202924294,0.0,0.0,0.0,0.0,0.0,0.0,0.0,0.0,0.0
27132000000,186,27132000000,imu_link,0.000430250190107,-0.37927771692,0.000413242123513,0.925282690622,0.0,0.0,0.0,0.0,0.0,0.0,0.0,0.0,0.0,-0.000128021000995,-0.00161948703515,-0.000777046309429,0.0,0.0,0.0,0.0,0.0,0.0,0.0,0.0,0.0,6.77509458828,0.00380087898566,6.9223897525,0.0,0.0,0.0,0.0,0.0,0.0,0.0,0.0,0.0
27136000000,187,27136000000,imu_link,0.000431189296669,-0.379280324853,0.000411669001423,0.925281621877,0.0,0.0,0.0,0.0,0.0,0.0,0.0,0.0,0.0,0.000135835505727,-0.00140974568638,-0.000905100559661,0.0,0.0,0.0,0.0,0.0,0.0,0.0,0.0,0.0,6.77581152705,0.00403292494695,6.92704935057,0.0,0.0,0.0,0.0,0.0,0.0,0.0,0.0,0.0
27140000000,188,27140000000,imu_link,0.000432346340552,-0.379282888519,0.000410031615039,0.925280571193,0.0,0.0,0.0,0.0,0.0,0.0,0.0,0.0,0.0,0.000224480331624,-0.00138589973604,-0.000976174774818,0.0,0.0,0.0,0.0,0.0,0.0,0.0,0.0,0.0,6.77611212093,0.00422614637946,6.93034933572,0.0,0.0,0.0,0.0,0.0,0.0,0.0,0.0,0.0
27144000000,189,27144000000,imu_link,0.000433365702955,-0.379285769255,0.000408342412409,0.925279390612,0.0,0.0,0.0,0.0,0.0,0.0,0.0,0.0,0.0,0.000150919900364,-0.00155720577597,-0.000973941769774,0.0,0.0,0.0,0.0,0.0,0.0,0.0,0.0,0.0,6.77753010005,0.00435280458892,6.93551717454,0.0,0.0,0.0,0.0,0.0,0.0,0.0,0.0,0.0
27148000000,190,27148000000,imu_link,0.000433788458715,-0.379289234092,0.000406611517552,0.925277970881,0.0,0.0,0.0,0.0,0.0,0.0,0.0,0.0,0.0,-0.000133068086257,-0.00187267413926,-0.000879912652212,0.0,0.0,0.0,0.0,0.0,0.0,0.0,0.0,0.0,6.77877592709,0.00444191008733,6.93952381215,0.0,0.0,0.0,0.0,0.0,0.0,0.0,0.0,0.0
27152000000,191,27152000000,imu_link,0.000433361597281,-0.379293378188,0.000404819125269,0.925276273111,0.0,0.0,0.0,0.0,0.0,0.0,0.0,0.0,0.0,-0.000537874571099,-0.00223949517159,-0.000747034576997,0.0,0.0,0.0,0.0,0.0,0.0,0.0,0.0,0.0,6.77873147495,0.00443283511381,6.93941280307,0.0,0.0,0.0,0.0,0.0,0.0,0.0,0.0,0.0
27156000000,192,27156000000,imu_link,0.000432021081555,-0.37929832087,0.000402945047536,0.925274248414,0.0,0.0,0.0,0.0,0.0,0.0,0.0,0.0,0.0,-0.000976148067494,-0.0026707852416,-0.000611314658853,0.0,0.0,0.0,0.0,0.0,0.0,0.0,0.0,0.0,6.77781251309,0.00434900952619,6.93805826523,0.0,0.0,0.0,0.0,0.0,0.0,0.0,0.0,0.0
27160000000,193,27160000000,imu_link,0.000429806295819,-0.379304251937,0.000400943801614,0.925271818966,0.0,0.0,0.0,0.0,0.0,0.0,0.0,0.0,0.0,-0.00140484687373,-0.0032046603307,-0.000504047763084,0.0,0.0,0.0,0.0,0.0,0.0,0.0,0.0,0.0,6.7783270548,0.00425486018078,6.93980194734,0.0,0.0,0.0,0.0,0.0,0.0,0.0,0.0,0.0
27164000000,194,27164000000,imu_link,0.00042675692588,-0.379311314775,0.000398782916975,0.925268925953,0.0,0.0,0.0,0.0,0.0,0.0,0.0,0.0,0.0,-0.00182135858371,-0.0038160418516,-0.000419285544367,0.0,0.0,0.0,0.0,0.0,0.0,0.0,0.0,0.0,6.77864256692,0.00416164790132,6.94071937013,0.0,0.0,0.0,0.0,0.0,0.0,0.0,0.0,0.0
27168000000,195,27168000000,imu_link,0.000422925180395,-0.379319625402,0.000396491656225,0.925265521736,0.0,0.0,0.0,0.0,0.0,0.0,0.0,0.0,0.0,-0.00220817876024,-0.00449013636806,-0.000330851897083,0.0,0.0,0.0,0.0,0.0,0.0,0.0,0.0,0.0,6.77878142933,0.00404413931343,6.94093861947,0.0,0.0,0.0,0.0,0.0,0.0,0.0,0.0,0.0
27172000000,196,27172000000,imu_link,0.000418333636971,-0.379329051265,0.000394081245681,0.925261660593,0.0,0.0,0.0,0.0,0.0,0.0,0.0,0.0,0.0,-0.002582408574,-0.00509261639304,-0.000241544945878,0.0,0.0,0.0,0.0,0.0,0.0,0.0,0.0,0.0,6.77902209007,0.00394055889154,6.93877791433,0.0,0.0,0.0,0.0,0.0,0.0,0.0,0.0,0.0
27176000000,197,27176000000,imu_link,0.000413155291198,-0.379339203991,0.000391561639311,0.925257501616,0.0,0.0,0.0,0.0,0.0,0.0,0.0,0.0,0.0,-0.00287467293098,-0.00548528094304,-0.000180555991992,0.0,0.0,0.0,0.0,0.0,0.0,0.0,0.0,0.0,6.78039952527,0.00387468834887,6.93643673891,0.0,0.0,0.0,0.0,0.0,0.0,0.0,0.0,0.0
27180000000,198,27180000000,imu_link,0.000407772359448,-0.379349652464,0.000388956760603,0.925253221345,0.0,0.0,0.0,0.0,0.0,0.0,0.0,0.0,0.0,-0.00298552670148,-0.0056450854194,-0.000181116843855,0.0,0.0,0.0,0.0,0.0,0.0,0.0,0.0,0.0,6.78206384943,0.00383194925581,6.93446085066,0.0,0.0,0.0,0.0,0.0,0.0,0.0,0.0,0.0
27184000000,199,27184000000,imu_link,0.000402478522366,-0.379360057165,0.000386286001428,0.925248958833,0.0,0.0,0.0,0.0,0.0,0.0,0.0,0.0,0.0,-0.00295680011138,-0.00562149752963,-0.000228506295474,0.0,0.0,0.0,0.0,0.0,0.0,0.0,0.0,0.0,6.78292715122,0.00384698500738,6.93218355029,0.0,0.0,0.0,0.0,0.0,0.0,0.0,0.0,0.0
27188000000,200,27188000000,imu_link,0.000397625463429,-0.379370257178,0.000383550699684,0.92524477991,0.0,0.0,0.0,0.0,0.0,0.0,0.0,0.0,0.0,-0.00276510507541,-0.00551104733235,-0.000342029414488,0.0,0.0,0.0,0.0,0.0,0.0,0.0,0.0,0.0,6.78333441375,0.00388042201523,6.93100532004,0.0,0.0,0.0,0.0,0.0,0.0,0.0,0.0,0.0
27192000000,201,27192000000,imu_link,0.00039354043444,-0.379380278094,0.000380774532471,0.925240673949,0.0,0.0,0.0,0.0,0.0,0.0,0.0,0.0,0.0,-0.00241752895636,-0.00541450860506,-0.000506668154298,0.0,0.0,0.0,0.0,0.0,0.0,0.0,0.0,0.0,6.78286998935,0.00395966509595,6.93007465756,0.0,0.0,0.0,0.0,0.0,0.0,0.0,0.0,0.0
27196000000,202,27196000000,imu_link,0.000390486116783,-0.379390094671,0.000377974864504,0.925236651199,0.0,0.0,0.0,0.0,0.0,0.0,0.0,0.0,0.0,-0.00194513626325,-0.00530439336332,-0.000713111906864,0.0,0.0,0.0,0.0,0.0,0.0,0.0,0.0,0.0,6.78306811935,0.00410178921106,6.92950509504,0.0,0.0,0.0,0.0,0.0,0.0,0.0,0.0,0.0
27200000000,203,27200000000,imu_link,0.000388538949046,-0.379399516911,0.00037516910367,0.925232789547,0.0,0.0,0.0,0.0,0.0,0.0,0.0,0.0,0.0,-0.00143406113711,-0.0050916168939,-0.000926058872749,0.0,0.0,0.0,0.0,0.0,0.0,0.0,0.0,0.0,6.78267026213,0.00430232190077,6.92627611007,0.0,0.0,0.0,0.0,0.0,0.0,0.0,0.0,0.0
27204000000,204,27204000000,imu_link,0.000387800382171,-0.37940795561,0.000372386949581,0.925229330577,0.0,0.0,0.0,0.0,0.0,0.0,0.0,0.0,0.0,-0.000870358100692,-0.00456044814744,-0.00114467590559,0.0,0.0,0.0,0.0,0.0,0.0,0.0,0.0,0.0,6.78436220521,0.00451004005601,6.92302990751,0.0,0.0,0.0,0.0,0.0,0.0,0.0,0.0,0.0
27208000000,205,27208000000,imu_link,0.000388346474577,-0.379414718469,0.000369653384,0.925226558175,0.0,0.0,0.0,0.0,0.0,0.0,0.0,0.0,0.0,-0.000266659539677,-0.00365516501529,-0.00136635590513,0.0,0.0,0.0,0.0,0.0,0.0,0.0,0.0,0.0,6.78613679978,0.00475665742908,6.91904214674,0.0,0.0,0.0,0.0,0.0,0.0,0.0,0.0,0.0
27212000000,206,27212000000,imu_link,0.00039007004119,-0.37941945989,0.000366968290319,0.925224614154,0.0,0.0,0.0,0.0,0.0,0.0,0.0,0.0,0.0,0.000287463906666,-0.00256307942514,-0.00156785329906,0.0,0.0,0.0,0.0,0.0,0.0,0.0,0.0,0.0,6.7850107031,0.00497732586992,6.913567069,0.0,0.0,0.0,0.0,0.0,0.0,0.0,0.0,0.0
27216000000,207,27216000000,imu_link,0.000392494962629,-0.379422306411,0.000364292173679,0.925223446869,0.0,0.0,0.0,0.0,0.0,0.0,0.0,0.0,0.0,0.0006138185063,-0.00153924793823,-0.00169726633441,0.0,0.0,0.0,0.0,0.0,0.0,0.0,0.0,0.0,6.78549403096,0.00519671989814,6.91557209398,0.0,0.0,0.0,0.0,0.0,0.0,0.0,0.0,0.0
27220000000,208,27220000000,imu_link,0.000394920558679,-0.379423631159,0.000361542444597,0.925222903652,0.0,0.0,0.0,0.0,0.0,0.0,0.0,0.0,0.0,0.000600320200986,-0.000716879623765,-0.00173186061041,0.0,0.0,0.0,0.0,0.0,0.0,0.0,0.0,0.0,6.78637403201,0.00545427001095,6.92077817282,0.0,0.0,0.0,0.0,0.0,0.0,0.0,0.0,0.0
27224000000,209,27224000000,imu_link,0.000396771326062,-0.379423944476,0.000358648484299,0.925222775499,0.0,0.0,0.0,0.0,0.0,0.0,0.0,0.0,0.0,0.000307136390292,-0.000170162589981,-0.00168980658137,0.0,0.0,0.0,0.0,0.0,0.0,0.0,0.0,0.0,6.7876909792,0.0056329430505,6.92771770456,0.0,0.0,0.0,0.0,0.0,0.0,0.0,0.0,0.0
27228000000,210,27228000000,imu_link,0.000397879049854,-0.379423791244,0.000355588290284,0.925222839043,0.0,0.0,0.0,0.0,0.0,0.0,0.0,0.0,0.0,-6.80949293451e-05,8.21365209503e-05,-0.00162587085956,0.0,0.0,0.0,0.0,0.0,0.0,0.0,0.0,0.0,6.78831089918,0.00563632147484,6.93335172055,0.0,0.0,0.0,0.0,0.0,0.0,0.0,0.0,0.0
27232000000,211,27232000000,imu_link,0.000398204910354,-0.379423728483,0.000352377192275,0.925222865869,0.0,0.0,0.0,0.0,0.0,0.0,0.0,0.0,0.0,-0.000458430879957,3.34265537972e-05,-0.00154732747628,0.0,0.0,0.0,0.0,0.0,0.0,0.0,0.0,0.0,6.78898969374,0.00557766280848,6.93895142774,0.0,0.0,0.0,0.0,0.0,0.0,0.0,0.0,0.0
27236000000,212,27236000000,imu_link,0.000397699169718,-0.37942416835,0.000349081370892,0.925222686951,0.0,0.0,0.0,0.0,0.0,0.0,0.0,0.0,0.0,-0.000859259695783,-0.000237997758555,-0.00142862055203,0.0,0.0,0.0,0.0,0.0,0.0,0.0,0.0,0.0,6.78978948188,0.0055139634782,6.9432905186,0.0,0.0,0.0,0.0,0.0,0.0,0.0,0.0,0.0
27240000000,213,27240000000,imu_link,0.000396306379387,-0.379425426092,0.00034574512655,0.925222173014,0.0,0.0,0.0,0.0,0.0,0.0,0.0,0.0,0.0,-0.00127736380434,-0.00067976595029,-0.00127881551609,0.0,0.0,0.0,0.0,0.0,0.0,0.0,0.0,0.0,6.79021824908,0.00545626256349,6.94590244532,0.0,0.0,0.0,0.0,0.0,0.0,0.0,0.0,0.0
27244000000,214,27244000000,imu_link,0.000394051213598,-0.379427650571,0.000342423129743,0.92522126297,0.0,0.0,0.0,0.0,0.0,0.0,0.0,0.0,0.0,-0.00167369394664,-0.00120198427472,-0.00110836082266,0.0,0.0,0.0,0.0,0.0,0.0,0.0,0.0,0.0,6.79031635978,0.00537418112307,6.94644029738,0.0,0.0,0.0,0.0,0.0,0.0,0.0,0.0,0.0
27248000000,215,27248000000,imu_link,0.000391127781621,-0.379430885532,0.000339154375545,0.92521993877,0.0,0.0,0.0,0.0,0.0,0.0,0.0,0.0,0.0,-0.00197283153713,-0.00174788990966,-0.000956680892134,0.0,0.0,0.0,0.0,0.0,0.0,0.0,0.0,0.0,6.79099221486,0.00525866594447,6.94695580983,0.0,0.0,0.0,0.0,0.0,0.0,0.0,0.0,0.0
27252000000,216,27252000000,imu_link,0.000387880327577,-0.379435162787,0.000335982817148,0.925218187189,0.0,0.0,0.0,0.0,0.0,0.0,0.0,0.0,0.0,-0.00210438099997,-0.0023110721827,-0.00084996884626,0.0,0.0,0.0,0.0,0.0,0.0,0.0,0.0,0.0,6.79051624115,0.00515424799112,6.94557317722,0.0,0.0,0.0,0.0,0.0,0.0,0.0,0.0,0.0
27256000000,217,27256000000,imu_link,0.000384627251746,-0.379440683025,0.00033295568352,0.925215925753,0.0,0.0,0.0,0.0,0.0,0.0,0.0,0.0,0.0,-0.00207969170175,-0.00298278705851,-0.000781763367656,0.0,0.0,0.0,0.0,0.0,0.0,0.0,0.0,0.0,6.79093741004,0.0050832142922,6.94731914644,0.0,0.0,0.0,0.0,0.0,0.0,0.0,0.0,0.0
27260000000,218,27260000000,imu_link,0.000381449118165,-0.3794477526,0.000330083455567,0.925213028761,0.0,0.0,0.0,0.0,0.0,0.0,0.0,0.0,0.0,-0.00201576976609,-0.00382008333359,-0.000723917072959,0.0,0.0,0.0,0.0,0.0,0.0,0.0,0.0,0.0,6.79064100486,0.00507634967679,6.94842665872,0.0,0.0,0.0,0.0,0.0,0.0,0.0,0.0,0.0
27264000000,219,27264000000,imu_link,0.000378364631239,-0.379456351077,0.000327331182417,0.925209504556,0.0,0.0,0.0,0.0,0.0,0.0,0.0,0.0,0.0,-0.00194982263164,-0.00464635308349,-0.000685797091028,0.0,0.0,0.0,0.0,0.0,0.0,0.0,0.0,0.0,6.79093190041,0.0051395223671,6.94775010808,0.0,0.0,0.0,0.0,0.0,0.0,0.0,0.0,0.0
27268000000,220,27268000000,imu_link,0.000375149953266,-0.379466096723,0.000324657750701,0.925205509764,0.0,0.0,0.0,0.0,0.0,0.0,0.0,0.0,0.0,-0.00199518991229,-0.0052662864472,-0.00062432971602,0.0,0.0,0.0,0.0,0.0,0.0,0.0,0.0,0.0,6.79184278534,0.00526050765388,6.94473365395,0.0,0.0,0.0,0.0,0.0,0.0,0.0,0.0,0.0
27272000000,221,27272000000,imu_link,0.000371445214091,-0.379476424818,0.000322029252826,0.925201276119,0.0,0.0,0.0,0.0,0.0,0.0,0.0,0.0,0.0,-0.00221341788538,-0.00558095919434,-0.000510414366158,0.0,0.0,0.0,0.0,0.0,0.0,0.0,0.0,0.0,6.79366550109,0.00537862926979,6.94187779923,0.0,0.0,0.0,0.0,0.0,0.0,0.0,0.0,0.0
27276000000,222,27276000000,imu_link,0.000366968892673,-0.379486640607,0.00031941640202,0.925197088683,0.0,0.0,0.0,0.0,0.0,0.0,0.0,0.0,0.0,-0.00256737397535,-0.00552011149688,-0.000356805684987,0.0,0.0,0.0,0.0,0.0,0.0,0.0,0.0,0.0,6.79549847779,0.00542406141967,6.93801809452,0.0,0.0,0.0,0.0,0.0,0.0,0.0,0.0,0.0
27280000000,223,27280000000,imu_link,0.000361740737329,-0.37949608086,0.000316813203914,0.925193219487,0.0,0.0,0.0,0.0,0.0,0.0,0.0,0.0,0.0,-0.0029132742525,-0.00510084436298,-0.000209878018222,0.0,0.0,0.0,0.0,0.0,0.0,0.0,0.0,0.0,6.79655614449,0.00536737009571,6.93313374202,0.0,0.0,0.0,0.0,0.0,0.0,0.0,0.0,0.0
27284000000,224,27284000000,imu_link,0.000355770492652,-0.379504473979,0.000314212334583,0.925189779952,0.0,0.0,0.0,0.0,0.0,0.0,0.0,0.0,0.0,-0.00325603222162,-0.00453479806444,-6.82481948112e-05,0.0,0.0,0.0,0.0,0.0,0.0,0.0,0.0,0.0,6.79593797718,0.00531155233527,6.92926115443,0.0,0.0,0.0,0.0,0.0,0.0,0.0,0.0,0.0
27288000000,225,27288000000,imu_link,0.000349235918153,-0.379511803895,0.000311605163523,0.925186776624,0.0,0.0,0.0,0.0,0.0,0.0,0.0,0.0,0.0,-0.00351819463993,-0.00396010691904,3.56618442439e-05,0.0,0.0,0.0,0.0,0.0,0.0,0.0,0.0,0.0,6.79531982042,0.00523638299141,6.92785601618,0.0,0.0,0.0,0.0,0.0,0.0,0.0,0.0,0.0
27292000000,226,27292000000,imu_link,0.00034210386107,-0.379518328678,0.000308925380505,0.925184103694,0.0,0.0,0.0,0.0,0.0,0.0,0.0,0.0,0.0,-0.00380829693158,-0.00352488241927,0.000115255812237,0.0,0.0,0.0,0.0,0.0,0.0,0.0,0.0,0.0,6.79535442561,0.00521274131085,6.93019470134,0.0,0.0,0.0,0.0,0.0,0.0,0.0,0.0,0.0
27296000000,227,27296000000,imu_link,0.000334612042165,-0.379524352477,0.000306149383656,0.92518163632,0.0,0.0,0.0,0.0,0.0,0.0,0.0,0.0,0.0,-0.0039929351249,-0.00325408568469,0.000138898715803,0.0,0.0,0.0,0.0,0.0,0.0,0.0,0.0,0.0,6.79584991165,0.00514752025167,6.93370453518,0.0,0.0,0.0,0.0,0.0,0.0,0.0,0.0,0.0
27300000000,228,27300000000,imu_link,0.000327108351893,-0.379530122542,0.000303312287319,0.925179272944,0.0,0.0,0.0,0.0,0.0,0.0,0.0,0.0,0.0,-0.0040099996413,-0.00311698473571,0.000112829019866,0.0,0.0,0.0,0.0,0.0,0.0,0.0,0.0,0.0,6.79607270745,0.00510917349891,6.93583273877,0.0,0.0,0.0,0.0,0.0,0.0,0.0,0.0,0.0
27304000000,229,27304000000,imu_link,0.000319784506359,-0.379535986566,0.000300471738579,0.92517687085,0.0,0.0,0.0,0.0,0.0,0.0,0.0,0.0,0.0,-0.00392746839183,-0.00316782442878,7.71249656306e-05,0.0,0.0,0.0,0.0,0.0,0.0,0.0,0.0,0.0,6.79615277934,0.00510284542607,6.93829564591,0.0,0.0,0.0,0.0,0.0,0.0,0.0,0.0,0.0
27308000000,230,27308000000,imu_link,0.000312460641855,-0.379542197838,0.000297618647723,0.925174326196,0.0,0.0,0.0,0.0,0.0,0.0,0.0,0.0,0.0,-0.00392988663407,-0.00335551229459,7.14036675598e-05,0.0,0.0,0.0,0.0,0.0,0.0,0.0,0.0,0.0,6.79638777836,0.00520100313198,6.94022786036,0.0,0.0,0.0,0.0,0.0,0.0,0.0,0.0,0.0
27312000000,231,27312000000,imu_link,0.000304925742477,-0.379548813391,0.000294725155983,0.925171615653,0.0,0.0,0.0,0.0,0.0,0.0,0.0,0.0,0.0,-0.00403520982214,-0.00357398341038,9.28509033243e-05,0.0,0.0,0.0,0.0,0.0,0.0,0.0,0.0,0.0,6.79632962535,0.00531974447493,6.94008165291,0.0,0.0,0.0,0.0,0.0,0.0,0.0,0.0,0.0
27316000000,232,27316000000,imu_link,0.000297026249824,-0.379555651125,0.0002917328243,0.925168813983,0.0,0.0,0.0,0.0,0.0,0.0,0.0,0.0,0.0,-0.00422264163578,-0.00369401583444,0.000116366724699,0.0,0.0,0.0,0.0,0.0,0.0,0.0,0.0,0.0,6.79686967542,0.00543737396738,6.93866925488,0.0,0.0,0.0,0.0,0.0,0.0,0.0,0.0,0.0
27320000000,233,27320000000,imu_link,0.000288766461413,-0.379562217278,0.000288612060607,0.925166123749,0.0,0.0,0.0,0.0,0.0,0.0,0.0,0.0,0.0,-0.00441365931807,-0.00354720533647,0.000125275636702,0.0,0.0,0.0,0.0,0.0,0.0,0.0,0.0,0.0,6.79732188668,0.0054797765758,6.93412303492,0.0,0.0,0.0,0.0,0.0,0.0,0.0,0.0,0.0
27324000000,234,27324000000,imu_link,0.000280489639098,-0.379567971326,0.000285391581693,0.925163766595,0.0,0.0,0.0,0.0,0.0,0.0,0.0,0.0,0.0,-0.00444039387815,-0.00310833889917,8.2216457254e-05,0.0,0.0,0.0,0.0,0.0,0.0,0.0,0.0,0.0,6.79873566623,0.00544943345088,6.93114386899,0.0,0.0,0.0,0.0,0.0,0.0,0.0,0.0,0.0
27328000000,235,27328000000,imu_link,0.000272521940392,-0.379572604312,0.000282112136405,0.925161869189,0.0,0.0,0.0,0.0,0.0,0.0,0.0,0.0,0.0,-0.00430849427678,-0.00250255580309,-3.94985608548e-06,0.0,0.0,0.0,0.0,0.0,0.0,0.0,0.0,0.0,6.79914487251,0.00546667703807,6.92859767324,0.0,0.0,0.0,0.0,0.0,0.0,0.0,0.0,0.0
27332000000,236,27332000000,imu_link,0.000264886540992,-0.379575999674,0.000278791915401,0.925160479366,0.0,0.0,0.0,0.0,0.0,0.0,0.0,0.0,0.0,-0.00416241221552,-0.00183377475153,-8.61180191165e-05,0.0,0.0,0.0,0.0,0.0,0.0,0.0,0.0,0.0,6.79854601872,0.00558975943581,6.92599256249,0.0,0.0,0.0,0.0,0.0,0.0,0.0,0.0,0.0
27336000000,237,27336000000,imu_link,0.000257222404079,-0.379578286048,0.000275404885827,0.925159544484,0.0,0.0,0.0,0.0,0.0,0.0,0.0,0.0,0.0,-0.00418829075076,-0.0012344411792,-0.000111778603192,0.0,0.0,0.0,0.0,0.0,0.0,0.0,0.0,0.0,6.79799998345,0.00576487367255,6.92602389784,0.0,0.0,0.0,0.0,0.0,0.0,0.0,0.0,0.0
27340000000,238,27340000000,imu_link,0.000249044227059,-0.379579766056,0.000271904527407,0.925158940532,0.0,0.0,0.0,0.0,0.0,0.0,0.0,0.0,0.0,-0.00444751541408,-0.000798568984457,-6.67922816063e-05,0.0,0.0,0.0,0.0,0.0,0.0,0.0,0.0,0.0,6.79768877989,0.00591777823818,6.92831161275,0.0,0.0,0.0,0.0,0.0,0.0,0.0,0.0,0.0
27344000000,239,27344000000,imu_link,0.000240044725992,-0.379581054976,0.00026828259959,0.925158415141,0.0,0.0,0.0,0.0,0.0,0.0,0.0,0.0,0.0,-0.00485049950195,-0.000695169624184,3.28167312737e-05,0.0,0.0,0.0,0.0,0.0,0.0,0.0,0.0,0.0,6.79878926862,0.00596872386364,6.93558896694,0.0,0.0,0.0,0.0,0.0,0.0,0.0,0.0,0.0
27348000000,240,27348000000,imu_link,0.000230419189246,-0.379582734371,0.000264558724531,0.925157729624,0.0,0.0,0.0,0.0,0.0,0.0,0.0,0.0,0.0,-0.00515947237169,-0.000906113560474,0.000104542043554,0.0,0.0,0.0,0.0,0.0,0.0,0.0,0.0,0.0,6.80005232429,0.00585575159225,6.94244036882,0.0,0.0,0.0,0.0,0.0,0.0,0.0,0.0,0.0
27352000000,241,27352000000,imu_link,0.000220828837211,-0.379585076994,0.000260794591891,0.925156771874,0.0,0.0,0.0,0.0,0.0,0.0,0.0,0.0,0.0,-0.00515089357607,-0.00126458554031,7.93544040933e-05,0.0,0.0,0.0,0.0,0.0,0.0,0.0,0.0,0.0,6.80016895552,0.00570007438281,6.94449031093,0.0,0.0,0.0,0.0,0.0,0.0,0.0,0.0,0.0
27356000000,242,27356000000,imu_link,0.000212082804456,-0.379588047154,0.00025704878506,0.925155556328,0.0,0.0,0.0,0.0,0.0,0.0,0.0,0.0,0.0,-0.00475690498963,-0.00160390640578,-7.23110670383e-05,0.0,0.0,0.0,0.0,0.0,0.0,0.0,0.0,0.0,6.80147201539,0.00568503882028,6.94574589963,0.0,0.0,0.0,0.0,0.0,0.0,0.0,0.0,0.0
27360000000,243,27360000000,imu_link,0.000204741517869,-0.379591548083,0.000253340159254,0.925154122578,0.0,0.0,0.0,0.0,0.0,0.0,0.0,0.0,0.0,-0.00410008897009,-0.00189101864854,-0.000321640050612,0.0,0.0,0.0,0.0,0.0,0.0,0.0,0.0,0.0,6.80100786981,0.00587344220667,6.94340506837,0.0,0.0,0.0,0.0,0.0,0.0,0.0,0.0,0.0
27364000000,244,27364000000,imu_link,0.000198979509451,-0.379595593807,0.000249666272383,0.92515246486,0.0,0.0,0.0,0.0,0.0,0.0,0.0,0.0,0.0,-0.00336300389376,-0.00218573325205,-0.00060522679757,0.0,0.0,0.0,0.0,0.0,0.0,0.0,0.0,0.0,6.80012787812,0.00615398773406,6.94117226738,0.0,0.0,0.0,0.0,0.0,0.0,0.0,0.0,0.0
27368000000,245,27368000000,imu_link,0.000194799135938,-0.379600277298,0.000246029617525,0.925150545046,0.0,0.0,0.0,0.0,0.0,0.0,0.0,0.0,0.0,-0.00262436416322,-0.00253068827865,-0.000888098804204,0.0,0.0,0.0,0.0,0.0,0.0,0.0,0.0,0.0,6.79820270518,0.00645965382089,6.93786290597,0.0,0.0,0.0,0.0,0.0,0.0,0.0,0.0,0.0
27372000000,246,27372000000,imu_link,0.000192228280689,-0.379605892753,0.00024243723343,0.925148242424,0.0,0.0,0.0,0.0,0.0,0.0,0.0,0.0,0.0,-0.00187151557659,-0.00303464213867,-0.00117296916963,0.0,0.0,0.0,0.0,0.0,0.0,0.0,0.0,0.0,6.79798690744,0.00673669310117,6.93919542367,0.0,0.0,0.0,0.0,0.0,0.0,0.0,0.0,0.0
27376000000,247,27376000000,imu_link,0.000191491436542,-0.379612576517,0.000238916118331,0.925145500989,0.0,0.0,0.0,0.0,0.0,0.0,0.0,0.0,0.0,-0.00100970975996,-0.00361231767693,-0.00148794681512,0.0,0.0,0.0,0.0,0.0,0.0,0.0,0.0,0.0,6.79725006499,0.0069738310674,6.93812355187,0.0,0.0,0.0,0.0,0.0,0.0,0.0,0.0,0.0
27380000000,248,27380000000,imu_link,0.000192700550213,-0.379620221323,0.000235468301606,0.925142364712,0.0,0.0,0.0,0.0,0.0,0.0,0.0,0.0,0.0,-9.57272074841e-05,-0.00413203879973,-0.00182325683279,0.0,0.0,0.0,0.0,0.0,0.0,0.0,0.0,0.0,6.79767826973,0.00724254491804,6.93682339092,0.0,0.0,0.0,0.0,0.0,0.0,0.0,0.0,0.0
27384000000,249,27384000000,imu_link,0.000195732358726,-0.379628364712,0.000232078442493,0.925139023355,0.0,0.0,0.0,0.0,0.0,0.0,0.0,0.0,0.0,0.000758360900685,-0.0044018040893,-0.00214234103786,0.0,0.0,0.0,0.0,0.0,0.0,0.0,0.0,0.0,6.79920428918,0.00754948334708,6.9341729426,0.0,0.0,0.0,0.0,0.0,0.0,0.0,0.0,0.0
27388000000,250,27388000000,imu_link,0.000200236291624,-0.379636445283,0.000228741265446,0.92513570734,0.0,0.0,0.0,0.0,0.0,0.0,0.0,0.0,0.0,0.00144932537161,-0.00436810140966,-0.00239741109523,0.0,0.0,0.0,0.0,0.0,0.0,0.0,0.0,0.0,6.80134269174,0.00788513983485,6.93213063049,0.0,0.0,0.0,0.0,0.0,0.0,0.0,0.0,0.0
27392000000,251,27392000000,imu_link,0.000205624263298,-0.379644158553,0.00022543471269,0.925132541734,0.0,0.0,0.0,0.0,0.0,0.0,0.0,0.0,0.0,0.00186409328912,-0.00416974784413,-0.00255110592748,0.0,0.0,0.0,0.0,0.0,0.0,0.0,0.0,0.0,6.80194070121,0.0081958090238,6.92986021626,0.0,0.0,0.0,0.0,0.0,0.0,0.0,0.0,0.0
27396000000,252,27396000000,imu_link,0.000211250391939,-0.379651360031,0.000222119146753,0.925129585984,0.0,0.0,0.0,0.0,0.0,0.0,0.0,0.0,0.0,0.00197258187974,-0.00389320245347,-0.00260055884475,0.0,0.0,0.0,0.0,0.0,0.0,0.0,0.0,0.0,6.80297392207,0.00839580909133,6.93011360788,0.0,0.0,0.0,0.0,0.0,0.0,0.0,0.0,0.0
27400000000,253,27400000000,imu_link,0.000216719227306,-0.379657862444,0.000218798012586,0.925126917047,0.0,0.0,0.0,0.0,0.0,0.0,0.0,0.0,0.0,0.0018988138999,-0.00351537822266,-0.00257338190114,0.0,0.0,0.0,0.0,0.0,0.0,0.0,0.0,0.0,6.80399137891,0.00848941410977,6.92994078287,0.0,0.0,0.0,0.0,0.0,0.0,0.0,0.0,0.0
27404000000,254,27404000000,imu_link,0.000221862349429,-0.379663279588,0.000215507351866,0.925124693469,0.0,0.0,0.0,0.0,0.0,0.0,0.0,0.0,0.0,0.00175400606529,-0.00292879141668,-0.0024976225228,0.0,0.0,0.0,0.0,0.0,0.0,0.0,0.0,0.0,6.8054059662,0.00851941784352,6.92847815972,0.0,0.0,0.0,0.0,0.0,0.0,0.0,0.0,0.0
27408000000,255,27408000000,imu_link,0.000226634096663,-0.379667416233,0.00021227292416,0.925122995405,0.0,0.0,0.0,0.0,0.0,0.0,0.0,0.0,0.0,0.0015929765126,-0.00223667584897,-0.00240131121624,0.0,0.0,0.0,0.0,0.0,0.0,0.0,0.0,0.0,6.80410993578,0.00848847647602,6.92395440542,0.0,0.0,0.0,0.0,0.0,0.0,0.0,0.0,0.0
27412000000,256,27412000000,imu_link,0.000231078646105,-0.379670436603,0.000209103982368,0.925121755472,0.0,0.0,0.0,0.0,0.0,0.0,0.0,0.0,0.0,0.00145412540982,-0.00163331847378,-0.00230908190207,0.0,0.0,0.0,0.0,0.0,0.0,0.0,0.0,0.0,6.80274866398,0.0084350542098,6.9227725998,0.0,0.0,0.0,0.0,0.0,0.0,0.0,0.0,0.0
27416000000,257,27416000000,imu_link,0.000235321631336,-0.379672910303,0.000205977866179,0.925120739892,0.0,0.0,0.0,0.0,0.0,0.0,0.0,0.0,0.0,0.00136905073273,-0.00133783446539,-0.00225109508512,0.0,0.0,0.0,0.0,0.0,0.0,0.0,0.0,0.0,6.80264853928,0.0083712228302,6.92748511747,0.0,0.0,0.0,0.0,0.0,0.0,0.0,0.0,0.0
27420000000,258,27420000000,imu_link,0.00023943846366,-0.379675511584,0.000202874129176,0.925119671942,0.0,0.0,0.0,0.0,0.0,0.0,0.0,0.0,0.0,0.00131493880519,-0.00140677484896,-0.0022167745353,0.0,0.0,0.0,0.0,0.0,0.0,0.0,0.0,0.0,6.80360895678,0.00834400565602,6.93480898544,0.0,0.0,0.0,0.0,0.0,0.0,0.0,0.0,0.0
27424000000,259,27424000000,imu_link,0.000243193339068,-0.379678643266,0.000199756231822,0.925118386371,0.0,0.0,0.0,0.0,0.0,0.0,0.0,0.0,0.0,0.00114479615501,-0.00169339405561,-0.00215452588224,0.0,0.0,0.0,0.0,0.0,0.0,0.0,0.0,0.0,6.80370781254,0.00837486360921,6.93827961919,0.0,0.0,0.0,0.0,0.0,0.0,0.0,0.0,0.0
27428000000,260,27428000000,imu_link,0.00024618083848,-0.37968246422,0.000196578968339,0.925116818091,0.0,0.0,0.0,0.0,0.0,0.0,0.0,0.0,0.0,0.00077853484118,-0.00206582343111,-0.00203619604307,0.0,0.0,0.0,0.0,0.0,0.0,0.0,0.0,0.0,6.80438915979,0.00839144702048,6.94051668851,0.0,0.0,0.0,0.0,0.0,0.0,0.0,0.0,0.0
27432000000,261,27432000000,imu_link,0.00024828535784,-0.37968677114,0.000193331351052,0.925115050574,0.0,0.0,0.0,0.0,0.0,0.0,0.0,0.0,0.0,0.00035672569924,-0.00232835643236,-0.00190103336483,0.0,0.0,0.0,0.0,0.0,0.0,0.0,0.0,0.0,6.80386041959,0.00831397866393,6.93669386015,0.0,0.0,0.0,0.0,0.0,0.0,0.0,0.0,0.0
27436000000,262,27436000000,imu_link,0.000249755027582,-0.379691056992,0.0001900328199,0.925113291846,0.0,0.0,0.0,0.0,0.0,0.0,0.0,0.0,0.0,5.34065164099e-05,-0.00231688745547,-0.00180406542067,0.0,0.0,0.0,0.0,0.0,0.0,0.0,0.0,0.0,6.8061493134,0.00817432543795,6.93501617321,0.0,0.0,0.0,0.0,0.0,0.0,0.0,0.0,0.0
27440000000,263,27440000000,imu_link,0.000251128795263,-0.379694865635,0.00018671582341,0.925111728972,0.0,0.0,0.0,0.0,0.0,0.0,0.0,0.0,0.0,5.56170344744e-06,-0.00205896239694,-0.00179447830969,0.0,0.0,0.0,0.0,0.0,0.0,0.0,0.0,0.0,6.80694906477,0.00797841761038,6.93149433635,0.0,0.0,0.0,0.0,0.0,0.0,0.0,0.0,0.0
27444000000,264,27444000000,imu_link,0.000252740518931,-0.37969801105,0.000183411114613,0.925110438211,0.0,0.0,0.0,0.0,0.0,0.0,0.0,0.0,0.0,0.000117990177169,-0.00170054338678,-0.00183407858009,0.0,0.0,0.0,0.0,0.0,0.0,0.0,0.0,0.0,6.8076316559,0.00788450336593,6.93058383046,0.0,0.0,0.0,0.0,0.0,0.0,0.0,0.0,0.0
27448000000,265,27448000000,imu_link,0.000254633162413,-0.379700983265,0.000180138735551,0.925109218428,0.0,0.0,0.0,0.0,0.0,0.0,0.0,0.0,0.0,0.000254075785715,-0.00160697512689,-0.00187248503636,0.0,0.0,0.0,0.0,0.0,0.0,0.0,0.0,0.0,6.80863671441,0.00792923422931,6.93649084778,0.0,0.0,0.0,0.0,0.0,0.0,0.0,0.0,0.0
27452000000,266,27452000000,imu_link,0.000256666984473,-0.379704504227,0.000176915656492,0.925107773339,0.0,0.0,0.0,0.0,0.0,0.0,0.0,0.0,0.0,0.000328717476959,-0.00190358182952,-0.00187639375786,0.0,0.0,0.0,0.0,0.0,0.0,0.0,0.0,0.0,6.80934498381,0.00802174302788,6.94407345278,0.0,0.0,0.0,0.0,0.0,0.0,0.0,0.0,0.0
27456000000,267,27456000000,imu_link,0.000258730734339,-0.379709323457,0.000173753628896,0.925105795327,0.0,0.0,0.0,0.0,0.0,0.0,0.0,0.0,0.0,0.000354105008329,-0.00260527155758,-0.00185362227488,0.0,0.0,0.0,0.0,0.0,0.0,0.0,0.0,0.0,6.81137828379,0.0080852165356,6.95395919905,0.0,0.0,0.0,0.0,0.0,0.0,0.0,0.0,0.0
27460000000,268,27460000000,imu_link,0.000260828591605,-0.379715875196,0.000170692197428,0.925103106122,0.0,0.0,0.0,0.0,0.0,0.0,0.0,0.0,0.0,0.000388921617266,-0.00354166227606,-0.00181328078046,0.0,0.0,0.0,0.0,0.0,0.0,0.0,0.0,0.0,6.8121846808,0.00810062946219,6.95853129079,0.0,0.0,0.0,0.0,0.0,0.0,0.0,0.0,0.0
27464000000,269,27464000000,imu_link,0.000262932710064,-0.379724018508,0.000167747443703,0.925099763537,0.0,0.0,0.0,0.0,0.0,0.0,0.0,0.0,0.0,0.000413919312875,-0.0044018818814,-0.00176023671905,0.0,0.0,0.0,0.0,0.0,0.0,0.0,0.0,0.0,6.81200335802,0.00812271366583,6.95586526726,0.0,0.0,0.0,0.0,0.0,0.0,0.0,0.0,0.0
27468000000,270,27468000000,imu_link,0.00026503589163,-0.379733280747,0.000164916531908,0.925095961537,0.0,0.0,0.0,0.0,0.0,0.0,0.0,0.0,0.0,0.000435066759848,-0.0050066514307,-0.00170721563355,0.0,0.0,0.0,0.0,0.0,0.0,0.0,0.0,0.0,6.81245583873,0.00813986335412,6.95104742984,0.0,0.0,0.0,0.0,0.0,0.0,0.0,0.0,0.0
27472000000,271,27472000000,imu_link,0.000266975268238,-0.379742891817,0.000162176593525,0.925092016254,0.0,0.0,0.0,0.0,0.0,0.0,0.0,0.0,0.0,0.000376562147031,-0.00519518158514,-0.00163397692712,0.0,0.0,0.0,0.0,0.0,0.0,0.0,0.0,0.0,6.8145066791,0.00817367657767,6.94665369021,0.0,0.0,0.0,0.0,0.0,0.0,0.0,0.0,0.0
27476000000,272,27476000000,imu_link,0.000268866218856,-0.379752118999,0.000159525698192,0.925088228429,0.0,0.0,0.0,0.0,0.0,0.0,0.0,0.0,0.0,0.000371079741406,-0.00498770306632,-0.00158365971913,0.0,0.0,0.0,0.0,0.0,0.0,0.0,0.0,0.0,6.81610808351,0.00814914767796,6.94211209083,0.0,0.0,0.0,0.0,0.0,0.0,0.0,0.0,0.0
27480000000,273,27480000000,imu_link,0.000270974432916,-0.379760391429,0.000156959829024,0.925084832347,0.0,0.0,0.0,0.0,0.0,0.0,0.0,0.0,0.0,0.000487741591668,-0.00447171160235,-0.00158574409053,0.0,0.0,0.0,0.0,0.0,0.0,0.0,0.0,0.0,6.81716946729,0.00812629917557,6.93841188314,0.0,0.0,0.0,0.0,0.0,0.0,0.0,0.0,0.0
27484000000,274,27484000000,imu_link,0.000273501073071,-0.37976749932,0.000154473046084,0.9250819141,0.0,0.0,0.0,0.0,0.0,0.0,0.0,0.0,0.0,0.00069632496888,-0.00384235364336,-0.00162880946444,0.0,0.0,0.0,0.0,0.0,0.0,0.0,0.0,0.0,6.8164941662,0.00810612667218,6.93534669763,0.0,0.0,0.0,0.0,0.0,0.0,0.0,0.0,0.0
27488000000,275,27488000000,imu_link,0.000276620976678,-0.379773522899,0.000152062749429,0.925079440731,0.0,0.0,0.0,0.0,0.0,0.0,0.0,0.0,0.0,0.000985280028235,-0.00325637541228,-0.00170626515481,0.0,0.0,0.0,0.0,0.0,0.0,0.0,0.0,0.0,6.81495804457,0.00807652344842,6.93345837784,0.0,0.0,0.0,0.0,0.0,0.0,0.0,0.0,0.0
27492000000,276,27492000000,imu_link,0.00028021698663,-0.379778868141,0.000149703934534,0.925077245629,0.0,0.0,0.0,0.0,0.0,0.0,0.0,0.0,0.0,0.00121528691598,-0.00288980728801,-0.0017729740664,0.0,0.0,0.0,0.0,0.0,0.0,0.0,0.0,0.0,6.81495858792,0.00817988555038,6.93716372688,0.0,0.0,0.0,0.0,0.0,0.0,0.0,0.0,0.0
27496000000,277,27496000000,imu_link,0.000283834004451,-0.379784122069,0.000147316192318,0.925075087958,0.0,0.0,0.0,0.0,0.0,0.0,0.0,0.0,0.0,0.00121951246451,-0.00284046856623,-0.00179035883763,0.0,0.0,0.0,0.0,0.0,0.0,0.0,0.0,0.0,6.81605427323,0.00835196296586,6.9443127992,0.0,0.0,0.0,0.0,0.0,0.0,0.0,0.0,0.0
27500000000,278,27500000000,imu_link,0.000287126945128,-0.379789737087,0.000144840138693,0.925072782101,0.0,0.0,0.0,0.0,0.0,0.0,0.0,0.0,0.0,0.00105283941612,-0.00303561441964,-0.00176960434301,0.0,0.0,0.0,0.0,0.0,0.0,0.0,0.0,0.0,6.81654904287,0.00843391983162,6.94895975991,0.0,0.0,0.0,0.0,0.0,0.0,0.0,0.0,0.0
27504000000,279,27504000000,imu_link,0.000289864254849,-0.37979593667,0.000142265198891,0.925070236376,0.0,0.0,0.0,0.0,0.0,0.0,0.0,0.0,0.0,0.000777054002931,-0.00335152086232,-0.00170973003765,0.0,0.0,0.0,0.0,0.0,0.0,0.0,0.0,0.0,6.81573144227,0.00843999100316,6.94890873495,0.0,0.0,0.0,0.0,0.0,0.0,0.0,0.0,0.0
27508000000,280,27508000000,imu_link,0.000291880254385,-0.379802651871,0.000139625751323,0.925067479129,0.0,0.0,0.0,0.0,0.0,0.0,0.0,0.0,0.0,0.000431166797049,-0.00363013772846,-0.00160250203053,0.0,0.0,0.0,0.0,0.0,0.0,0.0,0.0,0.0,6.81584713348,0.0083921850143,6.94791267075,0.0,0.0,0.0,0.0,0.0,0.0,0.0,0.0,0.0
27512000000,281,27512000000,imu_link,0.000293048077861,-0.379809822251,0.000136949197159,0.925064535202,0.0,0.0,0.0,0.0,0.0,0.0,0.0,0.0,0.0,3.18056271298e-05,-0.00387607058522,-0.00145851586297,0.0,0.0,0.0,0.0,0.0,0.0,0.0,0.0,0.0,6.81578168941,0.00832411063773,6.94667487355,0.0,0.0,0.0,0.0,0.0,0.0,0.0,0.0,0.0
27516000000,282,27516000000,imu_link,0.000293351532388,-0.379817338293,0.000134234147438,0.925061449558,0.0,0.0,0.0,0.0,0.0,0.0,0.0,0.0,0.0,-0.000375306302554,-0.00406280938508,-0.00131211303981,0.0,0.0,0.0,0.0,0.0,0.0,0.0,0.0,0.0,6.81480580123,0.00821591414719,6.94345442509,0.0,0.0,0.0,0.0,0.0,0.0,0.0,0.0,0.0
27520000000,283,27520000000,imu_link,0.00029289647369,-0.379824932008,0.000131461363859,0.92505833219,0.0,0.0,0.0,0.0,0.0,0.0,0.0,0.0,0.0,-0.000737106694335,-0.00410471789871,-0.00119475496439,0.0,0.0,0.0,0.0,0.0,0.0,0.0,0.0,0.0,6.81543858027,0.00810054313404,6.94154130502,0.0,0.0,0.0,0.0,0.0,0.0,0.0,0.0,0.0
27524000000,284,27524000000,imu_link,0.000292083222341,-0.379832148742,0.000128647296704,0.925055369651,0.0,0.0,0.0,0.0,0.0,0.0,0.0,0.0,0.0,-0.000910619403188,-0.00390093161134,-0.00114588995782,0.0,0.0,0.0,0.0,0.0,0.0,0.0,0.0,0.0,6.81706786463,0.00795554759578,6.93954890131,0.0,0.0,0.0,0.0,0.0,0.0,0.0,0.0,0.0
27528000000,285,27528000000,imu_link,0.000291288491745,-0.37983851767,0.000125820859403,0.925052755152,0.0,0.0,0.0,0.0,0.0,0.0,0.0,0.0,0.0,-0.000904398626547,-0.00344270252502,-0.00115527508328,0.0,0.0,0.0,0.0,0.0,0.0,0.0,0.0,0.0,6.81834259859,0.00785846454403,6.93675381496,0.0,0.0,0.0,0.0,0.0,0.0,0.0,0.0,0.0
27532000000,286,27532000000,imu_link,0.000290988450246,-0.379843879108,0.000123007422455,0.925050554132,0.0,0.0,0.0,0.0,0.0,0.0,0.0,0.0,0.0,-0.000673119691683,-0.00289821355986,-0.00124338581147,0.0,0.0,0.0,0.0,0.0,0.0,0.0,0.0,0.0,6.8186058066,0.00776941092932,6.93557889165,0.0,0.0,0.0,0.0,0.0,0.0,0.0,0.0,0.0
27536000000,287,27536000000,imu_link,0.00029166517629,-0.379848479476,0.000120273803799,0.925048665263,0.0,0.0,0.0,0.0,0.0,0.0,0.0,0.0,0.0,-0.000206179376747,-0.00248696371418,-0.0013921073498,0.0,0.0,0.0,0.0,0.0,0.0,0.0,0.0,0.0,6.81900003257,0.00778391827714,6.93852574086,0.0,0.0,0.0,0.0,0.0,0.0,0.0,0.0,0.0
27540000000,288,27540000000,imu_link,0.000293586608159,-0.379852794386,0.000117677559598,0.925046893166,0.0,0.0,0.0,0.0,0.0,0.0,0.0,0.0,0.0,0.000395618231441,-0.00233280897047,-0.00156501678025,0.0,0.0,0.0,0.0,0.0,0.0,0.0,0.0,0.0,6.81861635438,0.00793820112718,6.94183486667,0.0,0.0,0.0,0.0,0.0,0.0,0.0,0.0,0.0
27544000000,289,27544000000,imu_link,0.00029680745648,-0.379857040021,0.00011523035787,0.925045149046,0.0,0.0,0.0,0.0,0.0,0.0,0.0,0.0,0.0,0.00102493587585,-0.0022955089517,-0.0017428864426,0.0,0.0,0.0,0.0,0.0,0.0,0.0,0.0,0.0,6.81814918965,0.0081433178914,6.94269563826,0.0,0.0,0.0,0.0,0.0,0.0,0.0,0.0,0.0
27548000000,290,27548000000,imu_link,0.000301074995244,-0.379861148467,0.000112900963325,0.925043460867,0.0,0.0,0.0,0.0,0.0,0.0,0.0,0.0,0.0,0.00153142838094,-0.00222147382704,-0.00188721791004,0.0,0.0,0.0,0.0,0.0,0.0,0.0,0.0,0.0,6.8180183734,0.00839473880794,6.94150660992,0.0,0.0,0.0,0.0,0.0,0.0,0.0,0.0,0.0
27552000000,291,27552000000,imu_link,0.000305954125894,-0.379865242743,0.00011064017247,0.925041778249,0.0,0.0,0.0,0.0,0.0,0.0,0.0,0.0,0.0,0.0018273328191,-0.00221388830893,-0.00197164965777,0.0,0.0,0.0,0.0,0.0,0.0,0.0,0.0,0.0,6.8179885993,0.00862283329627,6.94227030399,0.0,0.0,0.0,0.0,0.0,0.0,0.0,0.0,0.0
27556000000,292,27556000000,imu_link,0.000311054636652,-0.379869591591,0.000108460203001,0.925039990955,0.0,0.0,0.0,0.0,0.0,0.0,0.0,0.0,0.0,0.00194507829127,-0.00235151377286,-0.00197627064881,0.0,0.0,0.0,0.0,0.0,0.0,0.0,0.0,0.0,6.81907974322,0.00878039270096,6.94628774681,0.0,0.0,0.0,0.0,0.0,0.0,0.0,0.0,0.0
27560000000,293,27560000000,imu_link,0.000316324794393,-0.379874593098,0.000106395813177,0.925037935513,0.0,0.0,0.0,0.0,0.0,0.0,0.0,0.0,0.0,0.00204550232048,-0.00270430409623,-0.00195491856839,0.0,0.0,0.0,0.0,0.0,0.0,0.0,0.0,0.0,6.81907346555,0.00881936418241,6.94935881693,0.0,0.0,0.0,0.0,0.0,0.0,0.0,0.0,0.0
27564000000,294,27564000000,imu_link,0.000321710927076,-0.379880346799,0.000104462650703,0.925035571049,0.0,0.0,0.0,0.0,0.0,0.0,0.0,0.0,0.0,0.00212407675911,-0.00311088786995,-0.00191611598914,0.0,0.0,0.0,0.0,0.0,0.0,0.0,0.0,0.0,6.81769376148,0.0088439422885,6.94724816389,0.0,0.0,0.0,0.0,0.0,0.0,0.0,0.0,0.0
27568000000,295,27568000000,imu_link,0.00032732351459,-0.379886615932,0.000102670153631,0.925032994738,0.0,0.0,0.0,0.0,0.0,0.0,0.0,0.0,0.0,0.002255541312,-0.00338951201164,-0.00189397463348,0.0,0.0,0.0,0.0,0.0,0.0,0.0,0.0,0.0,6.81821874407,0.00884729624855,6.94504184262,0.0,0.0,0.0,0.0,0.0,0.0,0.0,0.0,0.0
27572000000,296,27572000000,imu_link,0.000333028699109,-0.379893091941,0.000101009515013,0.925030333332,0.0,0.0,0.0,0.0,0.0,0.0,0.0,0.0,0.0,0.00232341789201,-0.00350134180871,-0.00185053787888,0.0,0.0,0.0,0.0,0.0,0.0,0.0,0.0,0.0,6.81907457136,0.00891065035189,6.94278847214,0.0,0.0,0.0,0.0,0.0,0.0,0.0,0.0,0.0
27576000000,297,27576000000,imu_link,0.00033847995412,-0.379899613542,9.94571713273e-05,0.925027653192,0.0,0.0,0.0,0.0,0.0,0.0,0.0,0.0,0.0,0.00222654270869,-0.00352595649266,-0.0017522082592,0.0,0.0,0.0,0.0,0.0,0.0,0.0,0.0,0.0,6.81967913449,0.00893384503106,6.94192310412,0.0,0.0,0.0,0.0,0.0,0.0,0.0,0.0,0.0
27580000000,298,27580000000,imu_link,0.000343475628439,-0.379906179238,9.80118130923e-05,0.925024955012,0.0,0.0,0.0,0.0,0.0,0.0,0.0,0.0,0.0,0.00203615306532,-0.00354973706136,-0.00161618018471,0.0,0.0,0.0,0.0,0.0,0.0,0.0,0.0,0.0,6.81958257507,0.00886554934087,6.94135334743,0.0,0.0,0.0,0.0,0.0,0.0,0.0,0.0,0.0
27584000000,299,27584000000,imu_link,0.000347827021974,-0.379912788087,9.67187021528e-05,0.925022239252,0.0,0.0,0.0,0.0,0.0,0.0,0.0,0.0,0.0,0.00176708591279,-0.00357297758594,-0.00142337251299,0.0,0.0,0.0,0.0,0.0,0.0,0.0,0.0,0.0,6.82054110603,0.00879836114122,6.94268391923,0.0,0.0,0.0,0.0,0.0,0.0,0.0,0.0,0.0
27588000000,300,27588000000,imu_link,0.000351025211918,-0.37991937544,9.55542942247e-05,0.925019532667,0.0,0.0,0.0,0.0,0.0,0.0,0.0,0.0,0.0,0.00125816383176,-0.00356121417906,-0.00114479172537,0.0,0.0,0.0,0.0,0.0,0.0,0.0,0.0,0.0,6.82049492093,0.00876116956922,6.9418366618,0.0,0.0,0.0,0.0,0.0,0.0,0.0,0.0,0.0
27592000000,301,27592000000,imu_link,0.000352694696174,-0.379925723186,9.44790586887e-05,0.925016925003,0.0,0.0,0.0,0.0,0.0,0.0,0.0,0.0,0.0,0.000568055767292,-0.00343151402996,-0.000813202948259,0.0,0.0,0.0,0.0,0.0,0.0,0.0,0.0,0.0,6.82063048148,0.00863088227389,6.93943555779,0.0,0.0,0.0,0.0,0.0,0.0,0.0,0.0,0.0
27596000000,302,27596000000,imu_link,0.000352757316312,-0.379931405482,9.34607949679e-05,0.925014591212,0.0,0.0,0.0,0.0,0.0,0.0,0.0,0.0,0.0,-0.000164326817385,-0.00307162617246,-0.000481738783614,0.0,0.0,0.0,0.0,0.0,0.0,0.0,0.0,0.0,6.82155698654,0.00839661601823,6.93658916087,0.0,0.0,0.0,0.0,0.0,0.0,0.0,0.0,0.0
27600000000,303,27600000000,imu_link,0.000351387694354,-0.379936202808,9.24833153598e-05,0.925012621411,0.0,0.0,0.0,0.0,0.0,0.0,0.0,0.0,0.0,-0.000819024498791,-0.00259310149451,-0.000190972056638,0.0,0.0,0.0,0.0,0.0,0.0,0.0,0.0,0.0,6.82189904455,0.00812383654914,6.93488123252,0.0,0.0,0.0,0.0,0.0,0.0,0.0,0.0,0.0
27604000000,304,27604000000,imu_link,0.000348879557894,-0.379940436661,9.15849490125e-05,0.925010883441,0.0,0.0,0.0,0.0,0.0,0.0,0.0,0.0,0.0,-0.00133058032013,-0.00228838438834,6.17900449358e-05,0.0,0.0,0.0,0.0,0.0,0.0,0.0,0.0,0.0,6.82234912655,0.00787148216585,6.93842567693,0.0,0.0,0.0,0.0,0.0,0.0,0.0,0.0,0.0
27608000000,305,27608000000,imu_link,0.000345633319234,-0.379944634518,9.08501598074e-05,0.925009160487,0.0,0.0,0.0,0.0,0.0,0.0,0.0,0.0,0.0,-0.00164088278942,-0.00226882117183,0.00027765583262,0.0,0.0,0.0,0.0,0.0,0.0,0.0,0.0,0.0,6.82327329195,0.00763995251133,6.94462051978,0.0,0.0,0.0,0.0,0.0,0.0,0.0,0.0,0.0
27612000000,306,27612000000,imu_link,0.000342034300494,-0.379949254274,9.03400533847e-05,0.925007264311,0.0,0.0,0.0,0.0,0.0,0.0,0.0,0.0,0.0,-0.00176135091268,-0.00249680416804,0.000448671877804,0.0,0.0,0.0,0.0,0.0,0.0,0.0,0.0,0.0,6.82265778614,0.00747118557801,6.94721324705,0.0,0.0,0.0,0.0,0.0,0.0,0.0,0.0,0.0
27616000000,307,27616000000,imu_link,0.000338578653927,-0.379954243505,9.00572817585e-05,0.925005216254,0.0,0.0,0.0,0.0,0.0,0.0,0.0,0.0,0.0,-0.00165184363391,-0.0026965085886,0.000526648018787,0.0,0.0,0.0,0.0,0.0,0.0,0.0,0.0,0.0,6.82283929887,0.00734667041455,6.94668763105,0.0,0.0,0.0,0.0,0.0,0.0,0.0,0.0,0.0
27620000000,308,27620000000,imu_link,0.000335573411856,-0.379959421608,8.99864256471e-05,0.925003090386,0.0,0.0,0.0,0.0,0.0,0.0,0.0,0.0,0.0,-0.0014032666124,-0.00279862895735,0.000539128425059,0.0,0.0,0.0,0.0,0.0,0.0,0.0,0.0,0.0,6.82344392424,0.00728935519984,6.94557571524,0.0,0.0,0.0,0.0,0.0,0.0,0.0,0.0,0.0
27624000000,309,27624000000,imu_link,0.000333013131599,-0.37996452722,9.0103722068e-05,0.925000994074,0.0,0.0,0.0,0.0,0.0,0.0,0.0,0.0,0.0,-0.00116172761957,-0.00275947488749,0.000541602052212,0.0,0.0,0.0,0.0,0.0,0.0,0.0,0.0,0.0,6.82372994169,0.00731841216016,6.94297531838,0.0,0.0,0.0,0.0,0.0,0.0,0.0,0.0,0.0
27628000000,310,27628000000,imu_link,0.000330933645555,-0.379969510461,9.04023019989e-05,0.9249989478,0.0,0.0,0.0,0.0,0.0,0.0,0.0,0.0,0.0,-0.000904922223986,-0.0026933640265,0.000534080763136,0.0,0.0,0.0,0.0,0.0,0.0,0.0,0.0,0.0,6.82269542726,0.00737600970026,6.94031855836,0.0,0.0,0.0,0.0,0.0,0.0,0.0,0.0,0.0
27632000000,311,27632000000,imu_link,0.000329620101747,-0.379974527163,9.08734999552e-05,0.924996887454,0.0,0.0,0.0,0.0,0.0,0.0,0.0,0.0,0.0,-0.000517878733517,-0.0027115190736,0.000468405333507,0.0,0.0,0.0,0.0,0.0,0.0,0.0,0.0,0.0,6.82262742747,0.00742011656807,6.94113955721,0.0,0.0,0.0,0.0,0.0,0.0,0.0,0.0,0.0
27636000000,312,27636000000,imu_link,0.000329325884534,-0.379979813641,9.14802649424e-05,0.924994715877,0.0,0.0,0.0,0.0,0.0,0.0,0.0,0.0,0.0,-2.06796862852e-05,-0.00285744661601,0.000337495319662,0.0,0.0,0.0,0.0,0.0,0.0,0.0,0.0,0.0,6.82376516625,0.00749707839279,6.94507395633,0.0,0.0,0.0,0.0,0.0,0.0,0.0,0.0,0.0
27640000000,313,27640000000,imu_link,0.000330071996863,-0.379985567396,9.21995212611e-05,0.924992351926,0.0,0.0,0.0,0.0,0.0,0.0,0.0,0.0,0.0,0.000481852499606,-0.00311013889056,0.000191955892749,0.0,0.0,0.0,0.0,0.0,0.0,0.0,0.0,0.0,6.8239444729,0.00763790736043,6.94668494078,0.0,0.0,0.0,0.0,0.0,0.0,0.0,0.0,0.0
27644000000,314,27644000000,imu_link,0.000331603137965,-0.379991837906,9.2998509573e-05,0.924989775357,0.0,0.0,0.0,0.0,0.0,0.0,0.0,0.0,0.0,0.000860085075652,-0.00338955518849,7.97769178394e-05,0.0,0.0,0.0,0.0,0.0,0.0,0.0,0.0,0.0,6.82366574567,0.00781182077672,6.9457766529,0.0,0.0,0.0,0.0,0.0,0.0,0.0,0.0,0.0
27648000000,315,27648000000,imu_link,0.000333444912427,-0.379998420259,9.38202843651e-05,0.924987070511,0.0,0.0,0.0,0.0,0.0,0.0,0.0,0.0,0.0,0.00100808752289,-0.00355816377208,3.13541466103e-05,0.0,0.0,0.0,0.0,0.0,0.0,0.0,0.0,0.0,6.82469297636,0.00798831115762,6.94514505044,0.0,0.0,0.0,0.0,0.0,0.0,0.0,0.0,0.0
27652000000,316,27652000000,imu_link,0.000334988591288,-0.380004984048,9.46001195965e-05,0.924984373345,0.0,0.0,0.0,0.0,0.0,0.0,0.0,0.0,0.0,0.000862251342002,-0.00354811181066,6.85918441133e-05,0.0,0.0,0.0,0.0,0.0,0.0,0.0,0.0,0.0,6.82647948536,0.0081081547193,6.94488035792,0.0,0.0,0.0,0.0,0.0,0.0,0.0,0.0,0.0
27656000000,317,27656000000,imu_link,0.000335657197224,-0.380011039924,9.53247455854e-05,0.924981885111,0.0,0.0,0.0,0.0,0.0,0.0,0.0,0.0,0.0,0.00044703608665,-0.00327347585512,0.00020922908229,0.0,0.0,0.0,0.0,0.0,0.0,0.0,0.0,0.0,6.8278849646,0.00813151055092,6.94228240528,0.0,0.0,0.0,0.0,0.0,0.0,0.0,0.0,0.0
27660000000,318,27660000000,imu_link,0.000335023427347,-0.380016189592,9.60178940334e-05,0.92497976961,0.0,0.0,0.0,0.0,0.0,0.0,0.0,0.0,0.0,-0.00016130120038,-0.0027834855449,0.000441959745641,0.0,0.0,0.0,0.0,0.0,0.0,0.0,0.0,0.0,6.82932230785,0.00805373426185,6.94089962397,0.0,0.0,0.0,0.0,0.0,0.0,0.0,0.0,0.0
27664000000,319,27664000000,imu_link,0.000333175162971,-0.380019807738,9.67154094696e-05,0.924978283727,0.0,0.0,0.0,0.0,0.0,0.0,0.0,0.0,0.0,-0.000722194799706,-0.00195548000376,0.000674456443892,0.0,0.0,0.0,0.0,0.0,0.0,0.0,0.0,0.0,7.00148094974,0.00801446065269,7.24802008458,0.0,0.0,0.0,0.0,0.0,0.0,0.0,0.0,0.0
27668000000,320,27668000000,imu_link,0.00033102489232,-0.380021601882,9.74826218389e-05,0.924977547307,0.0,0.0,0.0,0.0,0.0,0.0,0.0,0.0,0.0,-0.00084866296192,-0.00096946719756,0.000763734603648,0.0,0.0,0.0,0.0,0.0,0.0,0.0,0.0,0.0,7.12530904943,0.00775559766177,7.47682392689,0.0,0.0,0.0,0.0,0.0,0.0,0.0,0.0,0.0
27672000000,321,27672000000,imu_link,0.000329754869153,-0.380021641248,9.84139068897e-05,0.924977531489,0.0,0.0,0.0,0.0,0.0,0.0,0.0,0.0,0.0,-0.000410416539281,-2.0995781994e-05,0.000672034286746,0.0,0.0,0.0,0.0,0.0,0.0,0.0,0.0,0.0,7.21801467916,0.00757997048408,7.6548788304,0.0,0.0,0.0,0.0,0.0,0.0,0.0,0.0,0.0
27676000000,322,27676000000,imu_link,0.000330255041874,-0.380020344891,9.96466455145e-05,0.924978063778,0.0,0.0,0.0,0.0,0.0,0.0,0.0,0.0,0.0,0.000465533969347,0.000700869770416,0.000474849603604,0.0,0.0,0.0,0.0,0.0,0.0,0.0,0.0,0.0,7.28514261779,0.00764579380494,7.79014754204,0.0,0.0,0.0,0.0,0.0,0.0,0.0,0.0,0.0
27680000000,323,27680000000,imu_link,0.000332768013266,-0.380018404164,0.000101217563808,0.924978860038,0.0,0.0,0.0,0.0,0.0,0.0,0.0,0.0,0.0,0.00146067737103,0.00104899627715,0.000248682213532,0.0,0.0,0.0,0.0,0.0,0.0,0.0,0.0,0.0,7.33284803927,0.00791137268518,7.89177613113,0.0,0.0,0.0,0.0,0.0,0.0,0.0,0.0,0.0
27684000000,324,27684000000,imu_link,0.0003369685169,-0.380016627911,0.000103079897996,0.924979588066,0.0,0.0,0.0,0.0,0.0,0.0,0.0,0.0,0.0,0.00229651792648,0.000959927631205,6.28431485837e-05,0.0,0.0,0.0,0.0,0.0,0.0,0.0,0.0,0.0,7.37334023978,0.00828607215209,7.98094734579,0.0,0.0,0.0,0.0,0.0,0.0,0.0,0.0,0.0
27688000000,325,27688000000,imu_link,0.000342537476346,-0.380015800555,0.000105094734402,0.924979925702,0.0,0.0,0.0,0.0,0.0,0.0,0.0,0.0,0.0,0.00295840833103,0.000446849860893,-0.000126464118597,0.0,0.0,0.0,0.0,0.0,0.0,0.0,0.0,0.0,7.40195451569,0.00858365940461,8.04701430872,0.0,0.0,0.0,0.0,0.0,0.0,0.0,0.0,0.0
27692000000,326,27692000000,imu_link,0.000349250801104,-0.380016511382,0.00010716389863,0.92497963092,0.0,0.0,0.0,0.0,0.0,0.0,0.0,0.0,0.0,0.00349801600293,-0.000384759516019,-0.000318479821937,0.0,0.0,0.0,0.0,0.0,0.0,0.0,0.0,0.0,7.42759151711,0.0088107414152,8.10597733324,0.0,0.0,0.0,0.0,0.0,0.0,0.0,0.0,0.0
27696000000,327,27696000000,imu_link,0.000356906720716,-0.380018903443,0.000109208833999,0.924978645006,0.0,0.0,0.0,0.0,0.0,0.0,0.0,0.0,0.0,0.00392938344584,-0.00129368899739,-0.0005084556075,0.0,0.0,0.0,0.0,0.0,0.0,0.0,0.0,0.0,7.44435558888,0.00897753501595,8.14410776798,0.0,0.0,0.0,0.0,0.0,0.0,0.0,0.0,0.0
27700000000,328,27700000000,imu_link,0.00036504933013,-0.380022740664,0.000111177373591,0.924977065098,0.0,0.0,0.0,0.0,0.0,0.0,0.0,0.0,0.0,0.00413998345085,-0.00207496451789,-0.000635973173413,0.0,0.0,0.0,0.0,0.0,0.0,0.0,0.0,0.0,7.45471927671,0.00915501333047,8.1662029626,0.0,0.0,0.0,0.0,0.0,0.0,0.0,0.0,0.0
27704000000,329,27704000000,imu_link,0.000373155772468,-0.380027682346,0.000113094861637,0.924975031347,0.0,0.0,0.0,0.0,0.0,0.0,0.0,0.0,0.0,0.00411357766064,-0.00267200766189,-0.000652484952366,0.0,0.0,0.0,0.0,0.0,0.0,0.0,0.0,0.0,7.46435914759,0.0092795003103,8.18623068196,0.0,0.0,0.0,0.0,0.0,0.0,0.0,0.0,0.0
27708000000,330,27708000000,imu_link,0.000380875197256,-0.380033389911,0.000114978483997,0.924972682984,0.0,0.0,0.0,0.0,0.0,0.0,0.0,0.0,0.0,0.00392816731694,-0.00308598420659,-0.000594448030368,0.0,0.0,0.0,0.0,0.0,0.0,0.0,0.0,0.0,7.47131184054,0.009248305019,8.20130786231,0.0,0.0,0.0,0.0,0.0,0.0,0.0,0.0,0.0
27712000000,331,27712000000,imu_link,0.00038806231508,-0.380039609536,0.000116840389137,0.92497012435,0.0,0.0,0.0,0.0,0.0,0.0,0.0,0.0,0.0,0.00367786658839,-0.00336273311752,-0.000503235134569,0.0,0.0,0.0,0.0,0.0,0.0,0.0,0.0,0.0,7.47606320944,0.0090711257114,8.21334323458,0.0,0.0,0.0,0.0,0.0,0.0,0.0,0.0,0.0
27716000000,332,27716000000,imu_link,0.000394721798514,-0.38004605086,0.000118685095109,0.924967474744,0.0,0.0,0.0,0.0,0.0,0.0,0.0,0.0,0.0,0.00343058008125,-0.00348252515783,-0.000410880177426,0.0,0.0,0.0,0.0,0.0,0.0,0.0,0.0,0.0,7.47602642581,0.00885987026574,8.21562094185,0.0,0.0,0.0,0.0,0.0,0.0,0.0,0.0,0.0
27720000000,333,27720000000,imu_link,0.000400781789669,-0.380052371423,0.000120494448413,0.924964874917,0.0,0.0,0.0,0.0,0.0,0.0,0.0,0.0,0.0,0.00314660417299,-0.00341718705984,-0.000313339662988,0.0,0.0,0.0,0.0,0.0,0.0,0.0,0.0,0.0,7.47535538984,0.00868214031236,8.21626499963,0.0,0.0,0.0,0.0,0.0,0.0,0.0,0.0,0.0
27724000000,334,27724000000,imu_link,0.000406056757843,-0.380058428363,0.000122207579355,0.924962383675,0.0,0.0,0.0,0.0,0.0,0.0,0.0,0.0,0.0,0.00276525418551,-0.00327460383709,-0.000208725262098,0.0,0.0,0.0,0.0,0.0,0.0,0.0,0.0,0.0,7.47292221299,0.00852668336285,8.21540012348,0.0,0.0,0.0,0.0,0.0,0.0,0.0,0.0,0.0
27728000000,335,27728000000,imu_link,0.000410285130503,-0.380064340849,0.000123761640851,0.924959952195,0.0,0.0,0.0,0.0,0.0,0.0,0.0,0.0,0.0,0.00225099229627,-0.00319640902132,-8.34411459883e-05,0.0,0.0,0.0,0.0,0.0,0.0,0.0,0.0,0.0,7.47032617297,0.008367336547,8.21618155578,0.0,0.0,0.0,0.0,0.0,0.0,0.0,0.0,0.0
27732000000,336,27732000000,imu_link,0.000413271509551,-0.38007032052,0.000125106796247,0.924957493626,0.0,0.0,0.0,0.0,0.0,0.0,0.0,0.0,0.0,0.0016368976405,-0.00323259399876,5.59781667275e-05,0.0,0.0,0.0,0.0,0.0,0.0,0.0,0.0,0.0,7.46596679166,0.00816516914146,8.21423161326,0.0,0.0,0.0,0.0,0.0,0.0,0.0,0.0,0.0
27736000000,337,27736000000,imu_link,0.0004149376969,-0.380076663542,0.000126231709904,0.924954886318,0.0,0.0,0.0,0.0,0.0,0.0,0.0,0.0,0.0,0.000984491369584,-0.00342886506601,0.000205088269485,0.0,0.0,0.0,0.0,0.0,0.0,0.0,0.0,0.0,7.46171315145,0.00793874120441,8.2132463309,0.0,0.0,0.0,0.0,0.0,0.0,0.0,0.0,0.0
27740000000,338,27740000000,imu_link,0.000415563956441,-0.38008362725,0.000127191468858,0.924952024391,0.0,0.0,0.0,0.0,0.0,0.0,0.0,0.0,0.0,0.000472176142215,-0.00376427393035,0.000326478933827,0.0,0.0,0.0,0.0,0.0,0.0,0.0,0.0,0.0,7.45783385865,0.00765160474247,8.21259439792,0.0,0.0,0.0,0.0,0.0,0.0,0.0,0.0,0.0
27744000000,339,27744000000,imu_link,0.000415413568606,-0.38009127768,0.00012802018553,0.924948880573,0.0,0.0,0.0,0.0,0.0,0.0,0.0,0.0,0.0,8.81067468738e-05,-0.00413541522914,0.000413631113686,0.0,0.0,0.0,0.0,0.0,0.0,0.0,0.0,0.0,7.45188370822,0.00742519994859,8.20611055464,0.0,0.0,0.0,0.0,0.0,0.0,0.0,0.0,0.0
27748000000,340,27748000000,imu_link,0.000414823314951,-0.380099459342,0.000128721533089,0.92494551859,0.0,0.0,0.0,0.0,0.0,0.0,0.0,0.0,0.0,-0.000139514585831,-0.00442255621618,0.000438445040185,0.0,0.0,0.0,0.0,0.0,0.0,0.0,0.0,0.0,7.44581178114,0.00724534572002,8.19735978965,0.0,0.0,0.0,0.0,0.0,0.0,0.0,0.0,0.0
27752000000,341,27752000000,imu_link,0.000413835293127,-0.380108111469,0.000129256364234,0.924941963384,0.0,0.0,0.0,0.0,0.0,0.0,0.0,0.0,0.0,-0.000355108130989,-0.00467686481627,0.000437141483956,0.0,0.0,0.0,0.0,0.0,0.0,0.0,0.0,0.0,7.43855809369,0.00710969505061,8.18690097033,0.0,0.0,0.0,0.0,0.0,0.0,0.0,0.0,0.0
27756000000,342,27756000000,imu_link,0.000412438821343,-0.380117389844,0.00012962841809,0.924938150921,0.0,0.0,0.0,0.0,0.0,0.0,0.0,0.0,0.0,-0.000574928111347,-0.00501538578185,0.000439635490327,0.0,0.0,0.0,0.0,0.0,0.0,0.0,0.0,0.0,7.43186745121,0.0070019510996,8.17936826147,0.0,0.0,0.0,0.0,0.0,0.0,0.0,0.0,0.0
27760000000,343,27760000000,imu_link,0.000410873308199,-0.380127730042,0.00012990864081,0.924933902049,0.0,0.0,0.0,0.0,0.0,0.0,0.0,0.0,0.0,-0.000670536643442,-0.00558939778852,0.000429541464192,0.0,0.0,0.0,0.0,0.0,0.0,0.0,0.0,0.0,7.42586827242,0.00689696509491,8.17538013481,0.0,0.0,0.0,0.0,0.0,0.0,0.0,0.0,0.0
27764000000,344,27764000000,imu_link,0.000409552103578,-0.380139509803,0.000130175394739,0.924929061284,0.0,0.0,0.0,0.0,0.0,0.0,0.0,0.0,0.0,-0.000560083866213,-0.00636766375798,0.000377212555969,0.0,0.0,0.0,0.0,0.0,0.0,0.0,0.0,0.0,7.41868036947,0.00680689165943,8.16863713509,0.0,0.0,0.0,0.0,0.0,0.0,0.0,0.0,0.0
27768000000,345,27768000000,imu_link,0.000408730859794,-0.380152846674,0.00013045779492,0.924923580133,0.0,0.0,0.0,0.0,0.0,0.0,0.0,0.0,0.0,-0.000325866045771,-0.00720951955237,0.000289781499413,0.0,0.0,0.0,0.0,0.0,0.0,0.0,0.0,0.0,7.4121085771,0.00681344108067,8.16081931095,0.0,0.0,0.0,0.0,0.0,0.0,0.0,0.0,0.0
27772000000,346,27772000000,imu_link,0.000408476758528,-0.380167699725,0.000130781030649,0.924917475307,0.0,0.0,0.0,0.0,0.0,0.0,0.0,0.0,0.0,-5.57938677638e-05,-0.00802926977124,0.000201216495149,0.0,0.0,0.0,0.0,0.0,0.0,0.0,0.0,0.0,7.40455931957,0.00687724427092,8.14938777453,0.0,0.0,0.0,0.0,0.0,0.0,0.0,0.0,0.0
27776000000,347,27776000000,imu_link,0.000408624228862,-0.380183801439,0.000131165216189,0.924910856756,0.0,0.0,0.0,0.0,0.0,0.0,0.0,0.0,0.0,0.000141525273736,-0.00870438891654,0.00015335960944,0.0,0.0,0.0,0.0,0.0,0.0,0.0,0.0,0.0,7.39883903746,0.00698725627718,8.1395598943,0.0,0.0,0.0,0.0,0.0,0.0,0.0,0.0,0.0
27780000000,348,27780000000,imu_link,0.00040918440966,-0.380200834561,0.000131623985733,0.92490385481,0.0,0.0,0.0,0.0,0.0,0.0,0.0,0.0,0.0,0.000346580531556,-0.00920801612258,0.000109613912141,0.0,0.0,0.0,0.0,0.0,0.0,0.0,0.0,0.0,7.39210216167,0.00702836337851,8.12753936929,0.0,0.0,0.0,0.0,0.0,0.0,0.0,0.0,0.0
27784000000,349,27784000000,imu_link,0.000410491283563,-0.380218243266,0.000132113705648,0.924896697762,0.0,0.0,0.0,0.0,0.0,0.0,0.0,0.0,0.0,0.000697780890284,-0.00941123301635,-1.79326503055e-05,0.0,0.0,0.0,0.0,0.0,0.0,0.0,0.0,0.0,7.52718919479,0.00717755603083,8.3968497341,0.0,0.0,0.0,0.0,0.0,0.0,0.0,0.0,0.0
27788000000,350,27788000000,imu_link,0.000412897240467,-0.380235536004,0.000132566127045,0.92488958752,0.0,0.0,0.0,0.0,0.0,0.0,0.0,0.0,0.0,0.00119895727488,-0.00934878572689,-0.000244153886861,0.0,0.0,0.0,0.0,0.0,0.0,0.0,0.0,0.0,7.62228086106,0.0073470259422,8.59174007967,0.0,0.0,0.0,0.0,0.0,0.0,0.0,0.0,0.0
27792000000,351,27792000000,imu_link,0.000416522612725,-0.380252429548,0.000132927440331,0.924882640481,0.0,0.0,0.0,0.0,0.0,0.0,0.0,0.0,0.0,0.00174554105282,-0.00913325264118,-0.000518212114209,0.0,0.0,0.0,0.0,0.0,0.0,0.0,0.0,0.0,7.68845286491,0.00758392488498,8.73200027309,0.0,0.0,0.0,0.0,0.0,0.0,0.0,0.0,0.0
27796000000,352,27796000000,imu_link,0.000421166865828,-0.380268703909,0.000133227921157,0.924875947193,0.0,0.0,0.0,0.0,0.0,0.0,0.0,0.0,0.0,0.00220513611678,-0.00879875280743,-0.000740205332428,0.0,0.0,0.0,0.0,0.0,0.0,0.0,0.0,0.0,7.73465262196,0.00781879680915,8.83356841472,0.0,0.0,0.0,0.0,0.0,0.0,0.0,0.0,0.0
27800000000,353,27800000000,imu_link,0.000426495563952,-0.380284339906,0.000133517403642,0.924869515714,0.0,0.0,0.0,0.0,0.0,0.0,0.0,0.0,0.0,0.00251954571472,-0.00845381756714,-0.000875579763014,0.0,0.0,0.0,0.0,0.0,0.0,0.0,0.0,0.0,7.76712410673,0.0080257066218,8.90951690714,0.0,0.0,0.0,0.0,0.0,0.0,0.0,0.0,0.0
27804000000,354,27804000000,imu_link,0.000431940001621,-0.38029941201,0.00013379929038,0.924863315712,0.0,0.0,0.0,0.0,0.0,0.0,0.0,0.0,0.0,0.00257161171401,-0.00814905008083,-0.000901234970119,0.0,0.0,0.0,0.0,0.0,0.0,0.0,0.0,0.0,7.78588569757,0.00820484593252,8.95869283184,0.0,0.0,0.0,0.0,0.0,0.0,0.0,0.0,0.0
27808000000,355,27808000000,imu_link,0.000436921312968,-0.38031410735,0.000134020628479,0.92485727055,0.0,0.0,0.0,0.0,0.0,0.0,0.0,0.0,0.0,0.00234592590016,-0.00794536188933,-0.000841262972195,0.0,0.0,0.0,0.0,0.0,0.0,0.0,0.0,0.0,7.79871455768,0.00831148305035,8.99627082436,0.0,0.0,0.0,0.0,0.0,0.0,0.0,0.0,0.0
27812000000,356,27812000000,imu_link,0.000440769965758,-0.380328608902,0.000134037351787,0.924851305349,0.0,0.0,0.0,0.0,0.0,0.0,0.0,0.0,0.0,0.00178323872079,-0.00784051209687,-0.000720547390409,0.0,0.0,0.0,0.0,0.0,0.0,0.0,0.0,0.0,7.80250200086,0.00833163249823,9.01460428544,0.0,0.0,0.0,0.0,0.0,0.0,0.0,0.0,0.0
27816000000,357,27816000000,imu_link,0.000442914142812,-0.380343204571,0.000133764461465,0.924845302021,0.0,0.0,0.0,0.0,0.0,0.0,0.0,0.0,0.0,0.00093997333626,-0.00789123401163,-0.000530318422222,0.0,0.0,0.0,0.0,0.0,0.0,0.0,0.0,0.0,7.80497571572,0.00821428408877,9.03072582761,0.0,0.0,0.0,0.0,0.0,0.0,0.0,0.0,0.0
27820000000,358,27820000000,imu_link,0.000442974156856,-0.380358442157,0.000133143663423,0.924839035468,0.0,0.0,0.0,0.0,0.0,0.0,0.0,0.0,0.0,-8.99376563182e-05,-0.00823806716593,-0.000294690450814,0.0,0.0,0.0,0.0,0.0,0.0,0.0,0.0,0.0,7.80588571467,0.00799691747377,9.0456660282,0.0,0.0,0.0,0.0,0.0,0.0,0.0,0.0,0.0
27824000000,359,27824000000,imu_link,0.000440863853368,-0.380374729272,0.000132140950254,0.924832338053,0.0,0.0,0.0,0.0,0.0,0.0,0.0,0.0,0.0,-0.00116614160294,-0.0088052703871,-5.82850218729e-05,0.0,0.0,0.0,0.0,0.0,0.0,0.0,0.0,0.0,7.79907931904,0.00768405893991,9.0428730742,0.0,0.0,0.0,0.0,0.0,0.0,0.0,0.0,0.0
27828000000,360,27828000000,imu_link,0.000436593556886,-0.380392290508,0.000130763443028,0.924825117311,0.0,0.0,0.0,0.0,0.0,0.0,0.0,0.0,0.0,-0.00223620720619,-0.00949391521166,0.000179522955059,0.0,0.0,0.0,0.0,0.0,0.0,0.0,0.0,0.0,7.79142041167,0.00735360435063,9.03674566083,0.0,0.0,0.0,0.0,0.0,0.0,0.0,0.0,0.0
27832000000,361,27832000000,imu_link,0.00043027766897,-0.380411396767,0.000129033609108,0.924817261637,0.0,0.0,0.0,0.0,0.0,0.0,0.0,0.0,0.0,-0.00324908796771,-0.0103290576747,0.000406045058477,0.0,0.0,0.0,0.0,0.0,0.0,0.0,0.0,0.0,7.78197366678,0.00699753186844,9.02696357105,0.0,0.0,0.0,0.0,0.0,0.0,0.0,0.0,0.0
27836000000,362,27836000000,imu_link,0.000422216815568,-0.380432478547,0.000127016149212,0.924808593638,0.0,0.0,0.0,0.0,0.0,0.0,0.0,0.0,0.0,-0.00411063586019,-0.0113970137524,0.000605424124194,0.0,0.0,0.0,0.0,0.0,0.0,0.0,0.0,0.0,7.77255188674,0.00657354416967,9.01832346362,0.0,0.0,0.0,0.0,0.0,0.0,0.0,0.0,0.0
27840000000,363,27840000000,imu_link,0.000412989958665,-0.380456129538,0.000124785337341,0.924798868601,0.0,0.0,0.0,0.0,0.0,0.0,0.0,0.0,0.0,-0.00469032391656,-0.0127860646346,0.000729171567408,0.0,0.0,0.0,0.0,0.0,0.0,0.0,0.0,0.0,7.76524974978,0.00622961532213,9.01569209181,0.0,0.0,0.0,0.0,0.0,0.0,0.0,0.0,0.0
27844000000,364,27844000000,imu_link,0.00040300684521,-0.380482711989,0.000122379506493,0.924787937036,0.0,0.0,0.0,0.0,0.0,0.0,0.0,0.0,0.0,-0.00507324379945,-0.0143710747373,0.000792784722208,0.0,0.0,0.0,0.0,0.0,0.0,0.0,0.0,0.0,7.75105037013,0.00608539523246,8.9962408176,0.0,0.0,0.0,0.0,0.0,0.0,0.0,0.0,0.0
27848000000,365,27848000000,imu_link,0.000392536081246,-0.380512117548,0.000119826834069,0.924775843086,0.0,0.0,0.0,0.0,0.0,0.0,0.0,0.0,0.0,-0.00532660431611,-0.0158975964113,0.000818297349614,0.0,0.0,0.0,0.0,0.0,0.0,0.0,0.0,0.0,7.73873097481,0.00603995975634,8.97695480339,0.0,0.0,0.0,0.0,0.0,0.0,0.0,0.0,0.0
27852000000,366,27852000000,imu_link,0.000381648187243,-0.380543883399,0.000117146549838,0.92476277684,0.0,0.0,0.0,0.0,0.0,0.0,0.0,0.0,0.0,-0.00554370970995,-0.0171739519191,0.000839174212112,0.0,0.0,0.0,0.0,0.0,0.0,0.0,0.0,0.0,7.72376056694,0.00607480038397,8.94966169437,0.0,0.0,0.0,0.0,0.0,0.0,0.0,0.0,0.0
27856000000,367,27856000000,imu_link,0.000370191624453,-0.380577198312,0.000114327095605,0.924749071918,0.0,0.0,0.0,0.0,0.0,0.0,0.0,0.0,0.0,-0.00583310057917,-0.0180117247869,0.0008833593152,0.0,0.0,0.0,0.0,0.0,0.0,0.0,0.0,0.0,7.71134322995,0.00612516786799,8.92456132703,0.0,0.0,0.0,0.0,0.0,0.0,0.0,0.0,0.0
27860000000,368,27860000000,imu_link,0.000358004314639,-0.380611203041,0.000111364856754,0.924735081821,0.0,0.0,0.0,0.0,0.0,0.0,0.0,0.0,0.0,-0.00619813632821,-0.0183849283338,0.000956536154885,0.0,0.0,0.0,0.0,0.0,0.0,0.0,0.0,0.0,7.69921866213,0.00616614163051,8.89960642464,0.0,0.0,0.0,0.0,0.0,0.0,0.0,0.0,0.0
27864000000,369,27864000000,imu_link,0.000345099220678,-0.380645422631,0.000108285619381,0.92472100193,0.0,0.0,0.0,0.0,0.0,0.0,0.0,0.0,0.0,-0.0065522777845,-0.0185013422563,0.00103908164077,0.0,0.0,0.0,0.0,0.0,0.0,0.0,0.0,0.0,7.68200447096,0.00613815556512,8.86701568614,0.0,0.0,0.0,0.0,0.0,0.0,0.0,0.0,0.0
27868000000,370,27868000000,imu_link,0.000331777651387,-0.380679683181,0.000105120982879,0.924706903665,0.0,0.0,0.0,0.0,0.0,0.0,0.0,0.0,0.0,-0.00676109196808,-0.0185237701177,0.00107886923313,0.0,0.0,0.0,0.0,0.0,0.0,0.0,0.0,0.0,7.66651772946,0.00607006084902,8.84050154777,0.0,0.0,0.0,0.0,0.0,0.0,0.0,0.0,0.0
27872000000,371,27872000000,imu_link,0.000318528970523,-0.380714073332,0.000101910914299,0.924692750334,0.0,0.0,0.0,0.0,0.0,0.0,0.0,0.0,0.0,-0.00673603696386,-0.0185941838412,0.0010440143769,0.0,0.0,0.0,0.0,0.0,0.0,0.0,0.0,0.0,7.64941823498,0.00601715147752,8.81234542342,0.0,0.0,0.0,0.0,0.0,0.0,0.0,0.0,0.0
27876000000,372,27876000000,imu_link,0.000306096645936,-0.38074865275,9.87217494703e-05,0.924678517101,0.0,0.0,0.0,0.0,0.0,0.0,0.0,0.0,0.0,-0.00635461534045,-0.0186969393971,0.000898314203914,0.0,0.0,0.0,0.0,0.0,0.0,0.0,0.0,0.0,7.63407992684,0.00594658634293,8.78765595906,0.0,0.0,0.0,0.0,0.0,0.0,0.0,0.0,0.0
27880000000,373,27880000000,imu_link,0.00029511111455,-0.380783271419,9.5594815522e-05,0.924664265546,0.0,0.0,0.0,0.0,0.0,0.0,0.0,0.0,0.0,-0.00567385801517,-0.018718635957,0.000651660613016,0.0,0.0,0.0,0.0,0.0,0.0,0.0,0.0,0.0,7.62030209284,0.00611214967089,8.76480088024,0.0,0.0,0.0,0.0,0.0,0.0,0.0,0.0,0.0
27884000000,374,27884000000,imu_link,0.000285980859714,-0.380817698135,9.25397956462e-05,0.924650090812,0.0,0.0,0.0,0.0,0.0,0.0,0.0,0.0,0.0,-0.00480241437287,-0.0186153421908,0.000331647666902,0.0,0.0,0.0,0.0,0.0,0.0,0.0,0.0,0.0,7.60182121806,0.00648221674253,8.73157108501,0.0,0.0,0.0,0.0,0.0,0.0,0.0,0.0,0.0
27888000000,375,27888000000,imu_link,0.000278775083727,-0.380851859631,8.9536202181e-05,0.924636023137,0.0,0.0,0.0,0.0,0.0,0.0,0.0,0.0,0.0,-0.00390289059425,-0.0184724213445,-1.10572957992e-05,0.0,0.0,0.0,0.0,0.0,0.0,0.0,0.0,0.0,7.58577035041,0.00692261813276,8.70481795542,0.0,0.0,0.0,0.0,0.0,0.0,0.0,0.0,0.0
27892000000,376,27892000000,imu_link,0.00027327870581,-0.380885748038,8.6558793135e-05,0.92462206591,0.0,0.0,0.0,0.0,0.0,0.0,0.0,0.0,0.0,-0.0031076220533,-0.0183252076935,-0.000324508494416,0.0,0.0,0.0,0.0,0.0,0.0,0.0,0.0,0.0,7.56772212807,0.0074014841454,8.67467870437,0.0,0.0,0.0,0.0,0.0,0.0,0.0,0.0,0.0
27896000000,377,27896000000,imu_link,0.000269089038977,-0.380919212244,8.36042573316e-05,0.924608281568,0.0,0.0,0.0,0.0,0.0,0.0,0.0,0.0,0.0,-0.00249916432003,-0.0180962235521,-0.000562853201252,0.0,0.0,0.0,0.0,0.0,0.0,0.0,0.0,0.0,7.55211645523,0.00784223722634,8.64772698042,0.0,0.0,0.0,0.0,0.0,0.0,0.0,0.0,0.0
27900000000,378,27900000000,imu_link,0.00026563555583,-0.380951975916,8.06452745121e-05,0.924594784206,0.0,0.0,0.0,0.0,0.0,0.0,0.0,0.0,0.0,-0.0021596798579,-0.0177177373149,-0.000705228579444,0.0,0.0,0.0,0.0,0.0,0.0,0.0,0.0,0.0,7.5391491101,0.00823560977758,8.62465132567,0.0,0.0,0.0,0.0,0.0,0.0,0.0,0.0,0.0
27904000000,379,27904000000,imu_link,0.000262539981958,-0.380983732751,7.76371904386e-05,0.924581700243,0.0,0.0,0.0,0.0,0.0,0.0,0.0,0.0,0.0,-0.0020035862515,-0.0171735578219,-0.000796251479075,0.0,0.0,0.0,0.0,0.0,0.0,0.0,0.0,0.0,7.52105353385,0.00844778633928,8.59084996738,0.0,0.0,0.0,0.0,0.0,0.0,0.0,0.0,0.0
27908000000,380,27908000000,imu_link,0.000259640755599,-0.381014403874,7.45491512773e-05,0.924569062358,0.0,0.0,0.0,0.0,0.0,0.0,0.0,0.0,0.0,-0.00192806379751,-0.0165866866225,-0.000870776426373,0.0,0.0,0.0,0.0,0.0,0.0,0.0,0.0,0.0,7.50543950947,0.00855383819706,8.56405717365,0.0,0.0,0.0,0.0,0.0,0.0,0.0,0.0,0.0
27912000000,381,27912000000,imu_link,0.000257118228298,-0.381044113585,7.13804980182e-05,0.924556819399,0.0,0.0,0.0,0.0,0.0,0.0,0.0,0.0,0.0,-0.00176929464904,-0.0160670286937,-0.000979946492118,0.0,0.0,0.0,0.0,0.0,0.0,0.0,0.0,0.0,7.4879059663,0.00857509806847,8.53482320433,0.0,0.0,0.0,0.0,0.0,0.0,0.0,0.0,0.0
27916000000,382,27916000000,imu_link,0.00025537994524,-0.381073003447,6.81746862746e-05,0.924544913012,0.0,0.0,0.0,0.0,0.0,0.0,0.0,0.0,0.0,-0.00141384898717,-0.0156239391493,-0.00114665729473,0.0,0.0,0.0,0.0,0.0,0.0,0.0,0.0,0.0,7.4724963068,0.00856311268379,8.50958847097,0.0,0.0,0.0,0.0,0.0,0.0,0.0,0.0,0.0
