%time,field.header.seq,field.header.stamp,field.header.frame_id,field.orientation.x,field.orientation.y,field.orientation.z,field.orientation.w,field.orientation_covariance0,field.orientation_covariance1,field.orientation_covariance2,field.orientation_covariance3,field.orientation_covariance4,field.orientation_covariance5,field.orientation_covariance6,field.orientation_covariance7,field.orientation_covariance8,field.angular_velocity.x,field.angular_velocity.y,field.angular_velocity.z,field.angular_velocity_covariance0,field.angular_velocity_covariance1,field.angular_velocity_covariance2,field.angular_velocity_covariance3,field.angular_velocity_covariance4,field.angular_velocity_covariance5,field.angular_velocity_covariance6,field.angular_velocity_covariance7,field.angular_velocity_covariance8,field.linear_acceleration.x,field.linear_acceleration.y,field.linear_acceleration.z,field.linear_acceleration_covariance0,field.linear_acceleration_covariance1,field.linear_acceleration_covariance2,field.linear_acceleration_covariance3,field.linear_acceleration_covariance4,field.linear_acceleration_covariance5,field.linear_acceleration_covariance6,field.linear_acceleration_covariance7,field.linear_acceleration_covariance8
25980000000,0,25980000000,imu_link,-0.000989094294333,-0.366905032772,-0.00045747608232,0.930257764996,0.0,0.0,0.0,0.0,0.0,0.0,0.0,0.0,0.0,0.00113339418963,-0.012020157865,-0.000162151694459,0.0,0.0,0.0,0.0,0.0,0.0,0.0,0.0,0.0,5.97226242898,-0.00938071915892,7.57583631544,0.0,0.0,0.0,0.0,0.0,0.0,0.0,0.0,0.0
25984000000,1,25984000000,imu_link,-0.000986266726853,-0.366928516784,-0.00045674739676,0.930248505632,0.0,0.0,0.0,0.0,0.0,0.0,0.0,0.0,0.0,0.00144965499745,-0.0126214595151,-0.000193523589317,0.0,0.0,0.0,0.0,0.0,0.0,0.0,0.0,0.0,5.97490866032,-0.00929378467685,7.57090629947,0.0,0.0,0.0,0.0,0.0,0.0,0.0,0.0,0.0
25988000000,2,25988000000,imu_link,-0.000983124361209,-0.366952557693,-0.000455920051686,0.930239026275,0.0,0.0,0.0,0.0,0.0,0.0,0.0,0.0,0.0,0.00161419444756,-0.0129208234634,-0.000205713733308,0.0,0.0,0.0,0.0,0.0,0.0,0.0,0.0,0.0,5.97721318733,-0.00917945273202,7.5626572229,0.0,0.0,0.0,0.0,0.0,0.0,0.0,0.0,0.0
25992000000,3,25992000000,imu_link,-0.000980303573694,-0.366976517885,-0.000455084231114,0.930229577698,0.0,0.0,0.0,0.0,0.0,0.0,0.0,0.0,0.0,0.00146617396704,-0.0128777106654,-0.000142722961762,0.0,0.0,0.0,0.0,0.0,0.0,0.0,0.0,0.0,5.9806259501,-0.00907919395614,7.55661154427,0.0,0.0,0.0,0.0,0.0,0.0,0.0,0.0,0.0
25996000000,4,25996000000,imu_link,-0.000978375916959,-0.367000140527,-0.000454299020428,0.930220260608,0.0,0.0,0.0,0.0,0.0,0.0,0.0,0.0,0.0,0.00104146695523,-0.0126967625781,-2.18798557517e-06,0.0,0.0,0.0,0.0,0.0,0.0,0.0,0.0,0.0,5.98439822654,-0.00909196352807,7.55465675778,0.0,0.0,0.0,0.0,0.0,0.0,0.0,0.0,0.0
26000000000,5,26000000000,imu_link,-0.000977450106515,-0.367023786958,-0.000453552657701,0.930210932363,0.0,0.0,0.0,0.0,0.0,0.0,0.0,0.0,0.0,0.000568369439108,-0.012710083131,0.000163568128052,0.0,0.0,0.0,0.0,0.0,0.0,0.0,0.0,0.0,5.98761962908,-0.0092497125301,7.55573587744,0.0,0.0,0.0,0.0,0.0,0.0,0.0,0.0,0.0
26004000000,6,26004000000,imu_link,-0.000977301664747,-0.367048178087,-0.000452794868531,0.930201308761,0.0,0.0,0.0,0.0,0.0,0.0,0.0,0.0,0.0,0.000208932438773,-0.0131108293483,0.000311108094395,0.0,0.0,0.0,0.0,0.0,0.0,0.0,0.0,0.0,5.99106451878,-0.00948192699474,7.55981937386,0.0,0.0,0.0,0.0,0.0,0.0,0.0,0.0,0.0
26008000000,7,26008000000,imu_link,-0.000977439443695,-0.367073754304,-0.000451947840427,0.930191216502,0.0,0.0,0.0,0.0,0.0,0.0,0.0,0.0,0.0,9.22277810615e-05,-0.0137481332433,0.000404456380222,0.0,0.0,0.0,0.0,0.0,0.0,0.0,0.0,0.0,5.99329284846,-0.00971807267352,7.55888548134,0.0,0.0,0.0,0.0,0.0,0.0,0.0,0.0,0.0
26012000000,8,26012000000,imu_link,-0.000977403351319,-0.367100363141,-0.000450969226127,0.930180716147,0.0,0.0,0.0,0.0,0.0,0.0,0.0,0.0,0.0,0.00019727939064,-0.0143033260168,0.000433147860977,0.0,0.0,0.0,0.0,0.0,0.0,0.0,0.0,0.0,5.99575203937,-0.00986938188276,7.55413363208,0.0,0.0,0.0,0.0,0.0,0.0,0.0,0.0,0.0
26016000000,9,26016000000,imu_link,-0.000976782512374,-0.367127427221,-0.000449817736107,0.93017003593,0.0,0.0,0.0,0.0,0.0,0.0,0.0,0.0,0.0,0.000500985503546,-0.0145480209941,0.000405957319389,0.0,0.0,0.0,0.0,0.0,0.0,0.0,0.0,0.0,5.99859640158,-0.00999428203489,7.54725387342,0.0,0.0,0.0,0.0,0.0,0.0,0.0,0.0,0.0
26020000000,10,26020000000,imu_link,-0.000975209633845,-0.367154384759,-0.000448449351018,0.930159397959,0.0,0.0,0.0,0.0,0.0,0.0,0.0,0.0,0.0,0.000983575585516,-0.0144906071977,0.000332133579965,0.0,0.0,0.0,0.0,0.0,0.0,0.0,0.0,0.0,6.00196073191,-0.0100817848537,7.54200637329,0.0,0.0,0.0,0.0,0.0,0.0,0.0,0.0,0.0
26024000000,11,26024000000,imu_link,-0.00097246742805,-0.367181012169,-0.000446842738625,0.930148890738,0.0,0.0,0.0,0.0,0.0,0.0,0.0,0.0,0.0,0.00157112878933,-0.0143129223849,0.000228456735778,0.0,0.0,0.0,0.0,0.0,0.0,0.0,0.0,0.0,6.00423353261,-0.0100464784034,7.53734452426,0.0,0.0,0.0,0.0,0.0,0.0,0.0,0.0,0.0
26028000000,12,26028000000,imu_link,-0.000968597003099,-0.367207223785,-0.00044502731128,0.930138548051,0.0,0.0,0.0,0.0,0.0,0.0,0.0,0.0,0.0,0.00213415823546,-0.014089189905,0.000118679841479,0.0,0.0,0.0,0.0,0.0,0.0,0.0,0.0,0.0,6.00501241363,-0.00989459776679,7.53049465827,0.0,0.0,0.0,0.0,0.0,0.0,0.0,0.0,0.0
26032000000,13,26032000000,imu_link,-0.000963999381169,-0.367232793364,-0.000443113067274,0.930128458781,0.0,0.0,0.0,0.0,0.0,0.0,0.0,0.0,0.0,0.00249047816984,-0.0137439559678,3.14877687969e-05,0.0,0.0,0.0,0.0,0.0,0.0,0.0,0.0,0.0,6.00710142653,-0.0096973022384,7.52577581766,0.0,0.0,0.0,0.0,0.0,0.0,0.0,0.0,0.0
26036000000,14,26036000000,imu_link,-0.000959133204246,-0.367257506242,-0.000441176275996,0.930118707228,0.0,0.0,0.0,0.0,0.0,0.0,0.0,0.0,0.0,0.0026194865116,-0.0132834759362,-6.84964923738e-06,0.0,0.0,0.0,0.0,0.0,0.0,0.0,0.0,0.0,6.00949009573,-0.00956167386258,7.52182680953,0.0,0.0,0.0,0.0,0.0,0.0,0.0,0.0,0.0
26040000000,15,26040000000,imu_link,-0.000954241331812,-0.367281258095,-0.000439242414293,0.930109334402,0.0,0.0,0.0,0.0,0.0,0.0,0.0,0.0,0.0,0.00263086812894,-0.0127669898303,-1.23860911269e-05,0.0,0.0,0.0,0.0,0.0,0.0,0.0,0.0,0.0,6.01196531988,-0.00957582410152,7.51861204605,0.0,0.0,0.0,0.0,0.0,0.0,0.0,0.0,0.0
26044000000,16,26044000000,imu_link,-0.000949513621442,-0.367304316619,-0.000437331586248,0.930100234468,0.0,0.0,0.0,0.0,0.0,0.0,0.0,0.0,0.0,0.00255027181203,-0.0123944655514,7.43955706519e-06,0.0,0.0,0.0,0.0,0.0,0.0,0.0,0.0,0.0,6.01527621565,-0.00960244425262,7.51959630014,0.0,0.0,0.0,0.0,0.0,0.0,0.0,0.0,0.0
26048000000,17,26048000000,imu_link,-0.000944933794126,-0.367327128468,-0.000435425684118,0.930091231115,0.0,0.0,0.0,0.0,0.0,0.0,0.0,0.0,0.0,0.00248058603809,-0.012262041559,3.24460321276e-05,0.0,0.0,0.0,0.0,0.0,0.0,0.0,0.0,0.0,6.01729573179,-0.00969494406969,7.51887432941,0.0,0.0,0.0,0.0,0.0,0.0,0.0,0.0,0.0
26052000000,18,26052000000,imu_link,-0.000940453043315,-0.367350176905,-0.000433540497737,0.930082133534,0.0,0.0,0.0,0.0,0.0,0.0,0.0,0.0,0.0,0.00243071320496,-0.0123893838917,4.08767127503e-05,0.0,0.0,0.0,0.0,0.0,0.0,0.0,0.0,0.0,6.01973806717,-0.00977549059845,7.51925645678,0.0,0.0,0.0,0.0,0.0,0.0,0.0,0.0,0.0
26056000000,19,26056000000,imu_link,-0.000936108419517,-0.367373697272,-0.000431718472238,0.930072848691,0.0,0.0,0.0,0.0,0.0,0.0,0.0,0.0,0.0,0.0023558217178,-0.0126432459258,3.62449430952e-05,0.0,0.0,0.0,0.0,0.0,0.0,0.0,0.0,0.0,6.02187721491,-0.00981931804537,7.51697079556,0.0,0.0,0.0,0.0,0.0,0.0,0.0,0.0,0.0
26060000000,20,26060000000,imu_link,-0.000931841524943,-0.367397714482,-0.000429962308114,0.930063366764,0.0,0.0,0.0,0.0,0.0,0.0,0.0,0.0,0.0,0.00230759193079,-0.0129104835127,1.96197495088e-05,0.0,0.0,0.0,0.0,0.0,0.0,0.0,0.0,0.0,6.02389457599,-0.00990563414624,7.51280968127,0.0,0.0,0.0,0.0,0.0,0.0,0.0,0.0,0.0
26064000000,21,26064000000,imu_link,-0.00092759570751,-0.367422012564,-0.000428273040538,0.930053773086,0.0,0.0,0.0,0.0,0.0,0.0,0.0,0.0,0.0,0.00228550988817,-0.0130616003233,-7.77230694101e-06,0.0,0.0,0.0,0.0,0.0,0.0,0.0,0.0,0.0,6.02621636287,-0.0100348028519,7.5077807947,0.0,0.0,0.0,0.0,0.0,0.0,0.0,0.0,0.0
26068000000,22,26068000000,imu_link,-0.000923293541205,-0.36744608635,-0.000426662803627,0.930044267287,0.0,0.0,0.0,0.0,0.0,0.0,0.0,0.0,0.0,0.00229718755371,-0.0129411028286,-5.47527526683e-05,0.0,0.0,0.0,0.0,0.0,0.0,0.0,0.0,0.0,6.02843581194,-0.0101696204821,7.50062216158,0.0,0.0,0.0,0.0,0.0,0.0,0.0,0.0,0.0
26072000000,23,26072000000,imu_link,-0.000918795643205,-0.367469523861,-0.000425108051871,0.930035012314,0.0,0.0,0.0,0.0,0.0,0.0,0.0,0.0,0.0,0.00237799327888,-0.0125990716526,-0.000116167757482,0.0,0.0,0.0,0.0,0.0,0.0,0.0,0.0,0.0,6.03053033639,-0.0102651125525,7.49424165422,0.0,0.0,0.0,0.0,0.0,0.0,0.0,0.0,0.0
26076000000,24,26076000000,imu_link,-0.000913639497207,-0.367492260529,-0.000423526511125,0.930026034227,0.0,0.0,0.0,0.0,0.0,0.0,0.0,0.0,0.0,0.00268899042278,-0.0122221660516,-0.000224272628066,0.0,0.0,0.0,0.0,0.0,0.0,0.0,0.0,0.0,6.03254190556,-0.0103824874233,7.49067361003,0.0,0.0,0.0,0.0,0.0,0.0,0.0,0.0,0.0
26080000000,25,26080000000,imu_link,-0.000907369460491,-0.367514585174,-0.000421812454295,0.930017219432,0.0,0.0,0.0,0.0,0.0,0.0,0.0,0.0,0.0,0.0032313007685,-0.0120003902059,-0.000367101234177,0.0,0.0,0.0,0.0,0.0,0.0,0.0,0.0,0.0,6.03548798893,-0.0104167022119,7.49194695096,0.0,0.0,0.0,0.0,0.0,0.0,0.0,0.0,0.0
26084000000,26,26084000000,imu_link,-0.000899886784197,-0.367536692639,-0.00041993430244,0.930008491049,0.0,0.0,0.0,0.0,0.0,0.0,0.0,0.0,0.0,0.00382533566934,-0.0118833396366,-0.00051351024384,0.0,0.0,0.0,0.0,0.0,0.0,0.0,0.0,0.0,6.03749568427,-0.0103395128535,7.48998494396,0.0,0.0,0.0,0.0,0.0,0.0,0.0,0.0,0.0
26088000000,27,26088000000,imu_link,-0.000891474703725,-0.367558776245,-0.000417946910479,0.929999772365,0.0,0.0,0.0,0.0,0.0,0.0,0.0,0.0,0.0,0.00427758678624,-0.0118703166679,-0.000633495428024,0.0,0.0,0.0,0.0,0.0,0.0,0.0,0.0,0.0,6.03954896036,-0.0101850653465,7.48808685524,0.0,0.0,0.0,0.0,0.0,0.0,0.0,0.0,0.0
26092000000,28,26092000000,imu_link,-0.000882687745725,-0.367581075783,-0.000415932413821,0.929990968015,0.0,0.0,0.0,0.0,0.0,0.0,0.0,0.0,0.0,0.00445689301834,-0.0119864023189,-0.000689900660345,0.0,0.0,0.0,0.0,0.0,0.0,0.0,0.0,0.0,6.04242752427,-0.0100217814348,7.48829847161,0.0,0.0,0.0,0.0,0.0,0.0,0.0,0.0,0.0
26096000000,29,26096000000,imu_link,-0.000873973782382,-0.367603678268,-0.000413912922351,0.929982043144,0.0,0.0,0.0,0.0,0.0,0.0,0.0,0.0,0.0,0.00442387864352,-0.0121494391951,-0.000674321136406,0.0,0.0,0.0,0.0,0.0,0.0,0.0,0.0,0.0,6.04471529171,-0.00996201427381,7.48619053298,0.0,0.0,0.0,0.0,0.0,0.0,0.0,0.0,0.0
26100000000,30,26100000000,imu_link,-0.000865458149536,-0.367626619464,-0.000411886344947,0.929972983475,0.0,0.0,0.0,0.0,0.0,0.0,0.0,0.0,0.0,0.00433297034429,-0.0123317573933,-0.000634748640618,0.0,0.0,0.0,0.0,0.0,0.0,0.0,0.0,0.0,6.04703387778,-0.0100113080044,7.48355625862,0.0,0.0,0.0,0.0,0.0,0.0,0.0,0.0,0.0
26104000000,31,26104000000,imu_link,-0.000857090554348,-0.367649938031,-0.000409864307439,0.929963773742,0.0,0.0,0.0,0.0,0.0,0.0,0.0,0.0,0.0,0.00426331311935,-0.0125348416698,-0.000609842542396,0.0,0.0,0.0,0.0,0.0,0.0,0.0,0.0,0.0,6.04900982979,-0.0100901498447,7.47978160563,0.0,0.0,0.0,0.0,0.0,0.0,0.0,0.0,0.0
26108000000,32,26108000000,imu_link,-0.000848698206359,-0.367673554732,-0.000407875008877,0.92995444539,0.0,0.0,0.0,0.0,0.0,0.0,0.0,0.0,0.0,0.00426881475126,-0.0126952551103,-0.000629767815891,0.0,0.0,0.0,0.0,0.0,0.0,0.0,0.0,0.0,6.05115246208,-0.0102548390685,7.47582895292,0.0,0.0,0.0,0.0,0.0,0.0,0.0,0.0,0.0
26112000000,33,26112000000,imu_link,-0.000840300811462,-0.367697404625,-0.000405944752802,0.929945024039,0.0,0.0,0.0,0.0,0.0,0.0,0.0,0.0,0.0,0.00426031536087,-0.0128207543052,-0.000658266954588,0.0,0.0,0.0,0.0,0.0,0.0,0.0,0.0,0.0,6.05311833162,-0.0104077766459,7.47160544475,0.0,0.0,0.0,0.0,0.0,0.0,0.0,0.0,0.0
26116000000,34,26116000000,imu_link,-0.000831721884074,-0.367721428439,-0.000404045584345,0.929935533278,0.0,0.0,0.0,0.0,0.0,0.0,0.0,0.0,0.0,0.00433901369947,-0.0129143338321,-0.000706183517349,0.0,0.0,0.0,0.0,0.0,0.0,0.0,0.0,0.0,6.05484289308,-0.01054160482,7.46698225097,0.0,0.0,0.0,0.0,0.0,0.0,0.0,0.0,0.0
26120000000,35,26120000000,imu_link,-0.000822684609604,-0.367745590583,-0.000402144169788,0.929925987419,0.0,0.0,0.0,0.0,0.0,0.0,0.0,0.0,0.0,0.0045525483206,-0.0129886913813,-0.000789479831512,0.0,0.0,0.0,0.0,0.0,0.0,0.0,0.0,0.0,6.05703068402,-0.010629085489,7.46392394893,0.0,0.0,0.0,0.0,0.0,0.0,0.0,0.0,0.0
26124000000,36,26124000000,imu_link,-0.000813084227799,-0.367770002313,-0.000400193752089,0.929916342548,0.0,0.0,0.0,0.0,0.0,0.0,0.0,0.0,0.0,0.00482339219518,-0.0131228524439,-0.000870357878246,0.0,0.0,0.0,0.0,0.0,0.0,0.0,0.0,0.0,6.05940845925,-0.0106318796316,7.46245394246,0.0,0.0,0.0,0.0,0.0,0.0,0.0,0.0,0.0
26128000000,37,26128000000,imu_link,-0.000803198168722,-0.367794743634,-0.000398215767003,0.929906566732,0.0,0.0,0.0,0.0,0.0,0.0,0.0,0.0,0.0,0.00496130212164,-0.0133001313413,-0.000910232155781,0.0,0.0,0.0,0.0,0.0,0.0,0.0,0.0,0.0,6.06110224367,-0.0105576527019,7.45929843723,0.0,0.0,0.0,0.0,0.0,0.0,0.0,0.0,0.0
26132000000,38,26132000000,imu_link,-0.000793294531909,-0.367819955419,-0.000396251426463,0.929896603964,0.0,0.0,0.0,0.0,0.0,0.0,0.0,0.0,0.0,0.00496698434469,-0.013553246019,-0.000920034893721,0.0,0.0,0.0,0.0,0.0,0.0,0.0,0.0,0.0,6.06388153468,-0.0105627211968,7.45873745747,0.0,0.0,0.0,0.0,0.0,0.0,0.0,0.0,0.0
26136000000,39,26136000000,imu_link,-0.00078346326532,-0.367845532577,-0.000394302258826,0.929886495694,0.0,0.0,0.0,0.0,0.0,0.0,0.0,0.0,0.0,0.00493056016086,-0.0137498934255,-0.000913953654728,0.0,0.0,0.0,0.0,0.0,0.0,0.0,0.0,0.0,6.06719274323,-0.0106385555358,7.45747676305,0.0,0.0,0.0,0.0,0.0,0.0,0.0,0.0,0.0
26140000000,40,26140000000,imu_link,-0.000773431979333,-0.367871257762,-0.000392325300428,0.929876328119,0.0,0.0,0.0,0.0,0.0,0.0,0.0,0.0,0.0,0.00502867513485,-0.0138295963369,-0.000937890327617,0.0,0.0,0.0,0.0,0.0,0.0,0.0,0.0,0.0,6.06938630917,-0.0107819188816,7.45299241105,0.0,0.0,0.0,0.0,0.0,0.0,0.0,0.0,0.0
26144000000,41,26144000000,imu_link,-0.000762549835509,-0.367896972254,-0.000390233849233,0.929866164586,0.0,0.0,0.0,0.0,0.0,0.0,0.0,0.0,0.0,0.00544533018609,-0.0138237584607,-0.00104115640018,0.0,0.0,0.0,0.0,0.0,0.0,0.0,0.0,0.0,6.07398367352,-0.0109270025136,7.45453824366,0.0,0.0,0.0,0.0,0.0,0.0,0.0,0.0,0.0
26148000000,42,26148000000,imu_link,-0.000750369571429,-0.367922611818,-0.000387995398096,0.929856030856,0.0,0.0,0.0,0.0,0.0,0.0,0.0,0.0,0.0,0.00607590639788,-0.0137832426038,-0.00121156413653,0.0,0.0,0.0,0.0,0.0,0.0,0.0,0.0,0.0,6.07544615549,-0.0109146302109,7.44982641391,0.0,0.0,0.0,0.0,0.0,0.0,0.0,0.0,0.0
26152000000,43,26152000000,imu_link,-0.000736821903648,-0.367948171146,-0.000385622803285,0.929845929033,0.0,0.0,0.0,0.0,0.0,0.0,0.0,0.0,0.0,0.0067363243387,-0.013739854432,-0.00140071006276,0.0,0.0,0.0,0.0,0.0,0.0,0.0,0.0,0.0,6.07708328208,-0.0107996435566,7.44587546354,0.0,0.0,0.0,0.0,0.0,0.0,0.0,0.0,0.0
26156000000,44,26156000000,imu_link,-0.000722040040367,-0.367973606173,-0.00038312804527,0.929835876395,0.0,0.0,0.0,0.0,0.0,0.0,0.0,0.0,0.0,0.00733259918718,-0.0136728218913,-0.0015709182945,0.0,0.0,0.0,0.0,0.0,0.0,0.0,0.0,0.0,6.07847798571,-0.0107055913251,7.44126238491,0.0,0.0,0.0,0.0,0.0,0.0,0.0,0.0,0.0
26160000000,45,26160000000,imu_link,-0.000706226916046,-0.367998771914,-0.000380519709419,0.929825930117,0.0,0.0,0.0,0.0,0.0,0.0,0.0,0.0,0.0,0.00783293457974,-0.0135279004604,-0.00170773475055,0.0,0.0,0.0,0.0,0.0,0.0,0.0,0.0,0.0,6.08080781148,-0.0106677937693,7.43812033638,0.0,0.0,0.0,0.0,0.0,0.0,0.0,0.0,0.0
26164000000,46,26164000000,imu_link,-0.000689567554767,-0.368023572095,-0.000377808175611,0.929816128135,0.0,0.0,0.0,0.0,0.0,0.0,0.0,0.0,0.0,0.00824533087483,-0.0133312726276,-0.0018153072255,0.0,0.0,0.0,0.0,0.0,0.0,0.0,0.0,0.0,6.08269204011,-0.0106272019037,7.43461077435,0.0,0.0,0.0,0.0,0.0,0.0,0.0,0.0,0.0
26168000000,47,26168000000,imu_link,-0.000671998675646,-0.368048181063,-0.000374954117221,0.929806401486,0.0,0.0,0.0,0.0,0.0,0.0,0.0,0.0,0.0,0.00869438910975,-0.0132283906659,-0.00191632824296,0.0,0.0,0.0,0.0,0.0,0.0,0.0,0.0,0.0,6.08453380242,-0.0106163989896,7.43284147542,0.0,0.0,0.0,0.0,0.0,0.0,0.0,0.0,0.0
26172000000,48,26172000000,imu_link,-0.000653459879055,-0.36807300503,-0.000371869401518,0.929796589406,0.0,0.0,0.0,0.0,0.0,0.0,0.0,0.0,0.0,0.0091877649523,-0.0133439616366,-0.00198767135585,0.0,0.0,0.0,0.0,0.0,0.0,0.0,0.0,0.0,6.08735944528,-0.0105835362868,7.43498261889,0.0,0.0,0.0,0.0,0.0,0.0,0.0,0.0,0.0
26176000000,49,26176000000,imu_link,-0.000634486254317,-0.368098403882,-0.000368584053645,0.929786548963,0.0,0.0,0.0,0.0,0.0,0.0,0.0,0.0,0.0,0.00942687173687,-0.0136532366257,-0.00197465234617,0.0,0.0,0.0,0.0,0.0,0.0,0.0,0.0,0.0,6.09170464155,-0.0104601787379,7.43980256449,0.0,0.0,0.0,0.0,0.0,0.0,0.0,0.0,0.0
26180000000,50,26180000000,imu_link,-0.000615608689264,-0.368124542941,-0.000365160615547,0.929776214241,0.0,0.0,0.0,0.0,0.0,0.0,0.0,0.0,0.0,0.00940767268729,-0.0140515771163,-0.00189306448018,0.0,0.0,0.0,0.0,0.0,0.0,0.0,0.0,0.0,6.09473909633,-0.0104095939945,7.44013838696,0.0,0.0,0.0,0.0,0.0,0.0,0.0,0.0,0.0
26184000000,51,26184000000,imu_link,-0.000597096190111,-0.36815118822,-0.000361613325641,0.929765677644,0.0,0.0,0.0,0.0,0.0,0.0,0.0,0.0,0.0,0.00926078462564,-0.0143241753454,-0.00176848506358,0.0,0.0,0.0,0.0,0.0,0.0,0.0,0.0,0.0,6.09768397005,-0.0104640498703,7.43731698671,0.0,0.0,0.0,0.0,0.0,0.0,0.0,0.0,0.0
26188000000,52,26188000000,imu_link,-0.000578886564515,-0.36817795894,-0.000357940256867,0.929755089967,0.0,0.0,0.0,0.0,0.0,0.0,0.0,0.0,0.0,0.009143144157,-0.0143919854632,-0.00165430768247,0.0,0.0,0.0,0.0,0.0,0.0,0.0,0.0,0.0,6.09966589938,-0.0106067440955,7.43117510014,0.0,0.0,0.0,0.0,0.0,0.0,0.0,0.0,0.0
26192000000,53,26192000000,imu_link,-0.000560691977625,-0.368204753731,-0.000354100061982,0.92974449155,0.0,0.0,0.0,0.0,0.0,0.0,0.0,0.0,0.0,0.00916692027459,-0.0144052035737,-0.00157385493507,0.0,0.0,0.0,0.0,0.0,0.0,0.0,0.0,0.0,6.10168652033,-0.0107719521616,7.42761800887,0.0,0.0,0.0,0.0,0.0,0.0,0.0,0.0,0.0
26196000000,54,26196000000,imu_link,-0.000542191449382,-0.368231759847,-0.000350046363901,0.929733808429,0.0,0.0,0.0,0.0,0.0,0.0,0.0,0.0,0.0,0.00934846403335,-0.0145190425831,-0.0015310019966,0.0,0.0,0.0,0.0,0.0,0.0,0.0,0.0,0.0,6.10362642352,-0.010935066639,7.42588337899,0.0,0.0,0.0,0.0,0.0,0.0,0.0,0.0,0.0
26200000000,55,26200000000,imu_link,-0.000523199320473,-0.368259155751,-0.000345779430432,0.929722969978,0.0,0.0,0.0,0.0,0.0,0.0,0.0,0.0,0.0,0.00961627904712,-0.0147288129321,-0.00152252026697,0.0,0.0,0.0,0.0,0.0,0.0,0.0,0.0,0.0,6.10633130403,-0.0111229995971,7.42602536289,0.0,0.0,0.0,0.0,0.0,0.0,0.0,0.0,0.0
26204000000,56,26204000000,imu_link,-0.00050369497854,-0.368286941966,-0.000341328448197,0.929711975917,0.0,0.0,0.0,0.0,0.0,0.0,0.0,0.0,0.0,0.00988830274918,-0.0149388653533,-0.00153140566074,0.0,0.0,0.0,0.0,0.0,0.0,0.0,0.0,0.0,6.10905905243,-0.0113478639891,7.42509034155,0.0,0.0,0.0,0.0,0.0,0.0,0.0,0.0,0.0
26208000000,57,26208000000,imu_link,-0.000483932844369,-0.368314860445,-0.000336738271244,0.929700928251,0.0,0.0,0.0,0.0,0.0,0.0,0.0,0.0,0.0,0.0100337798861,-0.0150102110146,-0.00151421337894,0.0,0.0,0.0,0.0,0.0,0.0,0.0,0.0,0.0,6.11057866181,-0.0114714839749,7.41962852336,0.0,0.0,0.0,0.0,0.0,0.0,0.0,0.0,0.0
26212000000,58,26212000000,imu_link,-0.00046464064951,-0.368342649,-0.000332106533509,0.92968993043,0.0,0.0,0.0,0.0,0.0,0.0,0.0,0.0,0.0,0.00982297229053,-0.0149407254622,-0.0014083111847,0.0,0.0,0.0,0.0,0.0,0.0,0.0,0.0,0.0,6.1134782797,-0.0114867922744,7.41759452144,0.0,0.0,0.0,0.0,0.0,0.0,0.0,0.0,0.0
26216000000,59,26216000000,imu_link,-0.000446587054088,-0.368370360102,-0.000327525737,0.929678961301,0.0,0.0,0.0,0.0,0.0,0.0,0.0,0.0,0.0,0.00923782746967,-0.0148996318637,-0.00120385369987,0.0,0.0,0.0,0.0,0.0,0.0,0.0,0.0,0.0,6.11620517926,-0.011553234237,7.4178480856,0.0,0.0,0.0,0.0,0.0,0.0,0.0,0.0,0.0
26220000000,60,26220000000,imu_link,-0.000430177332323,-0.368398218108,-0.000323055554696,0.929667931832,0.0,0.0,0.0,0.0,0.0,0.0,0.0,0.0,0.0,0.00845332717859,-0.0149792764734,-0.000952537067456,0.0,0.0,0.0,0.0,0.0,0.0,0.0,0.0,0.0,6.11904774314,-0.0117658178891,7.41931680647,0.0,0.0,0.0,0.0,0.0,0.0,0.0,0.0,0.0
26224000000,61,26224000000,imu_link,-0.000415420482948,-0.368426273652,-0.000318688221546,0.92965682203,0.0,0.0,0.0,0.0,0.0,0.0,0.0,0.0,0.0,0.00766608585597,-0.0150861412699,-0.000695942690496,0.0,0.0,0.0,0.0,0.0,0.0,0.0,0.0,0.0,6.12070770926,-0.0121265056585,7.41650983679,0.0,0.0,0.0,0.0,0.0,0.0,0.0,0.0,0.0
26228000000,62,26228000000,imu_link,-0.000401956228648,-0.368454447554,-0.000314353912781,0.929645663514,0.0,0.0,0.0,0.0,0.0,0.0,0.0,0.0,0.0,0.00705917615663,-0.0151503298659,-0.000473212715551,0.0,0.0,0.0,0.0,0.0,0.0,0.0,0.0,0.0,6.12270624692,-0.0125001499248,7.41303608532,0.0,0.0,0.0,0.0,0.0,0.0,0.0,0.0,0.0
26232000000,63,26232000000,imu_link,-0.000389134932158,-0.368482798671,-0.000309909887509,0.92963443332,0.0,0.0,0.0,0.0,0.0,0.0,0.0,0.0,0.0,0.00678054090214,-0.0152460321661,-0.000303810528186,0.0,0.0,0.0,0.0,0.0,0.0,0.0,0.0,0.0,6.12663315935,-0.0128561492898,7.41502452495,0.0,0.0,0.0,0.0,0.0,0.0,0.0,0.0,0.0
26236000000,64,26236000000,imu_link,-0.000376471194496,-0.368511480164,-0.000305251375961,0.929623070969,0.0,0.0,0.0,0.0,0.0,0.0,0.0,0.0,0.0,0.00674684757841,-0.0154240111024,-0.000175169513988,0.0,0.0,0.0,0.0,0.0,0.0,0.0,0.0,0.0,6.12866314648,-0.0130545551963,7.41356395461,0.0,0.0,0.0,0.0,0.0,0.0,0.0,0.0,0.0
26240000000,65,26240000000,imu_link,-0.000363433845869,-0.368540657743,-0.000300306828882,0.929611510967,0.0,0.0,0.0,0.0,0.0,0.0,0.0,0.0,0.0,0.00697324846369,-0.0156910132481,-0.000111180412524,0.0,0.0,0.0,0.0,0.0,0.0,0.0,0.0,0.0,6.13142683164,-0.0131685890164,7.41367764368,0.0,0.0,0.0,0.0,0.0,0.0,0.0,0.0,0.0
26244000000,66,26244000000,imu_link,-0.000349834552895,-0.368570310788,-0.000295067363916,0.929599761487,0.0,0.0,0.0,0.0,0.0,0.0,0.0,0.0,0.0,0.00728882500792,-0.0159468962701,-7.77654010435e-05,0.0,0.0,0.0,0.0,0.0,0.0,0.0,0.0,0.0,6.13282354959,-0.0131917972454,7.40921012944,0.0,0.0,0.0,0.0,0.0,0.0,0.0,0.0,0.0
26248000000,67,26248000000,imu_link,-0.000335627148409,-0.368600168633,-0.000289565150109,0.929587929779,0.0,0.0,0.0,0.0,0.0,0.0,0.0,0.0,0.0,0.00761991170989,-0.0160571973261,-6.77536506187e-05,0.0,0.0,0.0,0.0,0.0,0.0,0.0,0.0,0.0,6.13463896833,-0.013236538869,7.4040840344,0.0,0.0,0.0,0.0,0.0,0.0,0.0,0.0,0.0
26252000000,68,26252000000,imu_link,-0.0003207672092,-0.36862987878,-0.000283814302153,0.929576155583,0.0,0.0,0.0,0.0,0.0,0.0,0.0,0.0,0.0,0.00796901747278,-0.0159778961418,-7.24190909495e-05,0.0,0.0,0.0,0.0,0.0,0.0,0.0,0.0,0.0,6.13682111907,-0.0133378533793,7.39945022646,0.0,0.0,0.0,0.0,0.0,0.0,0.0,0.0,0.0
26256000000,69,26256000000,imu_link,-0.000305319074587,-0.368659063805,-0.000277842174412,0.929564588535,0.0,0.0,0.0,0.0,0.0,0.0,0.0,0.0,0.0,0.00828314755898,-0.0156955969049,-7.78704681346e-05,0.0,0.0,0.0,0.0,0.0,0.0,0.0,0.0,0.0,6.1388831943,-0.0133839684934,7.39491993678,0.0,0.0,0.0,0.0,0.0,0.0,0.0,0.0,0.0
26260000000,70,26260000000,imu_link,-0.000289537844443,-0.368687398345,-0.000271718168027,0.929553357607,0.0,0.0,0.0,0.0,0.0,0.0,0.0,0.0,0.0,0.00846589334507,-0.0152383266492,-6.8502778175e-05,0.0,0.0,0.0,0.0,0.0,0.0,0.0,0.0,0.0,6.14072620906,-0.0134024157251,7.39044179721,0.0,0.0,0.0,0.0,0.0,0.0,0.0,0.0,0.0
26264000000,71,26264000000,imu_link,-0.000274121328723,-0.368714745782,-0.00026557970655,0.929542516816,0.0,0.0,0.0,0.0,0.0,0.0,0.0,0.0,0.0,0.0082989696637,-0.0147076768241,5.64432314784e-06,0.0,0.0,0.0,0.0,0.0,0.0,0.0,0.0,0.0,6.14556703415,-0.013360319265,7.3943894805,0.0,0.0,0.0,0.0,0.0,0.0,0.0,0.0,0.0
26268000000,72,26268000000,imu_link,-0.000259906858506,-0.368741179745,-0.000259571431616,0.929532036797,0.0,0.0,0.0,0.0,0.0,0.0,0.0,0.0,0.0,0.00771622076047,-0.0142167509342,0.000166916419103,0.0,0.0,0.0,0.0,0.0,0.0,0.0,0.0,0.0,6.14821221441,-0.0134020775885,7.39487509363,0.0,0.0,0.0,0.0,0.0,0.0,0.0,0.0,0.0
26272000000,73,26272000000,imu_link,-0.000247702413814,-0.368766830248,-0.000253801674219,0.929521865874,0.0,0.0,0.0,0.0,0.0,0.0,0.0,0.0,0.0,0.00673799206668,-0.0137958672261,0.000426793094412,0.0,0.0,0.0,0.0,0.0,0.0,0.0,0.0,0.0,6.15063458923,-0.013542352649,7.39516522765,0.0,0.0,0.0,0.0,0.0,0.0,0.0,0.0,0.0
26276000000,74,26276000000,imu_link,-0.00023764335309,-0.36879184952,-0.00024827328665,0.929511943771,0.0,0.0,0.0,0.0,0.0,0.0,0.0,0.0,0.0,0.00569634753141,-0.0134568594414,0.000710296805324,0.0,0.0,0.0,0.0,0.0,0.0,0.0,0.0,0.0,6.15162988034,-0.0138769501516,7.39227656184,0.0,0.0,0.0,0.0,0.0,0.0,0.0,0.0,0.0
26280000000,75,26280000000,imu_link,-0.000229306717607,-0.368816366608,-0.0002429157817,0.929502219541,0.0,0.0,0.0,0.0,0.0,0.0,0.0,0.0,0.0,0.00486429122751,-0.0131871734539,0.000948570516138,0.0,0.0,0.0,0.0,0.0,0.0,0.0,0.0,0.0,6.15400722455,-0.0142889760589,7.3921451836,0.0,0.0,0.0,0.0,0.0,0.0,0.0,0.0,0.0
26284000000,76,26284000000,imu_link,-0.000222097604929,-0.368840452955,-0.000237638443372,0.929492665095,0.0,0.0,0.0,0.0,0.0,0.0,0.0,0.0,0.0,0.00432545752033,-0.0129558039764,0.00111930742937,0.0,0.0,0.0,0.0,0.0,0.0,0.0,0.0,0.0,6.15575751451,-0.0146493687242,7.39016164072,0.0,0.0,0.0,0.0,0.0,0.0,0.0,0.0,0.0
26288000000,77,26288000000,imu_link,-0.000215629339469,-0.368864140167,-0.000232421720371,0.929483268049,0.0,0.0,0.0,0.0,0.0,0.0,0.0,0.0,0.0,0.00396994285477,-0.0127413610354,0.00122782691588,0.0,0.0,0.0,0.0,0.0,0.0,0.0,0.0,0.0,6.15670579043,-0.0148811053032,7.3859343461,0.0,0.0,0.0,0.0,0.0,0.0,0.0,0.0,0.0
26292000000,78,26292000000,imu_link,-0.0002098885876,-0.368887296779,-0.000227340989962,0.929474080616,0.0,0.0,0.0,0.0,0.0,0.0,0.0,0.0,0.0,0.00360671654213,-0.0124561795578,0.00129888389945,0.0,0.0,0.0,0.0,0.0,0.0,0.0,0.0,0.0,6.15895576418,-0.0150820367336,7.38339902645,0.0,0.0,0.0,0.0,0.0,0.0,0.0,0.0,0.0
26296000000,79,26296000000,imu_link,-0.000205155031132,-0.368909691455,-0.000222481088893,0.929465194595,0.0,0.0,0.0,0.0,0.0,0.0,0.0,0.0,0.0,0.0030978499844,-0.0120465774934,0.00138214134289,0.0,0.0,0.0,0.0,0.0,0.0,0.0,0.0,0.0,6.1607117918,-0.0152648148877,7.37900702499,0.0,0.0,0.0,0.0,0.0,0.0,0.0,0.0,0.0
26300000000,80,26300000000,imu_link,-0.000201669069896,-0.36893114476,-0.000217865458617,0.929456681234,0.0,0.0,0.0,0.0,0.0,0.0,0.0,0.0,0.0,0.00247292838847,-0.0115404662832,0.00149888374728,0.0,0.0,0.0,0.0,0.0,0.0,0.0,0.0,0.0,6.16201249275,-0.0154206571532,7.3743605052,0.0,0.0,0.0,0.0,0.0,0.0,0.0,0.0,0.0
26304000000,81,26304000000,imu_link,-0.000199533742354,-0.368951815641,-0.000213436007313,0.929448477521,0.0,0.0,0.0,0.0,0.0,0.0,0.0,0.0,0.0,0.00181085301379,-0.0111198611864,0.00166161914582,0.0,0.0,0.0,0.0,0.0,0.0,0.0,0.0,0.0,6.16526194445,-0.0155921821359,7.37678516066,0.0,0.0,0.0,0.0,0.0,0.0,0.0,0.0,0.0
26308000000,82,26308000000,imu_link,-0.000198655371539,-0.368972190616,-0.000209132452825,0.929440390424,0.0,0.0,0.0,0.0,0.0,0.0,0.0,0.0,0.0,0.00120346988214,-0.0109609547184,0.00183503204418,0.0,0.0,0.0,0.0,0.0,0.0,0.0,0.0,0.0,6.16688751134,-0.0157812970451,7.37800665901,0.0,0.0,0.0,0.0,0.0,0.0,0.0,0.0,0.0
26312000000,83,26312000000,imu_link,-0.000198669753996,-0.368992858735,-0.000204898438671,0.929432186203,0.0,0.0,0.0,0.0,0.0,0.0,0.0,0.0,0.0,0.000775779201695,-0.0111188792842,0.00196737444712,0.0,0.0,0.0,0.0,0.0,0.0,0.0,0.0,0.0,6.1699601153,-0.0160041284985,7.38303411881,0.0,0.0,0.0,0.0,0.0,0.0,0.0,0.0,0.0
26316000000,84,26316000000,imu_link,-0.00019912895172,-0.369014267927,-0.000200692962788,0.929423687097,0.0,0.0,0.0,0.0,0.0,0.0,0.0,0.0,0.0,0.000563847809417,-0.0115177153991,0.0020360752569,0.0,0.0,0.0,0.0,0.0,0.0,0.0,0.0,0.0,6.17270418448,-0.0161995974529,7.38599069133,0.0,0.0,0.0,0.0,0.0,0.0,0.0,0.0,0.0
26320000000,85,26320000000,imu_link,-0.000199975762078,-0.369036624633,-0.000196526660685,0.929414811086,0.0,0.0,0.0,0.0,0.0,0.0,0.0,0.0,0.0,0.000376549339076,-0.0120276134708,0.00208925587326,0.0,0.0,0.0,0.0,0.0,0.0,0.0,0.0,0.0,6.17436471597,-0.0162559396488,7.38446260634,0.0,0.0,0.0,0.0,0.0,0.0,0.0,0.0,0.0
26324000000,86,26324000000,imu_link,-0.000201402843235,-0.369060031961,-0.000192480150818,0.92940551709,0.0,0.0,0.0,0.0,0.0,0.0,0.0,0.0,0.0,8.48507847098e-05,-0.0125930160093,0.00214051200115,0.0,0.0,0.0,0.0,0.0,0.0,0.0,0.0,0.0,6.17589353608,-0.016253626171,7.3818302261,0.0,0.0,0.0,0.0,0.0,0.0,0.0,0.0,0.0
26328000000,87,26328000000,imu_link,-0.000203532367374,-0.36908428557,-0.00018860207478,0.929395886127,0.0,0.0,0.0,0.0,0.0,0.0,0.0,0.0,0.0,-0.000272609991637,-0.0130485158306,0.00219174449935,0.0,0.0,0.0,0.0,0.0,0.0,0.0,0.0,0.0,6.1773521292,-0.01627230949,7.37668699856,0.0,0.0,0.0,0.0,0.0,0.0,0.0,0.0,0.0
26332000000,88,26332000000,imu_link,-0.00020618019893,-0.369109099142,-0.000184876597623,0.929386031873,0.0,0.0,0.0,0.0,0.0,0.0,0.0,0.0,0.0,-0.000541597224249,-0.0133499700625,0.00221640363261,0.0,0.0,0.0,0.0,0.0,0.0,0.0,0.0,0.0,6.17915665814,-0.0163491478815,7.37176060812,0.0,0.0,0.0,0.0,0.0,0.0,0.0,0.0,0.0
26336000000,89,26336000000,imu_link,-0.000209074830609,-0.369134081063,-0.000181263007611,0.929376109887,0.0,0.0,0.0,0.0,0.0,0.0,0.0,0.0,0.0,-0.000676924220753,-0.0134407118526,0.00220993492743,0.0,0.0,0.0,0.0,0.0,0.0,0.0,0.0,0.0,6.18167264003,-0.0164361914548,7.36750362132,0.0,0.0,0.0,0.0,0.0,0.0,0.0,0.0,0.0
26340000000,90,26340000000,imu_link,-0.000211945531715,-0.369158888246,-0.000177764644599,0.929366256493,0.0,0.0,0.0,0.0,0.0,0.0,0.0,0.0,0.0,-0.000687079741278,-0.013346839483,0.00215199800526,0.0,0.0,0.0,0.0,0.0,0.0,0.0,0.0,0.0,6.18407927215,-0.0164931492011,7.36400047636,0.0,0.0,0.0,0.0,0.0,0.0,0.0,0.0,0.0
26344000000,91,26344000000,imu_link,-0.000214629927028,-0.369183381889,-0.000174451268479,0.929356526871,0.0,0.0,0.0,0.0,0.0,0.0,0.0,0.0,0.0,-0.000634666112497,-0.013178260425,0.00203169372528,0.0,0.0,0.0,0.0,0.0,0.0,0.0,0.0,0.0,6.18669373088,-0.0165043078347,7.36294604222,0.0,0.0,0.0,0.0,0.0,0.0,0.0,0.0,0.0
26348000000,92,26348000000,imu_link,-0.000217238000828,-0.369207937449,-0.000171420955629,0.92934677185,0.0,0.0,0.0,0.0,0.0,0.0,0.0,0.0,0.0,-0.000651449617235,-0.0132116835633,0.00188606319919,0.0,0.0,0.0,0.0,0.0,0.0,0.0,0.0,0.0,6.18783057449,-0.0163958631365,7.36268071271,0.0,0.0,0.0,0.0,0.0,0.0,0.0,0.0,0.0
26352000000,93,26352000000,imu_link,-0.000219921025271,-0.36923305625,-0.000168764056992,0.929336792194,0.0,0.0,0.0,0.0,0.0,0.0,0.0,0.0,0.0,-0.000755187055467,-0.0135148409883,0.001726303307,0.0,0.0,0.0,0.0,0.0,0.0,0.0,0.0,0.0,6.18976792712,-0.0162931421407,7.36506450716,0.0,0.0,0.0,0.0,0.0,0.0,0.0,0.0,0.0
26356000000,94,26356000000,imu_link,-0.000222638468426,-0.369259069081,-0.00016648863872,0.929326456427,0.0,0.0,0.0,0.0,0.0,0.0,0.0,0.0,0.0,-0.000841571642198,-0.0139959731633,0.00155526734276,0.0,0.0,0.0,0.0,0.0,0.0,0.0,0.0,0.0,6.19201270254,-0.0162398586185,7.36660661561,0.0,0.0,0.0,0.0,0.0,0.0,0.0,0.0,0.0
26360000000,95,26360000000,imu_link,-0.000225194222334,-0.369285707426,-0.000164548225454,0.929315871221,0.0,0.0,0.0,0.0,0.0,0.0,0.0,0.0,0.0,-0.000828268109426,-0.0143326300424,0.00136965982877,0.0,0.0,0.0,0.0,0.0,0.0,0.0,0.0,0.0,6.19407858631,-0.0162164063568,7.36264980133,0.0,0.0,0.0,0.0,0.0,0.0,0.0,0.0,0.0
26364000000,96,26364000000,imu_link,-0.000227509299082,-0.369312232657,-0.000162907657456,0.929305330078,0.0,0.0,0.0,0.0,0.0,0.0,0.0,0.0,0.0,-0.000771804188474,-0.0142718808147,0.00118591138941,0.0,0.0,0.0,0.0,0.0,0.0,0.0,0.0,0.0,6.19725435576,-0.0161274378377,7.35698738154,0.0,0.0,0.0,0.0,0.0,0.0,0.0,0.0,0.0
26368000000,97,26368000000,imu_link,-0.000229641934325,-0.369337870794,-0.000161537942438,0.929295140613,0.0,0.0,0.0,0.0,0.0,0.0,0.0,0.0,0.0,-0.000737079168495,-0.0137947051005,0.00102649944753,0.0,0.0,0.0,0.0,0.0,0.0,0.0,0.0,0.0,6.19985329929,-0.0160128006997,7.35036039448,0.0,0.0,0.0,0.0,0.0,0.0,0.0,0.0,0.0
26372000000,98,26372000000,imu_link,-0.000231549165155,-0.369362310922,-0.000160378598337,0.929285426515,0.0,0.0,0.0,0.0,0.0,0.0,0.0,0.0,0.0,-0.000671236708607,-0.0131502256476,0.000887301869579,0.0,0.0,0.0,0.0,0.0,0.0,0.0,0.0,0.0,6.20067019928,-0.0159066570984,7.34387235706,0.0,0.0,0.0,0.0,0.0,0.0,0.0,0.0,0.0
26376000000,99,26376000000,imu_link,-0.000232944409336,-0.369385886053,-0.000159325513144,0.929276055614,0.0,0.0,0.0,0.0,0.0,0.0,0.0,0.0,0.0,-0.000452999490526,-0.0126848757348,0.000743502822364,0.0,0.0,0.0,0.0,0.0,0.0,0.0,0.0,0.0,6.20253477807,-0.0158406182177,7.3447602887,0.0,0.0,0.0,0.0,0.0,0.0,0.0,0.0,0.0
26380000000,100,26380000000,imu_link,-0.000233389652338,-0.369409427126,-0.000158279664139,0.929266697793,0.0,0.0,0.0,0.0,0.0,0.0,0.0,0.0,0.0,-1.2930479092e-05,-0.0126665583057,0.000564687109267,0.0,0.0,0.0,0.0,0.0,0.0,0.0,0.0,0.0,6.20519320585,-0.0157655363886,7.35108346856,0.0,0.0,0.0,0.0,0.0,0.0,0.0,0.0,0.0
26384000000,101,26384000000,imu_link,-0.000232612256945,-0.369433819619,-0.000157169638434,0.92925700111,0.0,0.0,0.0,0.0,0.0,0.0,0.0,0.0,0.0,0.000567029669922,-0.0131246566656,0.000368552495449,0.0,0.0,0.0,0.0,0.0,0.0,0.0,0.0,0.0,6.20861130123,-0.0156594763942,7.35941741235,0.0,0.0,0.0,0.0,0.0,0.0,0.0,0.0,0.0
26388000000,102,26388000000,imu_link,-0.00023047665341,-0.369459476317,-0.000155939246514,0.929246801406,0.0,0.0,0.0,0.0,0.0,0.0,0.0,0.0,0.0,0.00122036640089,-0.0138048664518,0.000173407494398,0.0,0.0,0.0,0.0,0.0,0.0,0.0,0.0,0.0,6.20959409559,-0.0154733418575,7.35883199526,0.0,0.0,0.0,0.0,0.0,0.0,0.0,0.0,0.0
26392000000,103,26392000000,imu_link,-0.000227128132638,-0.369486258362,-0.000154572644566,0.929236153732,0.0,0.0,0.0,0.0,0.0,0.0,0.0,0.0,0.0,0.00180911429518,-0.014410403137,1.24673661321e-05,0.0,0.0,0.0,0.0,0.0,0.0,0.0,0.0,0.0,6.21035516351,-0.0151726948353,7.35357325517,0.0,0.0,0.0,0.0,0.0,0.0,0.0,0.0,0.0
26396000000,104,26396000000,imu_link,-0.000222830167794,-0.369513699726,-0.000153112473339,0.92922524321,0.0,0.0,0.0,0.0,0.0,0.0,0.0,0.0,0.0,0.00226755056158,-0.0147652314123,-0.000119557114047,0.0,0.0,0.0,0.0,0.0,0.0,0.0,0.0,0.0,6.21181939629,-0.0148903924545,7.34745182902,0.0,0.0,0.0,0.0,0.0,0.0,0.0,0.0,0.0
26400000000,105,26400000000,imu_link,-0.000217947089404,-0.369541292525,-0.000151623288399,0.929214271645,0.0,0.0,0.0,0.0,0.0,0.0,0.0,0.0,0.0,0.002544766975,-0.0148468267503,-0.000214202258109,0.0,0.0,0.0,0.0,0.0,0.0,0.0,0.0,0.0,6.2130376357,-0.0146348401161,7.34076357903,0.0,0.0,0.0,0.0,0.0,0.0,0.0,0.0,0.0
26404000000,106,26404000000,imu_link,-0.000212711775291,-0.369568752256,-0.00015015303684,0.929203352105,0.0,0.0,0.0,0.0,0.0,0.0,0.0,0.0,0.0,0.00270491545329,-0.014775360448,-0.000288063218919,0.0,0.0,0.0,0.0,0.0,0.0,0.0,0.0,0.0,6.21492620113,-0.0144597270605,7.33766868758,0.0,0.0,0.0,0.0,0.0,0.0,0.0,0.0,0.0
26408000000,107,26408000000,imu_link,-0.000207203530648,-0.369595946646,-0.000148726700064,0.92919253719,0.0,0.0,0.0,0.0,0.0,0.0,0.0,0.0,0.0,0.00282359587622,-0.0146327247322,-0.0003588633228,0.0,0.0,0.0,0.0,0.0,0.0,0.0,0.0,0.0,6.21526717001,-0.0143639143457,7.33175576291,0.0,0.0,0.0,0.0,0.0,0.0,0.0,0.0,0.0
26412000000,108,26412000000,imu_link,-0.000201342128898,-0.369622522891,-0.000147358628857,0.92918196728,0.0,0.0,0.0,0.0,0.0,0.0,0.0,0.0,0.0,0.0029768834064,-0.014300228079,-0.000451113746283,0.0,0.0,0.0,0.0,0.0,0.0,0.0,0.0,0.0,6.21648478041,-0.0143019456642,7.32608865736,0.0,0.0,0.0,0.0,0.0,0.0,0.0,0.0,0.0
26416000000,109,26416000000,imu_link,-0.000195022916584,-0.369648062016,-0.000146053459017,0.92917180913,0.0,0.0,0.0,0.0,0.0,0.0,0.0,0.0,0.0,0.00317791822429,-0.0137422535906,-0.000564810955771,0.0,0.0,0.0,0.0,0.0,0.0,0.0,0.0,0.0,6.2180738284,-0.0142305024253,7.32054097533,0.0,0.0,0.0,0.0,0.0,0.0,0.0,0.0,0.0
26420000000,110,26420000000,imu_link,-0.000188306281093,-0.369672224848,-0.000144819098468,0.929162197759,0.0,0.0,0.0,0.0,0.0,0.0,0.0,0.0,0.0,0.00334942098246,-0.0130017532555,-0.000670987174636,0.0,0.0,0.0,0.0,0.0,0.0,0.0,0.0,0.0,6.21949362893,-0.0141063854521,7.31533915492,0.0,0.0,0.0,0.0,0.0,0.0,0.0,0.0,0.0
26424000000,111,26424000000,imu_link,-0.000181551513429,-0.369694978986,-0.00014371282204,0.929153146095,0.0,0.0,0.0,0.0,0.0,0.0,0.0,0.0,0.0,0.00334341259379,-0.0122438317614,-0.000737367677041,0.0,0.0,0.0,0.0,0.0,0.0,0.0,0.0,0.0,6.2212879532,-0.0139357715753,7.31344541676,0.0,0.0,0.0,0.0,0.0,0.0,0.0,0.0,0.0
26428000000,112,26428000000,imu_link,-0.000175175968872,-0.369716478713,-0.000142770325462,0.929144592783,0.0,0.0,0.0,0.0,0.0,0.0,0.0,0.0,0.0,0.00313691522848,-0.0115689551327,-0.000743207840096,0.0,0.0,0.0,0.0,0.0,0.0,0.0,0.0,0.0,6.22236793182,-0.0138372352745,7.31152965933,0.0,0.0,0.0,0.0,0.0,0.0,0.0,0.0,0.0
26432000000,113,26432000000,imu_link,-0.000169418646259,-0.369736821705,-0.000141988175827,0.929136499021,0.0,0.0,0.0,0.0,0.0,0.0,0.0,0.0,0.0,0.0028200226643,-0.0109466469418,-0.000703283045977,0.0,0.0,0.0,0.0,0.0,0.0,0.0,0.0,0.0,6.22467157546,-0.0138309436804,7.31198786743,0.0,0.0,0.0,0.0,0.0,0.0,0.0,0.0,0.0
26436000000,114,26436000000,imu_link,-0.000164302899333,-0.369755968184,-0.000141364035864,0.929128880734,0.0,0.0,0.0,0.0,0.0,0.0,0.0,0.0,0.0,0.00249271130472,-0.0103029163952,-0.000657947133017,0.0,0.0,0.0,0.0,0.0,0.0,0.0,0.0,0.0,6.22520847497,-0.0139216544633,7.30765773239,0.0,0.0,0.0,0.0,0.0,0.0,0.0,0.0,0.0
26440000000,115,26440000000,imu_link,-0.000159679493568,-0.369773816779,-0.000140888432736,0.92912177839,0.0,0.0,0.0,0.0,0.0,0.0,0.0,0.0,0.0,0.00223647656675,-0.00960460176311,-0.000635785932548,0.0,0.0,0.0,0.0,0.0,0.0,0.0,0.0,0.0,6.22668878041,-0.01401975747,7.30499087017,0.0,0.0,0.0,0.0,0.0,0.0,0.0,0.0,0.0
26444000000,116,26444000000,imu_link,-0.000155468986894,-0.369790237397,-0.00014053855327,0.929115243877,0.0,0.0,0.0,0.0,0.0,0.0,0.0,0.0,0.0,0.00202135988111,-0.00883625406759,-0.000617698582361,0.0,0.0,0.0,0.0,0.0,0.0,0.0,0.0,0.0,6.22718773476,-0.0140779879989,7.30003962116,0.0,0.0,0.0,0.0,0.0,0.0,0.0,0.0,0.0
26448000000,117,26448000000,imu_link,-0.000151799099906,-0.369805212294,-0.00014031778604,0.92910928433,0.0,0.0,0.0,0.0,0.0,0.0,0.0,0.0,0.0,0.0017462817685,-0.00805835326511,-0.00057756793037,0.0,0.0,0.0,0.0,0.0,0.0,0.0,0.0,0.0,6.22792823484,-0.0140850609471,7.29662145012,0.0,0.0,0.0,0.0,0.0,0.0,0.0,0.0,0.0
26452000000,118,26452000000,imu_link,-0.000148941249971,-0.369818951455,-0.000140229357801,0.929103816211,0.0,0.0,0.0,0.0,0.0,0.0,0.0,0.0,0.0,0.00134452696245,-0.00739346637737,-0.000488770585277,0.0,0.0,0.0,0.0,0.0,0.0,0.0,0.0,0.0,6.2300108859,-0.0140828907879,7.29752154306,0.0,0.0,0.0,0.0,0.0,0.0,0.0,0.0,0.0
26456000000,119,26456000000,imu_link,-0.000147054256081,-0.369831997621,-0.000140250752838,0.929098623527,0.0,0.0,0.0,0.0,0.0,0.0,0.0,0.0,0.0,0.000873178492299,-0.00702066419587,-0.000360197795789,0.0,0.0,0.0,0.0,0.0,0.0,0.0,0.0,0.0,6.23354416433,-0.0141307526853,7.30377376032,0.0,0.0,0.0,0.0,0.0,0.0,0.0,0.0,0.0
26460000000,120,26460000000,imu_link,-0.000146599084979,-0.369845032269,-0.000140433133874,0.929093434964,0.0,0.0,0.0,0.0,0.0,0.0,0.0,0.0,0.0,0.000178256810459,-0.00701463983844,-0.000170215653903,0.0,0.0,0.0,0.0,0.0,0.0,0.0,0.0,0.0,6.23752249205,-0.0141365569472,7.3122682503,0.0,0.0,0.0,0.0,0.0,0.0,0.0,0.0,0.0
26464000000,121,26464000000,imu_link,-0.00014792901277,-0.369858852758,-0.000140813880426,0.929087933042,0.0,0.0,0.0,0.0,0.0,0.0,0.0,0.0,0.0,-0.000687655061399,-0.00743775727935,6.76596708147e-05,0.0,0.0,0.0,0.0,0.0,0.0,0.0,0.0,0.0,6.24144504823,-0.0142123853448,7.32130741834,0.0,0.0,0.0,0.0,0.0,0.0,0.0,0.0,0.0
26468000000,122,26468000000,imu_link,-0.000151083868862,-0.369874008968,-0.000141387396548,0.929081898798,0.0,0.0,0.0,0.0,0.0,0.0,0.0,0.0,0.0,-0.00157100858831,-0.0081568149414,0.000315456399157,0.0,0.0,0.0,0.0,0.0,0.0,0.0,0.0,0.0,6.24296027851,-0.0143736694385,7.3230665543,0.0,0.0,0.0,0.0,0.0,0.0,0.0,0.0,0.0
26472000000,123,26472000000,imu_link,-0.000155802668813,-0.369890805467,-0.00014211022278,0.929075210928,0.0,0.0,0.0,0.0,0.0,0.0,0.0,0.0,0.0,-0.00232507093549,-0.00903977520697,0.000535156713344,0.0,0.0,0.0,0.0,0.0,0.0,0.0,0.0,0.0,6.24366532827,-0.0145891801659,7.32076433425,0.0,0.0,0.0,0.0,0.0,0.0,0.0,0.0,0.0
26476000000,124,26476000000,imu_link,-0.000161559408491,-0.369909179069,-0.00014294882844,0.929067894562,0.0,0.0,0.0,0.0,0.0,0.0,0.0,0.0,0.0,-0.00282858274405,-0.00988870092308,0.00067316747961,0.0,0.0,0.0,0.0,0.0,0.0,0.0,0.0,0.0,6.24558300034,-0.0148377678113,7.31841536123,0.0,0.0,0.0,0.0,0.0,0.0,0.0,0.0,0.0
26480000000,125,26480000000,imu_link,-0.000167826620941,-0.369928749116,-0.000143840397562,0.929060101243,0.0,0.0,0.0,0.0,0.0,0.0,0.0,0.0,0.0,-0.00307546352364,-0.01053273754,0.000742847697274,0.0,0.0,0.0,0.0,0.0,0.0,0.0,0.0,0.0,6.24869645691,-0.0149990662072,7.31593855321,0.0,0.0,0.0,0.0,0.0,0.0,0.0,0.0,0.0
26484000000,126,26484000000,imu_link,-0.000174411003357,-0.369949171687,-0.000144752982486,0.929051967866,0.0,0.0,0.0,0.0,0.0,0.0,0.0,0.0,0.0,-0.0032266529008,-0.0109916796436,0.000791654375471,0.0,0.0,0.0,0.0,0.0,0.0,0.0,0.0,0.0,6.25043000823,-0.0149685370556,7.31100107533,0.0,0.0,0.0,0.0,0.0,0.0,0.0,0.0,0.0
26488000000,127,26488000000,imu_link,-0.000181353690579,-0.369970308173,-0.000145652911699,0.929043549553,0.0,0.0,0.0,0.0,0.0,0.0,0.0,0.0,0.0,-0.00339072698577,-0.011376044943,0.000863727684805,0.0,0.0,0.0,0.0,0.0,0.0,0.0,0.0,0.0,6.25118667718,-0.014873875529,7.30592866636,0.0,0.0,0.0,0.0,0.0,0.0,0.0,0.0,0.0
26492000000,128,26492000000,imu_link,-0.000188911932118,-0.369992459353,-0.000146554188831,0.929034726399,0.0,0.0,0.0,0.0,0.0,0.0,0.0,0.0,0.0,-0.00367687752842,-0.0119223266458,0.000976848464784,0.0,0.0,0.0,0.0,0.0,0.0,0.0,0.0,0.0,6.25421787316,-0.0147602320195,7.30952791509,0.0,0.0,0.0,0.0,0.0,0.0,0.0,0.0,0.0
26496000000,129,26496000000,imu_link,-0.00019723814892,-0.370016036789,-0.00014749237608,0.929025334349,0.0,0.0,0.0,0.0,0.0,0.0,0.0,0.0,0.0,-0.00404039282846,-0.0126901439447,0.00110159919768,0.0,0.0,0.0,0.0,0.0,0.0,0.0,0.0,0.0,6.25597244816,-0.0147003676268,7.31121579342,0.0,0.0,0.0,0.0,0.0,0.0,0.0,0.0,0.0
26500000000,130,26500000000,imu_link,-0.000206148290567,-0.370041124706,-0.000148460500889,0.929015339749,0.0,0.0,0.0,0.0,0.0,0.0,0.0,0.0,0.0,-0.00431712003553,-0.0135032980201,0.00119553020177,0.0,0.0,0.0,0.0,0.0,0.0,0.0,0.0,0.0,6.25875735385,-0.0147114435753,7.31202623522,0.0,0.0,0.0,0.0,0.0,0.0,0.0,0.0,0.0
26504000000,131,26504000000,imu_link,-0.000215132933839,-0.370067424953,-0.000149411878835,0.929004861334,0.0,0.0,0.0,0.0,0.0,0.0,0.0,0.0,0.0,-0.00434858797545,-0.0141559576424,0.00121693270773,0.0,0.0,0.0,0.0,0.0,0.0,0.0,0.0,0.0,6.26041953513,-0.0147587264579,7.30749811909,0.0,0.0,0.0,0.0,0.0,0.0,0.0,0.0,0.0
26508000000,132,26508000000,imu_link,-0.000223596259592,-0.370094441603,-0.000150302241042,0.928994096703,0.0,0.0,0.0,0.0,0.0,0.0,0.0,0.0,0.0,-0.00409512201928,-0.0145416553775,0.00114871490771,0.0,0.0,0.0,0.0,0.0,0.0,0.0,0.0,0.0,6.26286955079,-0.0147495999817,7.30313217212,0.0,0.0,0.0,0.0,0.0,0.0,0.0,0.0,0.0
26512000000,133,26512000000,imu_link,-0.000231218209681,-0.370121649686,-0.000151138860532,0.928983255031,0.0,0.0,0.0,0.0,0.0,0.0,0.0,0.0,0.0,-0.00369435479273,-0.0146447749604,0.00101795682152,0.0,0.0,0.0,0.0,0.0,0.0,0.0,0.0,0.0,6.26390015589,-0.0146111669841,7.29595339465,0.0,0.0,0.0,0.0,0.0,0.0,0.0,0.0,0.0
26516000000,134,26516000000,imu_link,-0.000238065740006,-0.370148716976,-0.000151972996778,0.928972468672,0.0,0.0,0.0,0.0,0.0,0.0,0.0,0.0,0.0,-0.00333418799006,-0.0145690828863,0.000875815963438,0.0,0.0,0.0,0.0,0.0,0.0,0.0,0.0,0.0,6.26556719997,-0.0143597413794,7.29160643614,0.0,0.0,0.0,0.0,0.0,0.0,0.0,0.0,0.0
26520000000,135,26520000000,imu_link,-0.000244050034061,-0.370175547324,-0.000152821517825,0.928961775989,0.0,0.0,0.0,0.0,0.0,0.0,0.0,0.0,0.0,-0.00293589573681,-0.0144416228155,0.000709406845107,0.0,0.0,0.0,0.0,0.0,0.0,0.0,0.0,0.0,6.26616766856,-0.0141409366487,7.28680810989,0.0,0.0,0.0,0.0,0.0,0.0,0.0,0.0,0.0
26524000000,136,26524000000,imu_link,-0.000248914298909,-0.370202077017,-0.00015367356809,0.928951202485,0.0,0.0,0.0,0.0,0.0,0.0,0.0,0.0,0.0,-0.00241632522178,-0.0142798294136,0.000500509671972,0.0,0.0,0.0,0.0,0.0,0.0,0.0,0.0,0.0,6.2677478912,-0.0139176318535,7.28502340897,0.0,0.0,0.0,0.0,0.0,0.0,0.0,0.0,0.0
26528000000,137,26528000000,imu_link,-0.000252706913323,-0.370228447966,-0.000154555087272,0.928940691631,0.0,0.0,0.0,0.0,0.0,0.0,0.0,0.0,0.0,-0.00192402886912,-0.0141944138787,0.000288483041551,0.0,0.0,0.0,0.0,0.0,0.0,0.0,0.0,0.0,6.26866347641,-0.0135811252009,7.28359563961,0.0,0.0,0.0,0.0,0.0,0.0,0.0,0.0,0.0
26532000000,138,26532000000,imu_link,-0.000255617556238,-0.370254711028,-0.000155483158372,0.928930223131,0.0,0.0,0.0,0.0,0.0,0.0,0.0,0.0,0.0,-0.00152299966967,-0.0141363897112,0.000103612490695,0.0,0.0,0.0,0.0,0.0,0.0,0.0,0.0,0.0,6.2703407577,-0.0132695937732,7.28304214081,0.0,0.0,0.0,0.0,0.0,0.0,0.0,0.0,0.0
26536000000,139,26536000000,imu_link,-0.000257902465715,-0.370280662701,-0.000156479577345,0.928919878047,0.0,0.0,0.0,0.0,0.0,0.0,0.0,0.0,0.0,-0.00124502981367,-0.0139688548085,-4.39236947853e-05,0.0,0.0,0.0,0.0,0.0,0.0,0.0,0.0,0.0,6.27073118619,-0.0129986147758,7.27777122296,0.0,0.0,0.0,0.0,0.0,0.0,0.0,0.0,0.0
26540000000,140,26540000000,imu_link,-0.000259954431189,-0.37030606926,-0.00015757222913,0.928909749472,0.0,0.0,0.0,0.0,0.0,0.0,0.0,0.0,0.0,-0.00115466796137,-0.0136755561827,-0.000131660078374,0.0,0.0,0.0,0.0,0.0,0.0,0.0,0.0,0.0,6.27218984242,-0.0127551127348,7.27454284583,0.0,0.0,0.0,0.0,0.0,0.0,0.0,0.0,0.0
26544000000,141,26544000000,imu_link,-0.000262046844018,-0.370331017397,-0.000158771652666,0.928899802819,0.0,0.0,0.0,0.0,0.0,0.0,0.0,0.0,0.0,-0.0011932355178,-0.0134289457611,-0.000173687870829,0.0,0.0,0.0,0.0,0.0,0.0,0.0,0.0,0.0,6.27454076224,-0.0126064792908,7.27510651183,0.0,0.0,0.0,0.0,0.0,0.0,0.0,0.0,0.0
26548000000,142,26548000000,imu_link,-0.000264082686045,-0.370355984907,-0.000160075797465,0.928889847657,0.0,0.0,0.0,0.0,0.0,0.0,0.0,0.0,0.0,-0.00118635155715,-0.0134395009907,-0.00023280382608,0.0,0.0,0.0,0.0,0.0,0.0,0.0,0.0,0.0,6.27584866292,-0.0125414541074,7.27644075961,0.0,0.0,0.0,0.0,0.0,0.0,0.0,0.0,0.0
26552000000,143,26552000000,imu_link,-0.00026563705146,-0.370381282674,-0.000161417513736,0.928879760155,0.0,0.0,0.0,0.0,0.0,0.0,0.0,0.0,0.0,-0.000969680639995,-0.0136173499199,-0.000339466778267,0.0,0.0,0.0,0.0,0.0,0.0,0.0,0.0,0.0,6.27789794137,-0.0125365896848,7.27808889971,0.0,0.0,0.0,0.0,0.0,0.0,0.0,0.0,0.0
26556000000,144,26556000000,imu_link,-0.000266584225157,-0.370406907911,-0.000162763151173,0.928869541439,0.0,0.0,0.0,0.0,0.0,0.0,0.0,0.0,0.0,-0.000688393752354,-0.013793690679,-0.000453788231676,0.0,0.0,0.0,0.0,0.0,0.0,0.0,0.0,0.0,6.27905463899,-0.0124232747763,7.27531156662,0.0,0.0,0.0,0.0,0.0,0.0,0.0,0.0,0.0
26560000000,145,26560000000,imu_link,-0.000267099404674,-0.370432618415,-0.000164131876051,0.928859288016,0.0,0.0,0.0,0.0,0.0,0.0,0.0,0.0,0.0,-0.0004920341949,-0.0138396808444,-0.000544531846022,0.0,0.0,0.0,0.0,0.0,0.0,0.0,0.0,0.0,6.28060894018,-0.0122379334425,7.27153339495,0.0,0.0,0.0,0.0,0.0,0.0,0.0,0.0,0.0
26564000000,146,26564000000,imu_link,-0.000267758271612,-0.370458346292,-0.000165569355432,0.928849026783,0.0,0.0,0.0,0.0,0.0,0.0,0.0,0.0,0.0,-0.000571500965214,-0.0138491984426,-0.000549853183032,0.0,0.0,0.0,0.0,0.0,0.0,0.0,0.0,0.0,6.2830040175,-0.0120032449646,7.27088210105,0.0,0.0,0.0,0.0,0.0,0.0,0.0,0.0,0.0
26568000000,147,26568000000,imu_link,-0.000269166947731,-0.370483939095,-0.000167089686071,0.928838818366,0.0,0.0,0.0,0.0,0.0,0.0,0.0,0.0,0.0,-0.000935081310891,-0.0137767347342,-0.000449422347527,0.0,0.0,0.0,0.0,0.0,0.0,0.0,0.0,0.0,6.28440730441,-0.0118456932128,7.26769554956,0.0,0.0,0.0,0.0,0.0,0.0,0.0,0.0,0.0
26572000000,148,26572000000,imu_link,-0.000272028619398,-0.370509227217,-0.000168679963158,0.928828730227,0.0,0.0,0.0,0.0,0.0,0.0,0.0,0.0,0.0,-0.00162284692982,-0.0136130663185,-0.000212700024606,0.0,0.0,0.0,0.0,0.0,0.0,0.0,0.0,0.0,6.28684492924,-0.0117797078762,7.26703681339,0.0,0.0,0.0,0.0,0.0,0.0,0.0,0.0,0.0
26576000000,149,26576000000,imu_link,-0.000276578492746,-0.370533973005,-0.000170334061563,0.928818857119,0.0,0.0,0.0,0.0,0.0,0.0,0.0,0.0,0.0,-0.00241871172888,-0.0133214969109,7.04994892702e-05,0.0,0.0,0.0,0.0,0.0,0.0,0.0,0.0,0.0,6.28787129263,-0.0118564308634,7.26269302246,0.0,0.0,0.0,0.0,0.0,0.0,0.0,0.0,0.0
26580000000,150,26580000000,imu_link,-0.000282745961603,-0.370558057115,-0.000172047294163,0.928809246703,0.0,0.0,0.0,0.0,0.0,0.0,0.0,0.0,0.0,-0.00318091397439,-0.0129656690262,0.000342837932742,0.0,0.0,0.0,0.0,0.0,0.0,0.0,0.0,0.0,6.28775380277,-0.011999692196,7.25717512909,0.0,0.0,0.0,0.0,0.0,0.0,0.0,0.0,0.0
26584000000,151,26584000000,imu_link,-0.000290129784302,-0.37058147794,-0.000173807062586,0.928799899776,0.0,0.0,0.0,0.0,0.0,0.0,0.0,0.0,0.0,-0.00375443624306,-0.0126089156575,0.000546707777035,0.0,0.0,0.0,0.0,0.0,0.0,0.0,0.0,0.0,6.2894424153,-0.0121881244757,7.256599515,0.0,0.0,0.0,0.0,0.0,0.0,0.0,0.0,0.0
26588000000,152,26588000000,imu_link,-0.000298327521251,-0.370604439138,-0.000175572642983,0.928790735239,0.0,0.0,0.0,0.0,0.0,0.0,0.0,0.0,0.0,-0.0041335083696,-0.0123617393426,0.000694901994881,0.0,0.0,0.0,0.0,0.0,0.0,0.0,0.0,0.0,6.29047823771,-0.0123185077393,7.25634662019,0.0,0.0,0.0,0.0,0.0,0.0,0.0,0.0,0.0
26592000000,153,26592000000,imu_link,-0.000306940941552,-0.370627505481,-0.000177282567578,0.928781527884,0.0,0.0,0.0,0.0,0.0,0.0,0.0,0.0,0.0,-0.00431623380516,-0.0124185470638,0.000797755897041,0.0,0.0,0.0,0.0,0.0,0.0,0.0,0.0,0.0,6.29286334317,-0.0123895056053,7.26105479284,0.0,0.0,0.0,0.0,0.0,0.0,0.0,0.0,0.0
26596000000,154,26596000000,imu_link,-0.000315893161977,-0.370651254317,-0.000178921124499,0.928772047314,0.0,0.0,0.0,0.0,0.0,0.0,0.0,0.0,0.0,-0.00446032547655,-0.0127861619859,0.000893553747581,0.0,0.0,0.0,0.0,0.0,0.0,0.0,0.0,0.0,6.29492288551,-0.0123691129245,7.26513036358,0.0,0.0,0.0,0.0,0.0,0.0,0.0,0.0,0.0
26600000000,155,26600000000,imu_link,-0.000325338326362,-0.370675973017,-0.000180506930173,0.928762178709,0.0,0.0,0.0,0.0,0.0,0.0,0.0,0.0,0.0,-0.00467944012825,-0.0133085189641,0.00100921793698,0.0,0.0,0.0,0.0,0.0,0.0,0.0,0.0,0.0,6.29640709204,-0.0123039871747,7.26560819167,0.0,0.0,0.0,0.0,0.0,0.0,0.0,0.0,0.0
26604000000,156,26604000000,imu_link,-0.000335400110511,-0.370701616954,-0.000182057088118,0.928751939729,0.0,0.0,0.0,0.0,0.0,0.0,0.0,0.0,0.0,-0.00495915655063,-0.0138068870687,0.00113987119918,0.0,0.0,0.0,0.0,0.0,0.0,0.0,0.0,0.0,6.2975099075,-0.0122690091157,7.26236345297,0.0,0.0,0.0,0.0,0.0,0.0,0.0,0.0,0.0
26608000000,157,26608000000,imu_link,-0.000346026185321,-0.370728009785,-0.000183580291182,0.928741400674,0.0,0.0,0.0,0.0,0.0,0.0,0.0,0.0,0.0,-0.00521618561668,-0.014210330853,0.00125682722326,0.0,0.0,0.0,0.0,0.0,0.0,0.0,0.0,0.0,6.29836750891,-0.0122875068669,7.25743073037,0.0,0.0,0.0,0.0,0.0,0.0,0.0,0.0,0.0
26612000000,158,26612000000,imu_link,-0.000356940683477,-0.370754937679,-0.000185059053976,0.928730646922,0.0,0.0,0.0,0.0,0.0,0.0,0.0,0.0,0.0,-0.00534187137288,-0.014498629648,0.00133081500897,0.0,0.0,0.0,0.0,0.0,0.0,0.0,0.0,0.0,6.29939797733,-0.0123109716713,7.25260896802,0.0,0.0,0.0,0.0,0.0,0.0,0.0,0.0,0.0
26616000000,159,26616000000,imu_link,-0.000367750530791,-0.37078213821,-0.000186477029011,0.928719783342,0.0,0.0,0.0,0.0,0.0,0.0,0.0,0.0,0.0,-0.00528200084479,-0.0146455932332,0.00133958400906,0.0,0.0,0.0,0.0,0.0,0.0,0.0,0.0,0.0,6.30092569437,-0.0122883726954,7.2490441776,0.0,0.0,0.0,0.0,0.0,0.0,0.0,0.0,0.0
26620000000,160,26620000000,imu_link,-0.000378219364566,-0.370809398751,-0.000187841700085,0.928708894898,0.0,0.0,0.0,0.0,0.0,0.0,0.0,0.0,0.0,-0.00511376473263,-0.0146780474823,0.00130110201281,0.0,0.0,0.0,0.0,0.0,0.0,0.0,0.0,0.0,6.30338747724,-0.0121349213448,7.24793817672,0.0,0.0,0.0,0.0,0.0,0.0,0.0,0.0,0.0
26624000000,161,26624000000,imu_link,-0.000388179014661,-0.370836593634,-0.000189161734497,0.928698031847,0.0,0.0,0.0,0.0,0.0,0.0,0.0,0.0,0.0,-0.00486904854387,-0.0146428115342,0.0012274389991,0.0,0.0,0.0,0.0,0.0,0.0,0.0,0.0,0.0,6.30497652434,-0.0119779235588,7.24599212562,0.0,0.0,0.0,0.0,0.0,0.0,0.0,0.0,0.0
26628000000,162,26628000000,imu_link,-0.00039757178709,-0.370863704188,-0.000190440770754,0.928687201691,0.0,0.0,0.0,0.0,0.0,0.0,0.0,0.0,0.0,-0.0045982192409,-0.0145975082186,0.00114138644025,0.0,0.0,0.0,0.0,0.0,0.0,0.0,0.0,0.0,6.30504308007,-0.0117869007148,7.24173241706,0.0,0.0,0.0,0.0,0.0,0.0,0.0,0.0,0.0
26632000000,163,26632000000,imu_link,-0.000406300348069,-0.370890602885,-0.000191666327672,0.928676455433,0.0,0.0,0.0,0.0,0.0,0.0,0.0,0.0,0.0,-0.00427988362639,-0.0144835235862,0.00104310337219,0.0,0.0,0.0,0.0,0.0,0.0,0.0,0.0,0.0,6.30551911426,-0.0116167381229,7.23749019492,0.0,0.0,0.0,0.0,0.0,0.0,0.0,0.0,0.0
26636000000,164,26636000000,imu_link,-0.000414213628409,-0.370917002883,-0.00019280683143,0.928665907754,0.0,0.0,0.0,0.0,0.0,0.0,0.0,0.0,0.0,-0.00388555240101,-0.0142150728712,0.000931527182866,0.0,0.0,0.0,0.0,0.0,0.0,0.0,0.0,0.0,6.30703600498,-0.0114436484709,7.23343287124,0.0,0.0,0.0,0.0,0.0,0.0,0.0,0.0,0.0
26640000000,165,26640000000,imu_link,-0.000421149337425,-0.370942666424,-0.000193873161192,0.928655653767,0.0,0.0,0.0,0.0,0.0,0.0,0.0,0.0,0.0,-0.00341788779329,-0.0138185644529,0.000784850539104,0.0,0.0,0.0,0.0,0.0,0.0,0.0,0.0,0.0,6.30861554885,-0.0112593201758,7.23035140317,0.0,0.0,0.0,0.0,0.0,0.0,0.0,0.0,0.0
26644000000,166,26644000000,imu_link,-0.000427279902888,-0.370967624272,-0.000194931708123,0.928645681181,0.0,0.0,0.0,0.0,0.0,0.0,0.0,0.0,0.0,-0.00304260289621,-0.0134386233837,0.000639309155061,0.0,0.0,0.0,0.0,0.0,0.0,0.0,0.0,0.0,6.31077412194,-0.0110099749398,7.23065361551,0.0,0.0,0.0,0.0,0.0,0.0,0.0,0.0,0.0
26648000000,167,26648000000,imu_link,-0.000432661526058,-0.370992117986,-0.000196063204834,0.928635893532,0.0,0.0,0.0,0.0,0.0,0.0,0.0,0.0,0.0,-0.00270838861361,-0.0131887243891,0.000466637416694,0.0,0.0,0.0,0.0,0.0,0.0,0.0,0.0,0.0,6.31224390876,-0.0108167586137,7.23148788681,0.0,0.0,0.0,0.0,0.0,0.0,0.0,0.0,0.0
26652000000,168,26652000000,imu_link,-0.000437096450408,-0.371016422532,-0.000197306907851,0.928626181102,0.0,0.0,0.0,0.0,0.0,0.0,0.0,0.0,0.0,-0.00228963546125,-0.0130868198295,0.000238977411828,0.0,0.0,0.0,0.0,0.0,0.0,0.0,0.0,0.0,6.31395410941,-0.0106838168388,7.2331196598,0.0,0.0,0.0,0.0,0.0,0.0,0.0,0.0,0.0
26656000000,169,26656000000,imu_link,-0.0004402621797,-0.371040736762,-0.000198624108952,0.92861646463,0.0,0.0,0.0,0.0,0.0,0.0,0.0,0.0,0.0,-0.001713966007,-0.0130919250771,-3.05973312549e-05,0.0,0.0,0.0,0.0,0.0,0.0,0.0,0.0,0.0,6.31591631549,-0.0105365906258,7.23421171393,0.0,0.0,0.0,0.0,0.0,0.0,0.0,0.0,0.0
26660000000,170,26660000000,imu_link,-0.000442151640974,-0.371065044104,-0.000199959991388,0.928606750763,0.0,0.0,0.0,0.0,0.0,0.0,0.0,0.0,0.0,-0.00112485013813,-0.0130881130956,-0.000276043166881,0.0,0.0,0.0,0.0,0.0,0.0,0.0,0.0,0.0,6.31767940343,-0.0102746550549,7.23326242691,0.0,0.0,0.0,0.0,0.0,0.0,0.0,0.0,0.0
26664000000,171,26664000000,imu_link,-0.000443021897272,-0.37108919324,-0.000201300465012,0.928597099861,0.0,0.0,0.0,0.0,0.0,0.0,0.0,0.0,0.0,-0.00065248353979,-0.0130028718678,-0.000467229269336,0.0,0.0,0.0,0.0,0.0,0.0,0.0,0.0,0.0,6.31948693038,-0.00995160886859,7.2315691684,0.0,0.0,0.0,0.0,0.0,0.0,0.0,0.0,0.0
26668000000,172,26668000000,imu_link,-0.000443407883185,-0.371112820775,-0.000202668361332,0.928587656913,0.0,0.0,0.0,0.0,0.0,0.0,0.0,0.0,0.0,-0.000432732070144,-0.0127220540564,-0.000569678870216,0.0,0.0,0.0,0.0,0.0,0.0,0.0,0.0,0.0,6.32064575868,-0.00964142840723,7.22673487717,0.0,0.0,0.0,0.0,0.0,0.0,0.0,0.0,0.0
26672000000,173,26672000000,imu_link,-0.000443624771168,-0.3711354127,-0.000204065399782,0.928578627255,0.0,0.0,0.0,0.0,0.0,0.0,0.0,0.0,0.0,-0.000359641768557,-0.01216451477,-0.000614315106892,0.0,0.0,0.0,0.0,0.0,0.0,0.0,0.0,0.0,6.3233120736,-0.00946330376291,7.22390278461,0.0,0.0,0.0,0.0,0.0,0.0,0.0,0.0,0.0
26676000000,174,26676000000,imu_link,-0.000443636697854,-0.371156772506,-0.000205483378866,0.928570089539,0.0,0.0,0.0,0.0,0.0,0.0,0.0,0.0,0.0,-0.000268382931826,-0.0115011404086,-0.000661748323629,0.0,0.0,0.0,0.0,0.0,0.0,0.0,0.0,0.0,6.3244502718,-0.00939646691608,7.22059272151,0.0,0.0,0.0,0.0,0.0,0.0,0.0,0.0,0.0
26680000000,175,26680000000,imu_link,-0.000443293552181,-0.37117698856,-0.000206914382523,0.928562008614,0.0,0.0,0.0,0.0,0.0,0.0,0.0,0.0,0.0,-0.000105961411064,-0.0108853040781,-0.000733388557142,0.0,0.0,0.0,0.0,0.0,0.0,0.0,0.0,0.0,6.32519262571,-0.00933893622978,7.21886424714,0.0,0.0,0.0,0.0,0.0,0.0,0.0,0.0,0.0
26684000000,176,26684000000,imu_link,-0.000442528916744,-0.371196390661,-0.000208350269026,0.92855425276,0.0,0.0,0.0,0.0,0.0,0.0,0.0,0.0,0.0,8.88099215399e-05,-0.0104470270814,-0.000813665179398,0.0,0.0,0.0,0.0,0.0,0.0,0.0,0.0,0.0,6.32749575941,-0.00925525881632,7.22186383441,0.0,0.0,0.0,0.0,0.0,0.0,0.0,0.0,0.0
26688000000,177,26688000000,imu_link,-0.000441592885987,-0.371215426946,-0.000209820346632,0.928546642753,0.0,0.0,0.0,0.0,0.0,0.0,0.0,0.0,0.0,0.000162033202917,-0.0102500923845,-0.00086125385257,0.0,0.0,0.0,0.0,0.0,0.0,0.0,0.0,0.0,6.32900120627,-0.00912085085447,7.22427390976,0.0,0.0,0.0,0.0,0.0,0.0,0.0,0.0,0.0
26692000000,178,26692000000,imu_link,-0.000440593870973,-0.37123429343,-0.000211313436453,0.928539100203,0.0,0.0,0.0,0.0,0.0,0.0,0.0,0.0,0.0,0.000187000948517,-0.010158726172,-0.00088358360591,0.0,0.0,0.0,0.0,0.0,0.0,0.0,0.0,0.0,6.32995133083,-0.00905163370308,7.22340739437,0.0,0.0,0.0,0.0,0.0,0.0,0.0,0.0,0.0
26696000000,179,26696000000,imu_link,-0.000439603215699,-0.371253100649,-0.000212818588167,0.928531580893,0.0,0.0,0.0,0.0,0.0,0.0,0.0,0.0,0.0,0.000180879740389,-0.0101268957283,-0.000887616352818,0.0,0.0,0.0,0.0,0.0,0.0,0.0,0.0,0.0,6.33143512392,-0.0090116562512,7.22284879227,0.0,0.0,0.0,0.0,0.0,0.0,0.0,0.0,0.0
26700000000,180,26700000000,imu_link,-0.000438481825828,-0.371272024044,-0.00021427529286,0.928524014758,0.0,0.0,0.0,0.0,0.0,0.0,0.0,0.0,0.0,0.00025057046448,-0.0101895205978,-0.000889422388883,0.0,0.0,0.0,0.0,0.0,0.0,0.0,0.0,0.0,6.33325606345,-0.00901757590185,7.22339457414,0.0,0.0,0.0,0.0,0.0,0.0,0.0,0.0,0.0
26704000000,181,26704000000,imu_link,-0.000437049721302,-0.371291174245,-0.000215635544295,0.928516357646,0.0,0.0,0.0,0.0,0.0,0.0,0.0,0.0,0.0,0.000412733025533,-0.0103116949327,-0.000902382107521,0.0,0.0,0.0,0.0,0.0,0.0,0.0,0.0,0.0,6.33452233271,-0.00898587497547,7.22224774189,0.0,0.0,0.0,0.0,0.0,0.0,0.0,0.0,0.0
26708000000,182,26708000000,imu_link,-0.000435234966682,-0.371310694717,-0.000216887363858,0.928508552206,0.0,0.0,0.0,0.0,0.0,0.0,0.0,0.0,0.0,0.000610518868301,-0.0105111152739,-0.000923175931528,0.0,0.0,0.0,0.0,0.0,0.0,0.0,0.0,0.0,6.33596341123,-0.00891887312263,7.22214027031,0.0,0.0,0.0,0.0,0.0,0.0,0.0,0.0,0.0
26712000000,183,26712000000,imu_link,-0.000433072063827,-0.371330859922,-0.000218055517288,0.928500488621,0.0,0.0,0.0,0.0,0.0,0.0,0.0,0.0,0.0,0.000787694980335,-0.01085834123,-0.000949137451825,0.0,0.0,0.0,0.0,0.0,0.0,0.0,0.0,0.0,6.33764311306,-0.00882697125793,7.22362893496,0.0,0.0,0.0,0.0,0.0,0.0,0.0,0.0,0.0
26716000000,184,26716000000,imu_link,-0.000430679385134,-0.371352013609,-0.000219193106687,0.928492029292,0.0,0.0,0.0,0.0,0.0,0.0,0.0,0.0,0.0,0.000900065232697,-0.0113907024399,-0.000977866712165,0.0,0.0,0.0,0.0,0.0,0.0,0.0,0.0,0.0,6.33956639789,-0.00872869682741,7.22622197347,0.0,0.0,0.0,0.0,0.0,0.0,0.0,0.0,0.0
26720000000,185,26720000000,imu_link,-0.000428066397284,-0.371374305532,-0.000220305587461,0.928483114233,0.0,0.0,0.0,0.0,0.0,0.0,0.0,0.0,0.0,0.00100703156018,-0.0120037230748,-0.00100741131123,0.0,0.0,0.0,0.0,0.0,0.0,0.0,0.0,0.0,6.34044552765,-0.00866699483477,7.22514052471,0.0,0.0,0.0,0.0,0.0,0.0,0.0,0.0,0.0
26724000000,186,26724000000,imu_link,-0.000425206718585,-0.37139766395,-0.00022138561751,0.928473772058,0.0,0.0,0.0,0.0,0.0,0.0,0.0,0.0,0.0,0.00112760744735,-0.012578123617,-0.00103842897103,0.0,0.0,0.0,0.0,0.0,0.0,0.0,0.0,0.0,6.34082173081,-0.00861790307768,7.22128923349,0.0,0.0,0.0,0.0,0.0,0.0,0.0,0.0,0.0
26728000000,187,26728000000,imu_link,-0.000422100580228,-0.371421709719,-0.000222428737187,0.928464154346,0.0,0.0,0.0,0.0,0.0,0.0,0.0,0.0,0.0,0.0012488948288,-0.012948365523,-0.00106723771874,0.0,0.0,0.0,0.0,0.0,0.0,0.0,0.0,0.0,6.34283401782,-0.00856934845024,7.21765622279,0.0,0.0,0.0,0.0,0.0,0.0,0.0,0.0,0.0
26732000000,188,26732000000,imu_link,-0.000418766873753,-0.371445871437,-0.000223442903991,0.928454489622,0.0,0.0,0.0,0.0,0.0,0.0,0.0,0.0,0.0,0.00135991908575,-0.0130109038578,-0.00109608843546,0.0,0.0,0.0,0.0,0.0,0.0,0.0,0.0,0.0,6.34549438546,-0.00852358924447,7.21385344556,0.0,0.0,0.0,0.0,0.0,0.0,0.0,0.0,0.0
26736000000,189,26736000000,imu_link,-0.000415118531255,-0.371469626073,-0.000224428028056,0.928444987177,0.0,0.0,0.0,0.0,0.0,0.0,0.0,0.0,0.0,0.00151136410073,-0.0127917575047,-0.00114093776458,0.0,0.0,0.0,0.0,0.0,0.0,0.0,0.0,0.0,6.34812950704,-0.00848936438306,7.21028940573,0.0,0.0,0.0,0.0,0.0,0.0,0.0,0.0,0.0
26740000000,190,26740000000,imu_link,-0.00041102782583,-0.371492810765,-0.000225364683814,0.928435712269,0.0,0.0,0.0,0.0,0.0,0.0,0.0,0.0,0.0,0.0017257044454,-0.0124848750135,-0.00120045605129,0.0,0.0,0.0,0.0,0.0,0.0,0.0,0.0,0.0,6.34843720092,-0.00844590005172,7.20536490108,0.0,0.0,0.0,0.0,0.0,0.0,0.0,0.0,0.0
26744000000,191,26744000000,imu_link,-0.000406434326655,-0.371515680852,-0.000226226360808,0.928426562801,0.0,0.0,0.0,0.0,0.0,0.0,0.0,0.0,0.0,0.00197302764745,-0.0123154889302,-0.00125896291193,0.0,0.0,0.0,0.0,0.0,0.0,0.0,0.0,0.0,6.3509615384,-0.00837647386981,7.20841370844,0.0,0.0,0.0,0.0,0.0,0.0,0.0,0.0,0.0
26748000000,192,26748000000,imu_link,-0.000401534778573,-0.371538545239,-0.000227058597484,0.928417415076,0.0,0.0,0.0,0.0,0.0,0.0,0.0,0.0,0.0,0.00212056809431,-0.0123124905407,-0.00130214595348,0.0,0.0,0.0,0.0,0.0,0.0,0.0,0.0,0.0,6.35180913835,-0.00824540416818,7.20824420583,0.0,0.0,0.0,0.0,0.0,0.0,0.0,0.0,0.0
26752000000,193,26752000000,imu_link,-0.000396666246719,-0.371561567493,-0.000227898301209,0.928408203475,0.0,0.0,0.0,0.0,0.0,0.0,0.0,0.0,0.0,0.00210478804159,-0.0123976420518,-0.00129988930696,0.0,0.0,0.0,0.0,0.0,0.0,0.0,0.0,0.0,6.35321183513,-0.00813068409753,7.20841728564,0.0,0.0,0.0,0.0,0.0,0.0,0.0,0.0,0.0
26756000000,194,26756000000,imu_link,-0.00039200904185,-0.37158475478,-0.000228744324802,0.928398925042,0.0,0.0,0.0,0.0,0.0,0.0,0.0,0.0,0.0,0.00200552062851,-0.0124866898443,-0.00126360287005,0.0,0.0,0.0,0.0,0.0,0.0,0.0,0.0,0.0,6.35410869701,-0.00812170090479,7.20639288185,0.0,0.0,0.0,0.0,0.0,0.0,0.0,0.0,0.0
26760000000,195,26760000000,imu_link,-0.000387396635615,-0.371608157986,-0.00022954122894,0.928389559481,0.0,0.0,0.0,0.0,0.0,0.0,0.0,0.0,0.0,0.00199385876422,-0.0126031217491,-0.00123253068627,0.0,0.0,0.0,0.0,0.0,0.0,0.0,0.0,0.0,6.35527926336,-0.00820043151468,7.20524126827,0.0,0.0,0.0,0.0,0.0,0.0,0.0,0.0,0.0
26764000000,196,26764000000,imu_link,-0.000382258475982,-0.371631927407,-0.00023020787142,0.928380046864,0.0,0.0,0.0,0.0,0.0,0.0,0.0,0.0,0.0,0.00226212744106,-0.0128004050846,-0.00126983884356,0.0,0.0,0.0,0.0,0.0,0.0,0.0,0.0,0.0,6.35744659748,-0.00831374981329,7.20721158138,0.0,0.0,0.0,0.0,0.0,0.0,0.0,0.0,0.0
26768000000,197,26768000000,imu_link,-0.000376407968726,-0.371656197275,-0.000230734666712,0.928370333491,0.0,0.0,0.0,0.0,0.0,0.0,0.0,0.0,0.0,0.00261879717377,-0.0130699563741,-0.00133740749229,0.0,0.0,0.0,0.0,0.0,0.0,0.0,0.0,0.0,6.35739080623,-0.00826741899208,7.20447904792,0.0,0.0,0.0,0.0,0.0,0.0,0.0,0.0,0.0
26772000000,198,26772000000,imu_link,-0.00037008029007,-0.371681114521,-0.000231173215333,0.928360360371,0.0,0.0,0.0,0.0,0.0,0.0,0.0,0.0,0.0,0.00285671757263,-0.0134186894804,-0.00138526835581,0.0,0.0,0.0,0.0,0.0,0.0,0.0,0.0,0.0,6.35814855092,-0.00811317933754,7.20334025722,0.0,0.0,0.0,0.0,0.0,0.0,0.0,0.0,0.0
26776000000,199,26776000000,imu_link,-0.000363821507289,-0.371706735102,-0.000231623162573,0.92835010479,0.0,0.0,0.0,0.0,0.0,0.0,0.0,0.0,0.0,0.00282264817594,-0.0137976621064,-0.00137791851501,0.0,0.0,0.0,0.0,0.0,0.0,0.0,0.0,0.0,6.36083502768,-0.00795459240198,7.20510179472,0.0,0.0,0.0,0.0,0.0,0.0,0.0,0.0,0.0
26780000000,200,26780000000,imu_link,-0.000358280353177,-0.371732940122,-0.000232236311578,0.928339614004,0.0,0.0,0.0,0.0,0.0,0.0,0.0,0.0,0.0,0.00245923615209,-0.0141127109522,-0.00132043255345,0.0,0.0,0.0,0.0,0.0,0.0,0.0,0.0,0.0,6.36462000494,-0.0078457842802,7.20763324174,0.0,0.0,0.0,0.0,0.0,0.0,0.0,0.0,0.0
26784000000,201,26784000000,imu_link,-0.000353777810468,-0.371759345214,-0.000233062238105,0.928329041757,0.0,0.0,0.0,0.0,0.0,0.0,0.0,0.0,0.0,0.00193760452936,-0.0142208022943,-0.00122619971967,0.0,0.0,0.0,0.0,0.0,0.0,0.0,0.0,0.0,6.36684765162,-0.00787488587464,7.20495836099,0.0,0.0,0.0,0.0,0.0,0.0,0.0,0.0,0.0
26788000000,202,26788000000,imu_link,-0.000350438367598,-0.37178548583,-0.000234086681476,0.928318574048,0.0,0.0,0.0,0.0,0.0,0.0,0.0,0.0,0.0,0.00136082227534,-0.0140787102444,-0.00110208861283,0.0,0.0,0.0,0.0,0.0,0.0,0.0,0.0,0.0,6.36799442882,-0.00798365739326,7.19942382037,0.0,0.0,0.0,0.0,0.0,0.0,0.0,0.0,0.0
26792000000,203,26792000000,imu_link,-0.000348281519146,-0.371810953868,-0.000235292165391,0.928308374368,0.0,0.0,0.0,0.0,0.0,0.0,0.0,0.0,0.0,0.000778224213303,-0.0137168094784,-0.000966135323296,0.0,0.0,0.0,0.0,0.0,0.0,0.0,0.0,0.0,6.36895387251,-0.00812769354413,7.19390470528,0.0,0.0,0.0,0.0,0.0,0.0,0.0,0.0,0.0
26796000000,204,26796000000,imu_link,-0.000347183882936,-0.371835360979,-0.000236690637916,0.928298598387,0.0,0.0,0.0,0.0,0.0,0.0,0.0,0.0,0.0,0.000250657745439,-0.0131456982084,-0.000858563840407,0.0,0.0,0.0,0.0,0.0,0.0,0.0,0.0,0.0,6.37083342801,-0.0082957555531,7.1904676277,0.0,0.0,0.0,0.0,0.0,0.0,0.0,0.0,0.0
26800000000,205,26800000000,imu_link,-0.000347029481879,-0.371858615244,-0.000238288863906,0.928289283067,0.0,0.0,0.0,0.0,0.0,0.0,0.0,0.0,0.0,-0.000224338357708,-0.012525037812,-0.00077566053729,0.0,0.0,0.0,0.0,0.0,0.0,0.0,0.0,0.0,6.37170070608,-0.00843984058531,7.18788604073,0.0,0.0,0.0,0.0,0.0,0.0,0.0,0.0,0.0
26804000000,206,26804000000,imu_link,-0.000347715526601,-0.371880960156,-0.000240037794984,0.928280331015,0.0,0.0,0.0,0.0,0.0,0.0,0.0,0.0,0.0,-0.000642492567245,-0.01203549819,-0.000689144926843,0.0,0.0,0.0,0.0,0.0,0.0,0.0,0.0,0.0,6.37255237336,-0.00857219658326,7.18814238008,0.0,0.0,0.0,0.0,0.0,0.0,0.0,0.0,0.0
26808000000,207,26808000000,imu_link,-0.000349309253424,-0.371902888109,-0.000241896614467,0.928271545015,0.0,0.0,0.0,0.0,0.0,0.0,0.0,0.0,0.0,-0.00108423816421,-0.0118111849831,-0.00057128128303,0.0,0.0,0.0,0.0,0.0,0.0,0.0,0.0,0.0,6.37385955052,-0.00864251961438,7.19148018229,0.0,0.0,0.0,0.0,0.0,0.0,0.0,0.0,0.0
26812000000,208,26812000000,imu_link,-0.000351949486948,-0.371924919921,-0.000243865229244,0.92826271637,0.0,0.0,0.0,0.0,0.0,0.0,0.0,0.0,0.0,-0.00159037084107,-0.0118674270329,-0.00042766507177,0.0,0.0,0.0,0.0,0.0,0.0,0.0,0.0,0.0,6.37524434014,-0.00869867183419,7.1951509511,0.0,0.0,0.0,0.0,0.0,0.0,0.0,0.0,0.0
26816000000,209,26816000000,imu_link,-0.000355607027624,-0.371947156533,-0.000245945444489,0.928253804625,0.0,0.0,0.0,0.0,0.0,0.0,0.0,0.0,0.0,-0.0020832781401,-0.0119780386372,-0.000290327579693,0.0,0.0,0.0,0.0,0.0,0.0,0.0,0.0,0.0,6.37550619816,-0.0087915032257,7.19295965571,0.0,0.0,0.0,0.0,0.0,0.0,0.0,0.0,0.0
26820000000,210,26820000000,imu_link,-0.000360026353194,-0.371969549,-0.000248117270118,0.928244829469,0.0,0.0,0.0,0.0,0.0,0.0,0.0,0.0,0.0,-0.00245387222315,-0.0120622458167,-0.000191210070691,0.0,0.0,0.0,0.0,0.0,0.0,0.0,0.0,0.0,6.37659365721,-0.00891991169307,7.19066024033,0.0,0.0,0.0,0.0,0.0,0.0,0.0,0.0,0.0
26824000000,211,26824000000,imu_link,-0.000364822216199,-0.371992049938,-0.000250362861247,0.928235810021,0.0,0.0,0.0,0.0,0.0,0.0,0.0,0.0,0.0,-0.00264234546294,-0.0121208602887,-0.000155441083701,0.0,0.0,0.0,0.0,0.0,0.0,0.0,0.0,0.0,6.37803261936,-0.00902948988003,7.18931400643,0.0,0.0,0.0,0.0,0.0,0.0,0.0,0.0,0.0
26828000000,212,26828000000,imu_link,-0.000369750704583,-0.372014595509,-0.00025268678445,0.928226771948,0.0,0.0,0.0,0.0,0.0,0.0,0.0,0.0,0.0,-0.00271846654057,-0.0121450419123,-0.000167139081034,0.0,0.0,0.0,0.0,0.0,0.0,0.0,0.0,0.0,6.3783984103,-0.00906131299936,7.18579822858,0.0,0.0,0.0,0.0,0.0,0.0,0.0,0.0,0.0
26832000000,213,26832000000,imu_link,-0.000374691612058,-0.372037250572,-0.000255116575943,0.928217689289,0.0,0.0,0.0,0.0,0.0,0.0,0.0,0.0,0.0,-0.0027439170908,-0.0122041336065,-0.000213989805956,0.0,0.0,0.0,0.0,0.0,0.0,0.0,0.0,0.0,6.37898691588,-0.00901478061532,7.1838264123,0.0,0.0,0.0,0.0,0.0,0.0,0.0,0.0,0.0
26836000000,214,26836000000,imu_link,-0.000379625709603,-0.372060183315,-0.000257704869522,0.928208494609,0.0,0.0,0.0,0.0,0.0,0.0,0.0,0.0,0.0,-0.0027702264488,-0.0123538150857,-0.000288885111346,0.0,0.0,0.0,0.0,0.0,0.0,0.0,0.0,0.0,6.38047157769,-0.00894461649349,7.18431550074,0.0,0.0,0.0,0.0,0.0,0.0,0.0,0.0,0.0
26840000000,215,26840000000,imu_link,-0.000384407934374,-0.372083492963,-0.000260436184845,0.928199148172,0.0,0.0,0.0,0.0,0.0,0.0,0.0,0.0,0.0,-0.00272632823747,-0.0125569231313,-0.000383606111787,0.0,0.0,0.0,0.0,0.0,0.0,0.0,0.0,0.0,6.38164499406,-0.00885440903938,7.18346883196,0.0,0.0,0.0,0.0,0.0,0.0,0.0,0.0,0.0
26844000000,216,26844000000,imu_link,-0.000388874225865,-0.372107259206,-0.000263254004536,0.928189618085,0.0,0.0,0.0,0.0,0.0,0.0,0.0,0.0,0.0,-0.00259577300197,-0.0128029374128,-0.00048264120509,0.0,0.0,0.0,0.0,0.0,0.0,0.0,0.0,0.0,6.3826764292,-0.00875549752714,7.1823607115,0.0,0.0,0.0,0.0,0.0,0.0,0.0,0.0,0.0
26848000000,217,26848000000,imu_link,-0.000392864780953,-0.372131591117,-0.000266104391217,0.928179860662,0.0,0.0,0.0,0.0,0.0,0.0,0.0,0.0,0.0,-0.00238101515878,-0.0131076882172,-0.000586407771049,0.0,0.0,0.0,0.0,0.0,0.0,0.0,0.0,0.0,6.383135551,-0.00862692118467,7.18040903998,0.0,0.0,0.0,0.0,0.0,0.0,0.0,0.0,0.0
26852000000,218,26852000000,imu_link,-0.000396292068817,-0.372156795508,-0.00026892896565,0.928169752894,0.0,0.0,0.0,0.0,0.0,0.0,0.0,0.0,0.0,-0.00211475846926,-0.013577715376,-0.000679451328781,0.0,0.0,0.0,0.0,0.0,0.0,0.0,0.0,0.0,6.38472291226,-0.00848286343781,7.18257324511,0.0,0.0,0.0,0.0,0.0,0.0,0.0,0.0,0.0
26856000000,219,26856000000,imu_link,-0.000399034799033,-0.372183198424,-0.000271662117611,0.928159164035,0.0,0.0,0.0,0.0,0.0,0.0,0.0,0.0,0.0,-0.00177998803803,-0.014223379019,-0.000764707104961,0.0,0.0,0.0,0.0,0.0,0.0,0.0,0.0,0.0,6.38706176135,-0.00834410506043,7.18617545561,0.0,0.0,0.0,0.0,0.0,0.0,0.0,0.0,0.0
26860000000,220,26860000000,imu_link,-0.000400958435839,-0.372210843551,-0.000274268985412,0.928148076522,0.0,0.0,0.0,0.0,0.0,0.0,0.0,0.0,0.0,-0.00137629384822,-0.0148925734362,-0.000858843183024,0.0,0.0,0.0,0.0,0.0,0.0,0.0,0.0,0.0,6.38770317575,-0.00819836231214,7.18398192041,0.0,0.0,0.0,0.0,0.0,0.0,0.0,0.0,0.0
26864000000,221,26864000000,imu_link,-0.000402154820027,-0.372239376143,-0.000276745408501,0.92813663247,0.0,0.0,0.0,0.0,0.0,0.0,0.0,0.0,0.0,-0.00101446809744,-0.015370702961,-0.000933879645793,0.0,0.0,0.0,0.0,0.0,0.0,0.0,0.0,0.0,6.38918443531,-0.00798749177265,7.17975690782,0.0,0.0,0.0,0.0,0.0,0.0,0.0,0.0,0.0
26868000000,222,26868000000,imu_link,-0.000403129475754,-0.372268089264,-0.000279113639496,0.92812511511,0.0,0.0,0.0,0.0,0.0,0.0,0.0,0.0,0.0,-0.000891424025408,-0.0154681155819,-0.000924985598751,0.0,0.0,0.0,0.0,0.0,0.0,0.0,0.0,0.0,6.39263171481,-0.00775894509057,7.17676612117,0.0,0.0,0.0,0.0,0.0,0.0,0.0,0.0,0.0
26872000000,223,26872000000,imu_link,-0.000404274617979,-0.37229642859,-0.000281391096177,0.928113746607,0.0,0.0,0.0,0.0,0.0,0.0,0.0,0.0,0.0,-0.000953666396877,-0.015266986656,-0.000851031179703,0.0,0.0,0.0,0.0,0.0,0.0,0.0,0.0,0.0,6.39504734521,-0.00761664274942,7.17320817825,0.0,0.0,0.0,0.0,0.0,0.0,0.0,0.0,0.0
26876000000,224,26876000000,imu_link,-0.000405704489662,-0.372324114421,-0.000283569705176,0.928102639158,0.0,0.0,0.0,0.0,0.0,0.0,0.0,0.0,0.0,-0.00106743591389,-0.0149151926054,-0.000751989528145,0.0,0.0,0.0,0.0,0.0,0.0,0.0,0.0,0.0,6.39543800411,-0.00756998767618,7.167901706,0.0,0.0,0.0,0.0,0.0,0.0,0.0,0.0,0.0
26880000000,225,26880000000,imu_link,-0.000407095951404,-0.372350967711,-0.000285623352449,0.928091864816,0.0,0.0,0.0,0.0,0.0,0.0,0.0,0.0,0.0,-0.0010263990691,-0.0144668588758,-0.000700935235712,0.0,0.0,0.0,0.0,0.0,0.0,0.0,0.0,0.0,6.39716035358,-0.00761526240909,7.16630614332,0.0,0.0,0.0,0.0,0.0,0.0,0.0,0.0,0.0
26884000000,226,26884000000,imu_link,-0.000408045865024,-0.372376819594,-0.000287541297854,0.928081491598,0.0,0.0,0.0,0.0,0.0,0.0,0.0,0.0,0.0,-0.000796297462342,-0.0139274455232,-0.000719907651117,0.0,0.0,0.0,0.0,0.0,0.0,0.0,0.0,0.0,6.39858061756,-0.00763138918911,7.16407089021,0.0,0.0,0.0,0.0,0.0,0.0,0.0,0.0,0.0
26888000000,227,26888000000,imu_link,-0.000408429378497,-0.372401595756,-0.000289337672594,0.928071549476,0.0,0.0,0.0,0.0,0.0,0.0,0.0,0.0,0.0,-0.000510896370166,-0.0133479450978,-0.000768669601258,0.0,0.0,0.0,0.0,0.0,0.0,0.0,0.0,0.0,6.39880975585,-0.00751740356933,7.16045389769,0.0,0.0,0.0,0.0,0.0,0.0,0.0,0.0,0.0
26892000000,228,26892000000,imu_link,-0.000408371549012,-0.372425359471,-0.000291057662455,0.92806201309,0.0,0.0,0.0,0.0,0.0,0.0,0.0,0.0,0.0,-0.00029193813613,-0.0128025371941,-0.000815137241844,0.0,0.0,0.0,0.0,0.0,0.0,0.0,0.0,0.0,6.39936528153,-0.00733100899257,7.15895463587,0.0,0.0,0.0,0.0,0.0,0.0,0.0,0.0,0.0
26896000000,229,26896000000,imu_link,-0.000408252706075,-0.372448385635,-0.000292749457233,0.928052772026,0.0,0.0,0.0,0.0,0.0,0.0,0.0,0.0,0.0,-0.000258422754374,-0.0124052943446,-0.000813221751963,0.0,0.0,0.0,0.0,0.0,0.0,0.0,0.0,0.0,6.40134100108,-0.00715090004662,7.16236858841,0.0,0.0,0.0,0.0,0.0,0.0,0.0,0.0,0.0
26900000000,230,26900000000,imu_link,-0.000408699166768,-0.372470904295,-0.000294504312025,0.928043733714,0.0,0.0,0.0,0.0,0.0,0.0,0.0,0.0,0.0,-0.000532514754375,-0.0121321118126,-0.000737076777687,0.0,0.0,0.0,0.0,0.0,0.0,0.0,0.0,0.0,6.40368789039,-0.00699555280149,7.16625203242,0.0,0.0,0.0,0.0,0.0,0.0,0.0,0.0,0.0
26904000000,231,26904000000,imu_link,-0.000410139886888,-0.372492977365,-0.000296408530218,0.928034873127,0.0,0.0,0.0,0.0,0.0,0.0,0.0,0.0,0.0,-0.00102171892609,-0.0118923659201,-0.000621101081371,0.0,0.0,0.0,0.0,0.0,0.0,0.0,0.0,0.0,6.4049747163,-0.00696560918468,7.16638326919,0.0,0.0,0.0,0.0,0.0,0.0,0.0,0.0,0.0
26908000000,232,26908000000,imu_link,-0.000412781146462,-0.372514353073,-0.000298523950651,0.928026291249,0.0,0.0,0.0,0.0,0.0,0.0,0.0,0.0,0.0,-0.00161817203935,-0.0115170032644,-0.000495322031337,0.0,0.0,0.0,0.0,0.0,0.0,0.0,0.0,0.0,6.40605383023,-0.00701955420153,7.1633006628,0.0,0.0,0.0,0.0,0.0,0.0,0.0,0.0,0.0
26912000000,233,26912000000,imu_link,-0.000416571134099,-0.372534643676,-0.000300850000947,0.928018143798,0.0,0.0,0.0,0.0,0.0,0.0,0.0,0.0,0.0,-0.00219050058812,-0.0109327134306,-0.000378809411978,0.0,0.0,0.0,0.0,0.0,0.0,0.0,0.0,0.0,6.40733667679,-0.00715225621155,7.15929403357,0.0,0.0,0.0,0.0,0.0,0.0,0.0,0.0,0.0
26916000000,234,26916000000,imu_link,-0.000421272411763,-0.3725536463,-0.000303354866312,0.928010512405,0.0,0.0,0.0,0.0,0.0,0.0,0.0,0.0,0.0,-0.00264674108848,-0.0102390544257,-0.000291691778183,0.0,0.0,0.0,0.0,0.0,0.0,0.0,0.0,0.0,6.40786948051,-0.0073113056776,7.15541999686,0.0,0.0,0.0,0.0,0.0,0.0,0.0,0.0,0.0
26920000000,235,26920000000,imu_link,-0.000426559802558,-0.372571444638,-0.000305970678909,0.928003363716,0.0,0.0,0.0,0.0,0.0,0.0,0.0,0.0,0.0,-0.00293944854811,-0.00959040855836,-0.000233665703676,0.0,0.0,0.0,0.0,0.0,0.0,0.0,0.0,0.0,6.40901722867,-0.00744531938859,7.15490633313,0.0,0.0,0.0,0.0,0.0,0.0,0.0,0.0,0.0
26924000000,236,26924000000,imu_link,-0.000432186376932,-0.372588406407,-0.000308592307098,0.927996550315,0.0,0.0,0.0,0.0,0.0,0.0,0.0,0.0,0.0,-0.00309797013341,-0.00913983029619,-0.000172949372162,0.0,0.0,0.0,0.0,0.0,0.0,0.0,0.0,0.0,6.41050941555,-0.00752623765208,7.15730888154,0.0,0.0,0.0,0.0,0.0,0.0,0.0,0.0,0.0
26928000000,237,26928000000,imu_link,-0.000437939405629,-0.372604869501,-0.000311134711091,0.927989936707,0.0,0.0,0.0,0.0,0.0,0.0,0.0,0.0,0.0,-0.00314191948276,-0.00887126231354,-0.000112493187648,0.0,0.0,0.0,0.0,0.0,0.0,0.0,0.0,0.0,6.41129183137,-0.00756656267966,7.15780925634,0.0,0.0,0.0,0.0,0.0,0.0,0.0,0.0,0.0
26932000000,238,26932000000,imu_link,-0.000443826730525,-0.372621044314,-0.000313528567978,0.927983438458,0.0,0.0,0.0,0.0,0.0,0.0,0.0,0.0,0.0,-0.00317657714258,-0.00871606319806,-1.84672972707e-05,0.0,0.0,0.0,0.0,0.0,0.0,0.0,0.0,0.0,6.41248882809,-0.00746527326546,7.15828166722,0.0,0.0,0.0,0.0,0.0,0.0,0.0,0.0,0.0
26936000000,239,26936000000,imu_link,-0.000449944732821,-0.372637119734,-0.000315749241372,0.927976979697,0.0,0.0,0.0,0.0,0.0,0.0,0.0,0.0,0.0,-0.00325135045733,-0.0086626633067,0.000104894282939,0.0,0.0,0.0,0.0,0.0,0.0,0.0,0.0,0.0,6.41408871716,-0.00735554305057,7.15966076182,0.0,0.0,0.0,0.0,0.0,0.0,0.0,0.0,0.0
26940000000,240,26940000000,imu_link,-0.000456200098351,-0.372653304424,-0.000317836221977,0.927970476666,0.0,0.0,0.0,0.0,0.0,0.0,0.0,0.0,0.0,-0.00329016867777,-0.00872166348617,0.000192487946012,0.0,0.0,0.0,0.0,0.0,0.0,0.0,0.0,0.0,6.415123178,-0.00733470785697,7.16014648632,0.0,0.0,0.0,0.0,0.0,0.0,0.0,0.0,0.0
26944000000,241,26944000000,imu_link,-0.000462402607469,-0.372669851125,-0.000319845865465,0.927963827929,0.0,0.0,0.0,0.0,0.0,0.0,0.0,0.0,0.0,-0.00325120982172,-0.008916789022,0.000218416938653,0.0,0.0,0.0,0.0,0.0,0.0,0.0,0.0,0.0,6.41733286548,-0.00731742427101,7.16330892678,0.0,0.0,0.0,0.0,0.0,0.0,0.0,0.0,0.0
26948000000,242,26948000000,imu_link,-0.000468456204757,-0.372686794207,-0.000321768927699,0.927957019714,0.0,0.0,0.0,0.0,0.0,0.0,0.0,0.0,0.0,-0.00316595779568,-0.00913041511503,0.000230724451732,0.0,0.0,0.0,0.0,0.0,0.0,0.0,0.0,0.0,6.41722294732,-0.00726669073146,7.15991944908,0.0,0.0,0.0,0.0,0.0,0.0,0.0,0.0,0.0
26952000000,243,26952000000,imu_link,-0.00047433488223,-0.372704158144,-0.000323599689745,0.927950042185,0.0,0.0,0.0,0.0,0.0,0.0,0.0,0.0,0.0,-0.00306757117912,-0.00935722709179,0.000240828786678,0.0,0.0,0.0,0.0,0.0,0.0,0.0,0.0,0.0,6.41690425646,-0.00718373335983,7.15589784349,0.0,0.0,0.0,0.0,0.0,0.0,0.0,0.0,0.0
26956000000,244,26956000000,imu_link,-0.000479939115442,-0.372722135501,-0.000325326886513,0.927942818027,0.0,0.0,0.0,0.0,0.0,0.0,0.0,0.0,0.0,-0.00292089553375,-0.00968777865175,0.000237551842511,0.0,0.0,0.0,0.0,0.0,0.0,0.0,0.0,0.0,6.4186957556,-0.00711350468911,7.15734977515,0.0,0.0,0.0,0.0,0.0,0.0,0.0,0.0,0.0
26960000000,245,26960000000,imu_link,-0.000485096316059,-0.372741088937,-0.000326973453083,0.927935201611,0.0,0.0,0.0,0.0,0.0,0.0,0.0,0.0,0.0,-0.0026983942182,-0.0102136996588,0.000191354441583,0.0,0.0,0.0,0.0,0.0,0.0,0.0,0.0,0.0,6.42009117759,-0.00704625339155,7.15966154584,0.0,0.0,0.0,0.0,0.0,0.0,0.0,0.0,0.0
26964000000,246,26964000000,imu_link,-0.000489761728852,-0.372761438546,-0.000328588262987,0.927927024122,0.0,0.0,0.0,0.0,0.0,0.0,0.0,0.0,0.0,-0.00246420992566,-0.0109659734389,0.000114003374763,0.0,0.0,0.0,0.0,0.0,0.0,0.0,0.0,0.0,6.42163517297,-0.00694313984247,7.16262142225,0.0,0.0,0.0,0.0,0.0,0.0,0.0,0.0,0.0
26968000000,247,26968000000,imu_link,-0.000493999082868,-0.372783523624,-0.000330209964636,0.927918149106,0.0,0.0,0.0,0.0,0.0,0.0,0.0,0.0,0.0,-0.00226677644463,-0.011901101319,3.04843703994e-05,0.0,0.0,0.0,0.0,0.0,0.0,0.0,0.0,0.0,6.42216747219,-0.00682602936906,7.16264450176,0.0,0.0,0.0,0.0,0.0,0.0,0.0,0.0,0.0
26972000000,248,26972000000,imu_link,-0.000497741323876,-0.372807453239,-0.000331887188387,0.927908532622,0.0,0.0,0.0,0.0,0.0,0.0,0.0,0.0,0.0,-0.00204729173365,-0.0128949990302,-8.81386180495e-05,0.0,0.0,0.0,0.0,0.0,0.0,0.0,0.0,0.0,6.42341358547,-0.00674734936293,7.16213390106,0.0,0.0,0.0,0.0,0.0,0.0,0.0,0.0,0.0
26976000000,249,26976000000,imu_link,-0.000500980474648,-0.372832971133,-0.000333655617047,0.927898277468,0.0,0.0,0.0,0.0,0.0,0.0,0.0,0.0,0.0,-0.0018307771891,-0.013750831735,-0.000224732678606,0.0,0.0,0.0,0.0,0.0,0.0,0.0,0.0,0.0,6.42452703092,-0.00662655992104,7.15814973163,0.0,0.0,0.0,0.0,0.0,0.0,0.0,0.0,0.0
26980000000,250,26980000000,imu_link,-0.000503720354113,-0.37285960774,-0.00033554280224,0.927887572173,0.0,0.0,0.0,0.0,0.0,0.0,0.0,0.0,0.0,-0.00162120499552,-0.0143536587692,-0.000373257395021,0.0,0.0,0.0,0.0,0.0,0.0,0.0,0.0,0.0,6.42595107056,-0.00648812946592,7.15336256248,0.0,0.0,0.0,0.0,0.0,0.0,0.0,0.0,0.0
26984000000,251,26984000000,imu_link,-0.000505907997649,-0.372886613447,-0.000337560265715,0.927876717901,0.0,0.0,0.0,0.0,0.0,0.0,0.0,0.0,0.0,-0.00138926191879,-0.0145525488551,-0.000536770386438,0.0,0.0,0.0,0.0,0.0,0.0,0.0,0.0,0.0,6.42833352683,-0.006334459519,7.14795572087,0.0,0.0,0.0,0.0,0.0,0.0,0.0,0.0,0.0
26988000000,252,26988000000,imu_link,-0.000507455911536,-0.372913342605,-0.000339662534846,0.927865974171,0.0,0.0,0.0,0.0,0.0,0.0,0.0,0.0,0.0,-0.00110829695591,-0.014403507808,-0.000695299683146,0.0,0.0,0.0,0.0,0.0,0.0,0.0,0.0,0.0,6.42938538066,-0.00620785449692,7.14116935688,0.0,0.0,0.0,0.0,0.0,0.0,0.0,0.0,0.0
26992000000,253,26992000000,imu_link,-0.000508580188914,-0.37293947557,-0.00034182944629,0.927855469381,0.0,0.0,0.0,0.0,0.0,0.0,0.0,0.0,0.0,-0.000923851621718,-0.014082273906,-0.000804087387294,0.0,0.0,0.0,0.0,0.0,0.0,0.0,0.0,0.0,6.42873895074,-0.00603157985001,7.13421184438,0.0,0.0,0.0,0.0,0.0,0.0,0.0,0.0,0.0
26996000000,254,26996000000,imu_link,-0.000509603959292,-0.372964881078,-0.000344086321814,0.927845256166,0.0,0.0,0.0,0.0,0.0,0.0,0.0,0.0,0.0,-0.000894049403955,-0.0136903763808,-0.000864330913734,0.0,0.0,0.0,0.0,0.0,0.0,0.0,0.0,0.0,6.42866126314,-0.00587487567076,7.13024662072,0.0,0.0,0.0,0.0,0.0,0.0,0.0,0.0,0.0
27000000000,255,27000000000,imu_link,-0.000510748451723,-0.372989417638,-0.000346459661639,0.927835391345,0.0,0.0,0.0,0.0,0.0,0.0,0.0,0.0,0.0,-0.000971834368354,-0.0132222734721,-0.000895567446397,0.0,0.0,0.0,0.0,0.0,0.0,0.0,0.0,0.0,6.42930821382,-0.00576426482,7.12753416711,0.0,0.0,0.0,0.0,0.0,0.0,0.0,0.0,0.0
27004000000,256,27004000000,imu_link,-0.000512086209347,-0.37301298478,-0.000348967616156,0.927825915339,0.0,0.0,0.0,0.0,0.0,0.0,0.0,0.0,0.0,-0.00108666707754,-0.0127000300597,-0.000921659729653,0.0,0.0,0.0,0.0,0.0,0.0,0.0,0.0,0.0,6.42942472725,-0.00573651423014,7.12374966953,0.0,0.0,0.0,0.0,0.0,0.0,0.0,0.0,0.0
27008000000,257,27008000000,imu_link,-0.000513655454023,-0.373035554867,-0.000351621455767,0.92781683932,0.0,0.0,0.0,0.0,0.0,0.0,0.0,0.0,0.0,-0.00122133699392,-0.0121628868335,-0.000945838796825,0.0,0.0,0.0,0.0,0.0,0.0,0.0,0.0,0.0,6.42909372058,-0.00572166837302,7.11976717881,0.0,0.0,0.0,0.0,0.0,0.0,0.0,0.0,0.0
27012000000,258,27012000000,imu_link,-0.000515430301239,-0.37305700565,-0.000354412573051,0.927808212541,0.0,0.0,0.0,0.0,0.0,0.0,0.0,0.0,0.0,-0.00134240387819,-0.0115598418354,-0.000970808086855,0.0,0.0,0.0,0.0,0.0,0.0,0.0,0.0,0.0,6.42914839415,-0.00573275153065,7.115698736,0.0,0.0,0.0,0.0,0.0,0.0,0.0,0.0,0.0
27016000000,259,27016000000,imu_link,-0.000517250893837,-0.373077214654,-0.000357291110052,0.927800084448,0.0,0.0,0.0,0.0,0.0,0.0,0.0,0.0,0.0,-0.00138002314961,-0.0108907414867,-0.00100242123891,0.0,0.0,0.0,0.0,0.0,0.0,0.0,0.0,0.0,6.42991610505,-0.0057678187808,7.11298655124,0.0,0.0,0.0,0.0,0.0,0.0,0.0,0.0,0.0
27020000000,260,27020000000,imu_link,-0.000518752217654,-0.373095962609,-0.000360191189081,0.927792543537,0.0,0.0,0.0,0.0,0.0,0.0,0.0,0.0,0.0,-0.00123604191805,-0.0101033663023,-0.00107148777882,0.0,0.0,0.0,0.0,0.0,0.0,0.0,0.0,0.0,6.43130525508,-0.00580612343664,7.11062365084,0.0,0.0,0.0,0.0,0.0,0.0,0.0,0.0,0.0
27024000000,261,27024000000,imu_link,-0.000519453216636,-0.373113296984,-0.000363044792091,0.927785571121,0.0,0.0,0.0,0.0,0.0,0.0,0.0,0.0,0.0,-0.00085621132872,-0.00934142845491,-0.00119875767675,0.0,0.0,0.0,0.0,0.0,0.0,0.0,0.0,0.0,6.43282066213,-0.00572489827578,7.11118374426,0.0,0.0,0.0,0.0,0.0,0.0,0.0,0.0,0.0
27028000000,262,27028000000,imu_link,-0.000519318278736,-0.373129474767,-0.000365854503599,0.927779063958,0.0,0.0,0.0,0.0,0.0,0.0,0.0,0.0,0.0,-0.000460327097495,-0.00871795699826,-0.00133396145731,0.0,0.0,0.0,0.0,0.0,0.0,0.0,0.0,0.0,6.43377445909,-0.00549906677082,7.11253698822,0.0,0.0,0.0,0.0,0.0,0.0,0.0,0.0,0.0
27032000000,263,27032000000,imu_link,-0.000518700878327,-0.373144998486,-0.000368688156983,0.92777281978,0.0,0.0,0.0,0.0,0.0,0.0,0.0,0.0,0.0,-0.000241035859594,-0.00836538542321,-0.00143486039331,0.0,0.0,0.0,0.0,0.0,0.0,0.0,0.0,0.0,6.43497078011,-0.00528494410983,7.11630379892,0.0,0.0,0.0,0.0,0.0,0.0,0.0,0.0,0.0
27036000000,264,27036000000,imu_link,-0.000518051996314,-0.373160318436,-0.000371593953353,0.927766657239,0.0,0.0,0.0,0.0,0.0,0.0,0.0,0.0,0.0,-0.000239908259265,-0.00825560393503,-0.00147413224837,0.0,0.0,0.0,0.0,0.0,0.0,0.0,0.0,0.0,6.43533085756,-0.0051175838708,7.11808197219,0.0,0.0,0.0,0.0,0.0,0.0,0.0,0.0,0.0
27040000000,265,27040000000,imu_link,-0.000517792101528,-0.373175829529,-0.000374565783896,0.927760417267,0.0,0.0,0.0,0.0,0.0,0.0,0.0,0.0,0.0,-0.000432658158378,-0.00835877451699,-0.0014322509996,0.0,0.0,0.0,0.0,0.0,0.0,0.0,0.0,0.0,6.43735534016,-0.00502177314749,7.12242894884,0.0,0.0,0.0,0.0,0.0,0.0,0.0,0.0,0.0
27044000000,266,27044000000,imu_link,-0.000518185593743,-0.373191763033,-0.000377574716682,0.927754006688,0.0,0.0,0.0,0.0,0.0,0.0,0.0,0.0,0.0,-0.000742639345997,-0.00858666821047,-0.00132768918995,0.0,0.0,0.0,0.0,0.0,0.0,0.0,0.0,0.0,6.43759271772,-0.00501017655312,7.12172384436,0.0,0.0,0.0,0.0,0.0,0.0,0.0,0.0,0.0
27048000000,267,27048000000,imu_link,-0.000519367051001,-0.373208399615,-0.000380635874774,0.927747312489,0.0,0.0,0.0,0.0,0.0,0.0,0.0,0.0,0.0,-0.00111784398733,-0.00896586777161,-0.00120511998291,0.0,0.0,0.0,0.0,0.0,0.0,0.0,0.0,0.0,6.43851681436,-0.00504942342974,7.12212816776,0.0,0.0,0.0,0.0,0.0,0.0,0.0,0.0,0.0
27052000000,268,27052000000,imu_link,-0.000521377694741,-0.373225877641,-0.000383786158166,0.927740278921,0.0,0.0,0.0,0.0,0.0,0.0,0.0,0.0,0.0,-0.00151904089455,-0.00941965398237,-0.00109201627877,0.0,0.0,0.0,0.0,0.0,0.0,0.0,0.0,0.0,6.43873988224,-0.00512645631337,7.11998186768,0.0,0.0,0.0,0.0,0.0,0.0,0.0,0.0,0.0
27056000000,269,27056000000,imu_link,-0.000524206293312,-0.373244378449,-0.000387082305316,0.927732832949,0.0,0.0,0.0,0.0,0.0,0.0,0.0,0.0,0.0,-0.00192559702565,-0.00997117050703,-0.00100738293103,0.0,0.0,0.0,0.0,0.0,0.0,0.0,0.0,0.0,6.44084993055,-0.00520926509563,7.12206343853,0.0,0.0,0.0,0.0,0.0,0.0,0.0,0.0,0.0
27060000000,270,27060000000,imu_link,-0.000527879621051,-0.373264134641,-0.000390543102857,0.927724880883,0.0,0.0,0.0,0.0,0.0,0.0,0.0,0.0,0.0,-0.00234805561407,-0.0106480695654,-0.000926540501307,0.0,0.0,0.0,0.0,0.0,0.0,0.0,0.0,0.0,6.44266031673,-0.00528627360957,7.12374144938,0.0,0.0,0.0,0.0,0.0,0.0,0.0,0.0,0.0
27064000000,271,27064000000,imu_link,-0.000532479489335,-0.373285272522,-0.0003941543992,0.927716371757,0.0,0.0,0.0,0.0,0.0,0.0,0.0,0.0,0.0,-0.00280580810128,-0.0113930902995,-0.000823902526669,0.0,0.0,0.0,0.0,0.0,0.0,0.0,0.0,0.0,6.44317066357,-0.00536341547427,7.12202210817,0.0,0.0,0.0,0.0,0.0,0.0,0.0,0.0,0.0
27068000000,272,27068000000,imu_link,-0.000538025287014,-0.373307741955,-0.000397883944518,0.927707325623,0.0,0.0,0.0,0.0,0.0,0.0,0.0,0.0,0.0,-0.00326653604943,-0.0121111243644,-0.000702662869203,0.0,0.0,0.0,0.0,0.0,0.0,0.0,0.0,0.0,6.44433341286,-0.00540235256296,7.12007302627,0.0,0.0,0.0,0.0,0.0,0.0,0.0,0.0,0.0
27072000000,273,27072000000,imu_link,-0.000544370968367,-0.373331043807,-0.00040170701722,0.92769794331,0.0,0.0,0.0,0.0,0.0,0.0,0.0,0.0,0.0,-0.00365494710293,-0.0125601285151,-0.000597035316547,0.0,0.0,0.0,0.0,0.0,0.0,0.0,0.0,0.0,6.44593559349,-0.00546310743594,7.11529268581,0.0,0.0,0.0,0.0,0.0,0.0,0.0,0.0,0.0
27076000000,274,27076000000,imu_link,-0.000551061576657,-0.37335455604,-0.000405586078963,0.92768847536,0.0,0.0,0.0,0.0,0.0,0.0,0.0,0.0,0.0,-0.00382537338541,-0.012673752824,-0.000558694271844,0.0,0.0,0.0,0.0,0.0,0.0,0.0,0.0,0.0,6.4497745558,-0.00557575786809,7.11428718689,0.0,0.0,0.0,0.0,0.0,0.0,0.0,0.0,0.0
27080000000,275,27080000000,imu_link,-0.000557716710066,-0.37337785234,-0.000409503879107,0.927679093566,0.0,0.0,0.0,0.0,0.0,0.0,0.0,0.0,0.0,-0.00381617019634,-0.0125574926604,-0.000583208242234,0.0,0.0,0.0,0.0,0.0,0.0,0.0,0.0,0.0,6.45246802657,-0.00560873995852,7.1129025435,0.0,0.0,0.0,0.0,0.0,0.0,0.0,0.0,0.0
27084000000,276,27084000000,imu_link,-0.000563956609062,-0.373400763854,-0.000413458692528,0.927669866148,0.0,0.0,0.0,0.0,0.0,0.0,0.0,0.0,0.0,-0.00363051376012,-0.0123500977707,-0.000677757221109,0.0,0.0,0.0,0.0,0.0,0.0,0.0,0.0,0.0,6.45403726513,-0.00558354801847,7.11218484328,0.0,0.0,0.0,0.0,0.0,0.0,0.0,0.0,0.0
27088000000,277,27088000000,imu_link,-0.000569408272214,-0.373423302188,-0.000417437033231,0.927660788707,0.0,0.0,0.0,0.0,0.0,0.0,0.0,0.0,0.0,-0.0032693298494,-0.0121488333907,-0.000835697695418,0.0,0.0,0.0,0.0,0.0,0.0,0.0,0.0,0.0,6.45425992147,-0.00549718059187,7.1103350551,0.0,0.0,0.0,0.0,0.0,0.0,0.0,0.0,0.0
27092000000,278,27092000000,imu_link,-0.00057397314841,-0.373445478982,-0.00042143040517,0.927651856668,0.0,0.0,0.0,0.0,0.0,0.0,0.0,0.0,0.0,-0.00286085167588,-0.0119538030128,-0.0010081098171,0.0,0.0,0.0,0.0,0.0,0.0,0.0,0.0,0.0,6.4541895313,-0.00529433766322,7.10753511544,0.0,0.0,0.0,0.0,0.0,0.0,0.0,0.0,0.0
27096000000,279,27096000000,imu_link,-0.000577495216083,-0.373467189087,-0.00042541269159,0.927643112516,0.0,0.0,0.0,0.0,0.0,0.0,0.0,0.0,0.0,-0.00237514454351,-0.0117020405666,-0.00119751060605,0.0,0.0,0.0,0.0,0.0,0.0,0.0,0.0,0.0,6.45457986869,-0.00512187903832,7.10449436425,0.0,0.0,0.0,0.0,0.0,0.0,0.0,0.0,0.0
27100000000,280,27100000000,imu_link,-0.000579766759986,-0.373487983352,-0.000429341156387,0.927634737291,0.0,0.0,0.0,0.0,0.0,0.0,0.0,0.0,0.0,-0.00178516263569,-0.0112081133717,-0.00140571885568,0.0,0.0,0.0,0.0,0.0,0.0,0.0,0.0,0.0,6.45605056472,-0.00494043133383,7.10056809411,0.0,0.0,0.0,0.0,0.0,0.0,0.0,0.0,0.0
27104000000,281,27104000000,imu_link,-0.000580604503074,-0.373507236836,-0.000433170787939,0.92762698284,0.0,0.0,0.0,0.0,0.0,0.0,0.0,0.0,0.0,-0.00110183520747,-0.0103772671226,-0.00162705205894,0.0,0.0,0.0,0.0,0.0,0.0,0.0,0.0,0.0,6.45809495363,-0.00474184072335,7.09632137843,0.0,0.0,0.0,0.0,0.0,0.0,0.0,0.0,0.0
27108000000,282,27108000000,imu_link,-0.00058014542144,-0.373524620075,-0.000436903943574,0.927619981859,0.0,0.0,0.0,0.0,0.0,0.0,0.0,0.0,0.0,-0.000482519512365,-0.00936885577917,-0.00182378580938,0.0,0.0,0.0,0.0,0.0,0.0,0.0,0.0,0.0,6.45782995496,-0.00448337723527,7.09035036842,0.0,0.0,0.0,0.0,0.0,0.0,0.0,0.0,0.0
27112000000,283,27112000000,imu_link,-0.000578832434213,-0.373540199806,-0.000440596431409,0.927613707292,0.0,0.0,0.0,0.0,0.0,0.0,0.0,0.0,0.0,-7.9057621377e-05,-0.00839652966007,-0.00196371922314,0.0,0.0,0.0,0.0,0.0,0.0,0.0,0.0,0.0,6.45955171882,-0.00416238508387,7.09140873885,0.0,0.0,0.0,0.0,0.0,0.0,0.0,0.0,0.0
27116000000,284,27116000000,imu_link,-0.000577317101218,-0.373554368185,-0.000444340386258,0.927608000869,0.0,0.0,0.0,0.0,0.0,0.0,0.0,0.0,0.0,5.03274454771e-06,-0.00763576336057,-0.0020248484875,0.0,0.0,0.0,0.0,0.0,0.0,0.0,0.0,0.0,6.46195770727,-0.00382805260273,7.09679178941,0.0,0.0,0.0,0.0,0.0,0.0,0.0,0.0,0.0
27120000000,285,27120000000,imu_link,-0.000576183468278,-0.373567556769,-0.000448235495283,0.927602688454,0.0,0.0,0.0,0.0,0.0,0.0,0.0,0.0,0.0,-0.000200337366616,-0.0071077794899,-0.00202329117415,0.0,0.0,0.0,0.0,0.0,0.0,0.0,0.0,0.0,6.464065956,-0.00360499509125,7.10203630234,0.0,0.0,0.0,0.0,0.0,0.0,0.0,0.0,0.0
27124000000,286,27124000000,imu_link,-0.000575786527836,-0.373580249244,-0.000452323499313,0.927597575055,0.0,0.0,0.0,0.0,0.0,0.0,0.0,0.0,0.0,-0.000578099847287,-0.00684062031101,-0.00197496640096,0.0,0.0,0.0,0.0,0.0,0.0,0.0,0.0,0.0,6.4659578963,-0.00357543834922,7.10715176453,0.0,0.0,0.0,0.0,0.0,0.0,0.0,0.0,0.0
27128000000,287,27128000000,imu_link,-0.000576307148574,-0.373592952982,-0.000456601655747,0.927592456237,0.0,0.0,0.0,0.0,0.0,0.0,0.0,0.0,0.0,-0.00103918121433,-0.00684700916923,-0.00189177195611,0.0,0.0,0.0,0.0,0.0,0.0,0.0,0.0,0.0,6.46776957157,-0.00362108959187,7.11216483615,0.0,0.0,0.0,0.0,0.0,0.0,0.0,0.0,0.0
27132000000,288,27132000000,imu_link,-0.000577712582433,-0.373606046883,-0.000461005045544,0.927587179436,0.0,0.0,0.0,0.0,0.0,0.0,0.0,0.0,0.0,-0.00147290380193,-0.007057641784,-0.0017847232384,0.0,0.0,0.0,0.0,0.0,0.0,0.0,0.0,0.0,6.46918371557,-0.00372751031885,7.1151479634,0.0,0.0,0.0,0.0,0.0,0.0,0.0,0.0,0.0
27136000000,289,27136000000,imu_link,-0.000580172364141,-0.373619836371,-0.00046549200152,0.927581621523,0.0,0.0,0.0,0.0,0.0,0.0,0.0,0.0,0.0,-0.00197743485732,-0.00743298162635,-0.00162679105241,0.0,0.0,0.0,0.0,0.0,0.0,0.0,0.0,0.0,6.47040613035,-0.00378026339535,7.11699446822,0.0,0.0,0.0,0.0,0.0,0.0,0.0,0.0,0.0
27140000000,290,27140000000,imu_link,-0.000583675540956,-0.373634558137,-0.000469981200338,0.927575687158,0.0,0.0,0.0,0.0,0.0,0.0,0.0,0.0,0.0,-0.00246166312477,-0.00793593147979,-0.00143327276622,0.0,0.0,0.0,0.0,0.0,0.0,0.0,0.0,0.0,6.4722686017,-0.00390474860862,7.11927352074,0.0,0.0,0.0,0.0,0.0,0.0,0.0,0.0,0.0
27144000000,291,27144000000,imu_link,-0.000587984738346,-0.373650401451,-0.000474409669759,0.927569300217,0.0,0.0,0.0,0.0,0.0,0.0,0.0,0.0,0.0,-0.00282400889384,-0.00854084731424,-0.0012549623004,0.0,0.0,0.0,0.0,0.0,0.0,0.0,0.0,0.0,6.47298746569,-0.00405379292719,7.11871264585,0.0,0.0,0.0,0.0,0.0,0.0,0.0,0.0,0.0
27148000000,292,27148000000,imu_link,-0.000592835126401,-0.373667395404,-0.000478761730252,0.927562449081,0.0,0.0,0.0,0.0,0.0,0.0,0.0,0.0,0.0,-0.00306059323695,-0.0091613704313,-0.00111886534618,0.0,0.0,0.0,0.0,0.0,0.0,0.0,0.0,0.0,6.47302350798,-0.00416276404698,7.11564850776,0.0,0.0,0.0,0.0,0.0,0.0,0.0,0.0,0.0
27152000000,293,27152000000,imu_link,-0.000598005013836,-0.373685651481,-0.000482996243512,0.92755508892,0.0,0.0,0.0,0.0,0.0,0.0,0.0,0.0,0.0,-0.00318665802175,-0.0098419344596,-0.00100515186304,0.0,0.0,0.0,0.0,0.0,0.0,0.0,0.0,0.0,6.47459731828,-0.00423502177777,7.11630876312,0.0,0.0,0.0,0.0,0.0,0.0,0.0,0.0,0.0
27156000000,294,27156000000,imu_link,-0.000603371743049,-0.373705414851,-0.000487103051631,0.927547120951,0.0,0.0,0.0,0.0,0.0,0.0,0.0,0.0,0.0,-0.00325390575655,-0.0106546331946,-0.000909744080466,0.0,0.0,0.0,0.0,0.0,0.0,0.0,0.0,0.0,6.47573008717,-0.00426420150085,7.11722315761,0.0,0.0,0.0,0.0,0.0,0.0,0.0,0.0,0.0
27160000000,295,27160000000,imu_link,-0.000608930247236,-0.373726687762,-0.000491099634738,0.927538544148,0.0,0.0,0.0,0.0,0.0,0.0,0.0,0.0,0.0,-0.00332206610338,-0.0114685604109,-0.000823394651324,0.0,0.0,0.0,0.0,0.0,0.0,0.0,0.0,0.0,6.47708700861,-0.00418621994886,7.11660398803,0.0,0.0,0.0,0.0,0.0,0.0,0.0,0.0,0.0
27164000000,296,27164000000,imu_link,-0.000614756430574,-0.373749094941,-0.000495020531601,0.927529509536,0.0,0.0,0.0,0.0,0.0,0.0,0.0,0.0,0.0,-0.00343192535085,-0.0120802357765,-0.000738732035261,0.0,0.0,0.0,0.0,0.0,0.0,0.0,0.0,0.0,6.47917474288,-0.00407182955765,7.11424887131,0.0,0.0,0.0,0.0,0.0,0.0,0.0,0.0,0.0
27168000000,297,27168000000,imu_link,-0.000621056992081,-0.373771959537,-0.000498887736572,0.927520289623,0.0,0.0,0.0,0.0,0.0,0.0,0.0,0.0,0.0,-0.00364183532033,-0.0123271318676,-0.00062536888697,0.0,0.0,0.0,0.0,0.0,0.0,0.0,0.0,0.0,6.48098436603,-0.00399262747185,7.10903795398,0.0,0.0,0.0,0.0,0.0,0.0,0.0,0.0,0.0
27172000000,298,27172000000,imu_link,-0.000628086226902,-0.373794544968,-0.0005027333919,0.927511181021,0.0,0.0,0.0,0.0,0.0,0.0,0.0,0.0,0.0,-0.00397577270698,-0.0121770516001,-0.000479081739908,0.0,0.0,0.0,0.0,0.0,0.0,0.0,0.0,0.0,6.48299672641,-0.00395647057181,7.10385638569,0.0,0.0,0.0,0.0,0.0,0.0,0.0,0.0,0.0
27176000000,299,27176000000,imu_link,-0.000635838615571,-0.373816269486,-0.000506559163463,0.927502418204,0.0,0.0,0.0,0.0,0.0,0.0,0.0,0.0,0.0,-0.00430753093885,-0.0117133606435,-0.000334347768809,0.0,0.0,0.0,0.0,0.0,0.0,0.0,0.0,0.0,6.48415990746,-0.0040087757654,7.0984849533,0.0,0.0,0.0,0.0,0.0,0.0,0.0,0.0,0.0
27180000000,300,27180000000,imu_link,-0.000644248803173,-0.373836772454,-0.000510388080802,0.927494146617,0.0,0.0,0.0,0.0,0.0,0.0,0.0,0.0,0.0,-0.00461332718237,-0.0110552158972,-0.000212345881474,0.0,0.0,0.0,0.0,0.0,0.0,0.0,0.0,0.0,6.48528987582,-0.0040643166504,7.09516672937,0.0,0.0,0.0,0.0,0.0,0.0,0.0,0.0,0.0
27184000000,301,27184000000,imu_link,-0.000653227254264,-0.373856035195,-0.000514238262286,0.927486373917,0.0,0.0,0.0,0.0,0.0,0.0,0.0,0.0,0.0,-0.00488098816694,-0.0103869512758,-0.00011546135199,0.0,0.0,0.0,0.0,0.0,0.0,0.0,0.0,0.0,6.48480329013,-0.00409841112021,7.09155035673,0.0,0.0,0.0,0.0,0.0,0.0,0.0,0.0,0.0
27188000000,302,27188000000,imu_link,-0.000662681560606,-0.373874384656,-0.000518162583237,0.927478968418,0.0,0.0,0.0,0.0,0.0,0.0,0.0,0.0,0.0,-0.00511563642963,-0.00989488216895,-6.04996414846e-05,0.0,0.0,0.0,0.0,0.0,0.0,0.0,0.0,0.0,6.4862172514,-0.00414627824673,7.09470470311,0.0,0.0,0.0,0.0,0.0,0.0,0.0,0.0,0.0
27192000000,303,27192000000,imu_link,-0.000672472032476,-0.373892083544,-0.000522198236827,0.927471824345,0.0,0.0,0.0,0.0,0.0,0.0,0.0,0.0,0.0,-0.00529242379993,-0.00954436552248,-4.90038506592e-05,0.0,0.0,0.0,0.0,0.0,0.0,0.0,0.0,0.0,6.4867996035,-0.00418562265066,7.09552690765,0.0,0.0,0.0,0.0,0.0,0.0,0.0,0.0,0.0
27196000000,304,27196000000,imu_link,-0.000682217031349,-0.373909483987,-0.000526277785181,0.927464800085,0.0,0.0,0.0,0.0,0.0,0.0,0.0,0.0,0.0,-0.00527957992904,-0.00938354048911,-7.77287945042e-05,0.0,0.0,0.0,0.0,0.0,0.0,0.0,0.0,0.0,6.48768789769,-0.00425555456011,7.09750579621,0.0,0.0,0.0,0.0,0.0,0.0,0.0,0.0,0.0
27200000000,305,27200000000,imu_link,-0.000691772525768,-0.373926893774,-0.000530351079238,0.927457771702,0.0,0.0,0.0,0.0,0.0,0.0,0.0,0.0,0.0,-0.00519053024985,-0.00938859675912,-0.000110261502762,0.0,0.0,0.0,0.0,0.0,0.0,0.0,0.0,0.0,6.48819387208,-0.00423721141957,7.09795772332,0.0,0.0,0.0,0.0,0.0,0.0,0.0,0.0,0.0
27204000000,306,27204000000,imu_link,-0.00070126391979,-0.373944653332,-0.000534404759534,0.927450601857,0.0,0.0,0.0,0.0,0.0,0.0,0.0,0.0,0.0,-0.00515709416784,-0.00957723376727,-0.00011330895995,0.0,0.0,0.0,0.0,0.0,0.0,0.0,0.0,0.0,6.48939876703,-0.00406723790328,7.10018238434,0.0,0.0,0.0,0.0,0.0,0.0,0.0,0.0,0.0
27208000000,307,27208000000,imu_link,-0.000710942766707,-0.373962782625,-0.000538479336371,0.927443282261,0.0,0.0,0.0,0.0,0.0,0.0,0.0,0.0,0.0,-0.00524788160555,-0.0097767315201,-8.81203656685e-05,0.0,0.0,0.0,0.0,0.0,0.0,0.0,0.0,0.0,6.49012254539,-0.00383763429571,7.09885611114,0.0,0.0,0.0,0.0,0.0,0.0,0.0,0.0,0.0
27212000000,308,27212000000,imu_link,-0.000720940395574,-0.37398116038,-0.000542628953166,0.927435861653,0.0,0.0,0.0,0.0,0.0,0.0,0.0,0.0,0.0,-0.00540970778214,-0.00991089515234,-6.34272428494e-05,0.0,0.0,0.0,0.0,0.0,0.0,0.0,0.0,0.0,6.49108435705,-0.00368232329943,7.09690344342,0.0,0.0,0.0,0.0,0.0,0.0,0.0,0.0,0.0
27216000000,309,27216000000,imu_link,-0.000731112223901,-0.373999314484,-0.000546873691017,0.927428530492,0.0,0.0,0.0,0.0,0.0,0.0,0.0,0.0,0.0,-0.00550830237365,-0.00979047091325,-7.4858036074e-05,0.0,0.0,0.0,0.0,0.0,0.0,0.0,0.0,0.0,6.49294374579,-0.00363043161318,7.0938543326,0.0,0.0,0.0,0.0,0.0,0.0,0.0,0.0,0.0
27220000000,310,27220000000,imu_link,-0.000741198441977,-0.374016869602,-0.000551188607734,0.927421440376,0.0,0.0,0.0,0.0,0.0,0.0,0.0,0.0,0.0,-0.00548180277118,-0.00946758862689,-0.000123125191751,0.0,0.0,0.0,0.0,0.0,0.0,0.0,0.0,0.0,6.49420895377,-0.00360483923151,7.09069662817,0.0,0.0,0.0,0.0,0.0,0.0,0.0,0.0,0.0
27224000000,311,27224000000,imu_link,-0.000750955210168,-0.374033618516,-0.000555540799326,0.927414675138,0.0,0.0,0.0,0.0,0.0,0.0,0.0,0.0,0.0,-0.00533610583022,-0.0090328835343,-0.000201631545027,0.0,0.0,0.0,0.0,0.0,0.0,0.0,0.0,0.0,6.49504402,-0.00355424157985,7.08829299883,0.0,0.0,0.0,0.0,0.0,0.0,0.0,0.0,0.0
27228000000,312,27228000000,imu_link,-0.000760362328425,-0.374049527916,-0.000559927091471,0.92740824829,0.0,0.0,0.0,0.0,0.0,0.0,0.0,0.0,0.0,-0.00518045410058,-0.00858020013296,-0.000282425422852,0.0,0.0,0.0,0.0,0.0,0.0,0.0,0.0,0.0,6.49480081387,-0.00341941903691,7.08508947453,0.0,0.0,0.0,0.0,0.0,0.0,0.0,0.0,0.0
27232000000,313,27232000000,imu_link,-0.000769726511685,-0.374064590122,-0.000564373503366,0.927402162721,0.0,0.0,0.0,0.0,0.0,0.0,0.0,0.0,0.0,-0.00517189628269,-0.00812349046459,-0.00031791547427,0.0,0.0,0.0,0.0,0.0,0.0,0.0,0.0,0.0,6.49549896157,-0.00326706001238,7.08411007981,0.0,0.0,0.0,0.0,0.0,0.0,0.0,0.0,0.0
27236000000,314,27236000000,imu_link,-0.000779530219004,-0.374079022425,-0.000568916894961,0.927396330405,0.0,0.0,0.0,0.0,0.0,0.0,0.0,0.0,0.0,-0.00539392268354,-0.00778412362254,-0.000280365981025,0.0,0.0,0.0,0.0,0.0,0.0,0.0,0.0,0.0,6.49695720461,-0.00313829641815,7.08651091713,0.0,0.0,0.0,0.0,0.0,0.0,0.0,0.0,0.0
27240000000,315,27240000000,imu_link,-0.000790030588788,-0.374093341901,-0.000573593282609,0.927390542537,0.0,0.0,0.0,0.0,0.0,0.0,0.0,0.0,0.0,-0.00574185407664,-0.00772363914565,-0.000211675980585,0.0,0.0,0.0,0.0,0.0,0.0,0.0,0.0,0.0,6.49755415029,-0.00312036388428,7.0891795328,0.0,0.0,0.0,0.0,0.0,0.0,0.0,0.0,0.0
27244000000,316,27244000000,imu_link,-0.00080104566141,-0.374108190644,-0.000578366684448,0.927384540259,0.0,0.0,0.0,0.0,0.0,0.0,0.0,0.0,0.0,-0.00599859843393,-0.00800927176275,-0.000160658110127,0.0,0.0,0.0,0.0,0.0,0.0,0.0,0.0,0.0,6.4998148693,-0.00322143147499,7.09582685073,0.0,0.0,0.0,0.0,0.0,0.0,0.0,0.0,0.0
27248000000,317,27248000000,imu_link,-0.0008118378241,-0.374123834638,-0.00058315013363,0.927378216916,0.0,0.0,0.0,0.0,0.0,0.0,0.0,0.0,0.0,-0.00589701483845,-0.00843801103426,-0.000207424563727,0.0,0.0,0.0,0.0,0.0,0.0,0.0,0.0,0.0,6.50106736009,-0.00336639326746,7.09740563139,0.0,0.0,0.0,0.0,0.0,0.0,0.0,0.0,0.0
27252000000,318,27252000000,imu_link,-0.000821473060066,-0.37414029149,-0.000587853650378,0.927371566253,0.0,0.0,0.0,0.0,0.0,0.0,0.0,0.0,0.0,-0.00534550405953,-0.00887584891866,-0.00038720308903,0.0,0.0,0.0,0.0,0.0,0.0,0.0,0.0,0.0,6.50348503154,-0.00336308650712,7.09967113138,0.0,0.0,0.0,0.0,0.0,0.0,0.0,0.0,0.0
27256000000,319,27256000000,imu_link,-0.000829325965106,-0.374157451236,-0.000592440442496,0.927364633204,0.0,0.0,0.0,0.0,0.0,0.0,0.0,0.0,0.0,-0.00449713624102,-0.00925412111098,-0.000666872148707,0.0,0.0,0.0,0.0,0.0,0.0,0.0,0.0,0.0,6.50463065781,-0.00314511367416,7.09837559786,0.0,0.0,0.0,0.0,0.0,0.0,0.0,0.0,0.0
27260000000,320,27260000000,imu_link,-0.000835296973732,-0.374175220455,-0.000596915411095,0.927357455552,0.0,0.0,0.0,0.0,0.0,0.0,0.0,0.0,0.0,-0.00360353524013,-0.00958197148622,-0.000967409525363,0.0,0.0,0.0,0.0,0.0,0.0,0.0,0.0,0.0,6.50461353641,-0.00279936808073,7.09460473924,0.0,0.0,0.0,0.0,0.0,0.0,0.0,0.0,0.0
27264000000,321,27264000000,imu_link,-0.000839402501696,-0.374193637368,-0.000601265164783,0.927350017866,0.0,0.0,0.0,0.0,0.0,0.0,0.0,0.0,0.0,-0.00271504067492,-0.00993043866698,-0.0012587064717,0.0,0.0,0.0,0.0,0.0,0.0,0.0,0.0,0.0,6.50472935615,-0.0024545099437,7.09224091373,0.0,0.0,0.0,0.0,0.0,0.0,0.0,0.0,0.0
27268000000,322,27268000000,imu_link,-0.000841531582728,-0.37421280753,-0.000605478628163,0.927342277641,0.0,0.0,0.0,0.0,0.0,0.0,0.0,0.0,0.0,-0.00177301266754,-0.010335768137,-0.00156570608774,0.0,0.0,0.0,0.0,0.0,0.0,0.0,0.0,0.0,6.50408254021,-0.00215511737235,7.08909859302,0.0,0.0,0.0,0.0,0.0,0.0,0.0,0.0,0.0
27272000000,323,27272000000,imu_link,-0.000841516939343,-0.374232895882,-0.000609520851754,0.927334168449,0.0,0.0,0.0,0.0,0.0,0.0,0.0,0.0,0.0,-0.000746866741163,-0.0108299654739,-0.00188790974986,0.0,0.0,0.0,0.0,0.0,0.0,0.0,0.0,0.0,6.50472709129,-0.00184474450563,7.08879331769,0.0,0.0,0.0,0.0,0.0,0.0,0.0,0.0,0.0
27276000000,324,27276000000,imu_link,-0.000839360632397,-0.374253785138,-0.000613410585479,0.927325737544,0.0,0.0,0.0,0.0,0.0,0.0,0.0,0.0,0.0,0.000274794239976,-0.0112609276497,-0.00221838072951,0.0,0.0,0.0,0.0,0.0,0.0,0.0,0.0,0.0,6.50514151023,-0.00149620440822,7.08580032112,0.0,0.0,0.0,0.0,0.0,0.0,0.0,0.0,0.0
27280000000,325,27280000000,imu_link,-0.000835184788952,-0.374275122702,-0.000617160916536,0.927317127042,0.0,0.0,0.0,0.0,0.0,0.0,0.0,0.0,0.0,0.00123732644033,-0.0115018380482,-0.00253189770713,0.0,0.0,0.0,0.0,0.0,0.0,0.0,0.0,0.0,6.50650656768,-0.00116547473608,7.08238436566,0.0,0.0,0.0,0.0,0.0,0.0,0.0,0.0,0.0
27284000000,326,27284000000,imu_link,-0.000829235952505,-0.37429641114,-0.000620768700479,0.927308537447,0.0,0.0,0.0,0.0,0.0,0.0,0.0,0.0,0.0,0.0020860593194,-0.0114746599695,-0.00279757113758,0.0,0.0,0.0,0.0,0.0,0.0,0.0,0.0,0.0,6.50938114867,-0.000854804802628,7.08077139934,0.0,0.0,0.0,0.0,0.0,0.0,0.0,0.0,0.0
27288000000,327,27288000000,imu_link,-0.000822184089854,-0.374317321308,-0.000624270458517,0.927300100975,0.0,0.0,0.0,0.0,0.0,0.0,0.0,0.0,0.0,0.00261727076448,-0.0112703187781,-0.00295463678498,0.0,0.0,0.0,0.0,0.0,0.0,0.0,0.0,0.0,6.51133798096,-0.000527252713142,7.07933888059,0.0,0.0,0.0,0.0,0.0,0.0,0.0,0.0,0.0
27292000000,328,27292000000,imu_link,-0.00081461912547,-0.374337720564,-0.00062771800586,0.927291870626,0.0,0.0,0.0,0.0,0.0,0.0,0.0,0.0,0.0,0.00286524167134,-0.010994718418,-0.00302525905583,0.0,0.0,0.0,0.0,0.0,0.0,0.0,0.0,0.0,6.51278189792,-0.000311154178464,7.07858857997,0.0,0.0,0.0,0.0,0.0,0.0,0.0,0.0,0.0
27296000000,329,27296000000,imu_link,-0.000806910592781,-0.37435737708,-0.000631115924657,0.927283939694,0.0,0.0,0.0,0.0,0.0,0.0,0.0,0.0,0.0,0.00294098429088,-0.0105942837096,-0.00302872399907,0.0,0.0,0.0,0.0,0.0,0.0,0.0,0.0,0.0,6.51385386217,-0.000161277086683,7.07618255818,0.0,0.0,0.0,0.0,0.0,0.0,0.0,0.0,0.0
27300000000,330,27300000000,imu_link,-0.000799217061878,-0.37437583348,-0.000634435908136,0.927276492773,0.0,0.0,0.0,0.0,0.0,0.0,0.0,0.0,0.0,0.00294843323416,-0.00994729944924,-0.00298914497274,0.0,0.0,0.0,0.0,0.0,0.0,0.0,0.0,0.0,6.5155471416,-0.000113204467732,7.07307112989,0.0,0.0,0.0,0.0,0.0,0.0,0.0,0.0,0.0
27304000000,331,27304000000,imu_link,-0.000791672060487,-0.374392709484,-0.000637662868415,0.927269683386,0.0,0.0,0.0,0.0,0.0,0.0,0.0,0.0,0.0,0.00289673552489,-0.00909531300402,-0.00291737915275,0.0,0.0,0.0,0.0,0.0,0.0,0.0,0.0,0.0,6.5167234919,-0.000140418099415,7.06985477315,0.0,0.0,0.0,0.0,0.0,0.0,0.0,0.0,0.0
27308000000,332,27308000000,imu_link,-0.000784365426752,-0.374408239013,-0.000640833556001,0.927263417084,0.0,0.0,0.0,0.0,0.0,0.0,0.0,0.0,0.0,0.00279653969146,-0.00836947506159,-0.00284596147947,0.0,0.0,0.0,0.0,0.0,0.0,0.0,0.0,0.0,6.51654507307,-0.000212593192112,7.06945245389,0.0,0.0,0.0,0.0,0.0,0.0,0.0,0.0,0.0
27312000000,333,27312000000,imu_link,-0.000777224346958,-0.374423115448,-0.000643974314296,0.927257414011,0.0,0.0,0.0,0.0,0.0,0.0,0.0,0.0,0.0,0.00272528049276,-0.00801746714628,-0.00280075245612,0.0,0.0,0.0,0.0,0.0,0.0,0.0,0.0,0.0,6.51867708891,-0.000307815845328,7.07735328685,0.0,0.0,0.0,0.0,0.0,0.0,0.0,0.0,0.0
27316000000,334,27316000000,imu_link,-0.000770204922064,-0.374438138909,-0.000647109016435,0.927251351126,0.0,0.0,0.0,0.0,0.0,0.0,0.0,0.0,0.0,0.00267003566804,-0.00809687163183,-0.00277524583929,0.0,0.0,0.0,0.0,0.0,0.0,0.0,0.0,0.0,6.52104093465,-0.000373521512857,7.08631646539,0.0,0.0,0.0,0.0,0.0,0.0,0.0,0.0,0.0
27320000000,335,27320000000,imu_link,-0.000763497887031,-0.374453774488,-0.000650286447105,0.927245040413,0.0,0.0,0.0,0.0,0.0,0.0,0.0,0.0,0.0,0.00251730672658,-0.00842714768049,-0.00273688645854,0.0,0.0,0.0,0.0,0.0,0.0,0.0,0.0,0.0,6.52225162681,-0.000376769110992,7.08999024987,0.0,0.0,0.0,0.0,0.0,0.0,0.0,0.0,0.0
27324000000,336,27324000000,imu_link,-0.000757421791984,-0.374470137841,-0.00065353771811,0.927238434852,0.0,0.0,0.0,0.0,0.0,0.0,0.0,0.0,0.0,0.00221108791655,-0.00881994099181,-0.00265336526648,0.0,0.0,0.0,0.0,0.0,0.0,0.0,0.0,0.0,6.52266504072,-0.000402849925804,7.08904213769,0.0,0.0,0.0,0.0,0.0,0.0,0.0,0.0,0.0
27328000000,337,27328000000,imu_link,-0.000752169003364,-0.374486989008,-0.000656864942948,0.927231631165,0.0,0.0,0.0,0.0,0.0,0.0,0.0,0.0,0.0,0.00181525038413,-0.00908343716779,-0.00253467656838,0.0,0.0,0.0,0.0,0.0,0.0,0.0,0.0,0.0,6.52319290808,-0.000490324002515,7.08524210884,0.0,0.0,0.0,0.0,0.0,0.0,0.0,0.0,0.0
27332000000,338,27332000000,imu_link,-0.000747394626373,-0.374503814581,-0.000660227143004,0.927224837009,0.0,0.0,0.0,0.0,0.0,0.0,0.0,0.0,0.0,0.00158689748259,-0.00906993086133,-0.00246129941263,0.0,0.0,0.0,0.0,0.0,0.0,0.0,0.0,0.0,6.52538303158,-0.0006999360218,7.08216539808,0.0,0.0,0.0,0.0,0.0,0.0,0.0,0.0,0.0
27336000000,339,27336000000,imu_link,-0.000742487264694,-0.374520151236,-0.000663567346252,0.927218240065,0.0,0.0,0.0,0.0,0.0,0.0,0.0,0.0,0.0,0.00165258207931,-0.00880629800811,-0.00247575524528,0.0,0.0,0.0,0.0,0.0,0.0,0.0,0.0,0.0,6.52663067691,-0.000913868558532,7.07780104899,0.0,0.0,0.0,0.0,0.0,0.0,0.0,0.0,0.0
27340000000,340,27340000000,imu_link,-0.000737122782588,-0.374535930299,-0.000666855297195,0.927211868382,0.0,0.0,0.0,0.0,0.0,0.0,0.0,0.0,0.0,0.00187419067559,-0.0085054790615,-0.00253684926588,0.0,0.0,0.0,0.0,0.0,0.0,0.0,0.0,0.0,6.52747189572,-0.000940163612285,7.07646863087,0.0,0.0,0.0,0.0,0.0,0.0,0.0,0.0,0.0
27344000000,341,27344000000,imu_link,-0.000731194803481,-0.374551614156,-0.00067005529808,0.927205535312,0.0,0.0,0.0,0.0,0.0,0.0,0.0,0.0,0.0,0.00215188394441,-0.00845395435495,-0.00260155206953,0.0,0.0,0.0,0.0,0.0,0.0,0.0,0.0,0.0,6.52896745263,-0.000859039743319,7.0807866553,0.0,0.0,0.0,0.0,0.0,0.0,0.0,0.0,0.0
27348000000,342,27348000000,imu_link,-0.000724855109827,-0.374567975387,-0.000673174520254,0.927198928621,0.0,0.0,0.0,0.0,0.0,0.0,0.0,0.0,0.0,0.00235801074991,-0.00881912081595,-0.00264154632648,0.0,0.0,0.0,0.0,0.0,0.0,0.0,0.0,0.0,6.53108575217,-0.000771766025374,7.08920878666,0.0,0.0,0.0,0.0,0.0,0.0,0.0,0.0,0.0
27352000000,343,27352000000,imu_link,-0.000718145748074,-0.374585721367,-0.000676187626119,0.927191762466,0.0,0.0,0.0,0.0,0.0,0.0,0.0,0.0,0.0,0.00254952589209,-0.00956578287001,-0.00266227395844,0.0,0.0,0.0,0.0,0.0,0.0,0.0,0.0,0.0,6.53333048509,-0.000782364467363,7.09711965103,0.0,0.0,0.0,0.0,0.0,0.0,0.0,0.0,0.0
27356000000,344,27356000000,imu_link,-0.000711011942108,-0.37460524497,-0.000679042612371,0.927183878098,0.0,0.0,0.0,0.0,0.0,0.0,0.0,0.0,0.0,0.00277625426828,-0.0105243105722,-0.00266934684751,0.0,0.0,0.0,0.0,0.0,0.0,0.0,0.0,0.0,6.53453037397,-0.000790507951264,7.10027144392,0.0,0.0,0.0,0.0,0.0,0.0,0.0,0.0,0.0
27360000000,345,27360000000,imu_link,-0.000703444486641,-0.374626457237,-0.000681710050982,0.927175311349,0.0,0.0,0.0,0.0,0.0,0.0,0.0,0.0,0.0,0.00301274959395,-0.0114348929903,-0.00266445697425,0.0,0.0,0.0,0.0,0.0,0.0,0.0,0.0,0.0,6.53384716269,-0.000776672470576,7.09571403106,0.0,0.0,0.0,0.0,0.0,0.0,0.0,0.0,0.0
27364000000,346,27364000000,imu_link,-0.000695536949837,-0.374648863809,-0.000684190510946,0.927166261767,0.0,0.0,0.0,0.0,0.0,0.0,0.0,0.0,0.0,0.00320566793862,-0.0120789489993,-0.00264206235539,0.0,0.0,0.0,0.0,0.0,0.0,0.0,0.0,0.0,6.53501789659,-0.000734993442255,7.0910635618,0.0,0.0,0.0,0.0,0.0,0.0,0.0,0.0,0.0
27368000000,347,27368000000,imu_link,-0.000687400799053,-0.374671738803,-0.000686505451504,0.927157022479,0.0,0.0,0.0,0.0,0.0,0.0,0.0,0.0,0.0,0.00334274962436,-0.0123316168258,-0.00260838313372,0.0,0.0,0.0,0.0,0.0,0.0,0.0,0.0,0.0,6.53642696088,-0.000704743523275,7.08473217962,0.0,0.0,0.0,0.0,0.0,0.0,0.0,0.0,0.0
27372000000,348,27372000000,imu_link,-0.000679054362628,-0.374694254872,-0.000688673195942,0.927147927776,0.0,0.0,0.0,0.0,0.0,0.0,0.0,0.0,0.0,0.00346773513353,-0.0121381202884,-0.0025793672282,0.0,0.0,0.0,0.0,0.0,0.0,0.0,0.0,0.0,6.53775119311,-0.000705434040953,7.07717548273,0.0,0.0,0.0,0.0,0.0,0.0,0.0,0.0,0.0
27376000000,349,27376000000,imu_link,-0.000670412403846,-0.374715738114,-0.000690707594629,0.927139250102,0.0,0.0,0.0,0.0,0.0,0.0,0.0,0.0,0.0,0.00362949949929,-0.0115811425291,-0.00257242260289,0.0,0.0,0.0,0.0,0.0,0.0,0.0,0.0,0.0,6.53912132995,-0.000718413167875,7.07165650392,0.0,0.0,0.0,0.0,0.0,0.0,0.0,0.0,0.0
27380000000,350,27380000000,imu_link,-0.000661310545922,-0.374735985607,-0.000692604392068,0.927131071671,0.0,0.0,0.0,0.0,0.0,0.0,0.0,0.0,0.0,0.00386821602769,-0.0109146367686,-0.00259421392066,0.0,0.0,0.0,0.0,0.0,0.0,0.0,0.0,0.0,6.53896314532,-0.000737603140998,7.06740589425,0.0,0.0,0.0,0.0,0.0,0.0,0.0,0.0,0.0
27384000000,351,27384000000,imu_link,-0.000651711417533,-0.374755157411,-0.000694379192021,0.927123327882,0.0,0.0,0.0,0.0,0.0,0.0,0.0,0.0,0.0,0.00412136310451,-0.0103344146566,-0.00263032645989,0.0,0.0,0.0,0.0,0.0,0.0,0.0,0.0,0.0,6.53939709471,-0.00071377167183,7.06746918654,0.0,0.0,0.0,0.0,0.0,0.0,0.0,0.0,0.0
27388000000,352,27388000000,imu_link,-0.000641790194092,-0.374773818172,-0.000696078326426,0.927115790391,0.0,0.0,0.0,0.0,0.0,0.0,0.0,0.0,0.0,0.00428474184509,-0.0100587719445,-0.00265536605284,0.0,0.0,0.0,0.0,0.0,0.0,0.0,0.0,0.0,6.54044220018,-0.000591605103942,7.07185526332,0.0,0.0,0.0,0.0,0.0,0.0,0.0,0.0,0.0
27392000000,353,27392000000,imu_link,-0.000631944070028,-0.37479248439,-0.000697773814041,0.9271082501,0.0,0.0,0.0,0.0,0.0,0.0,0.0,0.0,0.0,0.00425061329654,-0.0100618538423,-0.00263960564022,0.0,0.0,0.0,0.0,0.0,0.0,0.0,0.0,0.0,6.54193903347,-0.00052621095235,7.077009227,0.0,0.0,0.0,0.0,0.0,0.0,0.0,0.0,0.0
27396000000,354,27396000000,imu_link,-0.000622589588764,-0.374811526682,-0.000699517537616,0.927100556857,0.0,0.0,0.0,0.0,0.0,0.0,0.0,0.0,0.0,0.00401375388968,-0.0102650032394,-0.00257000579696,0.0,0.0,0.0,0.0,0.0,0.0,0.0,0.0,0.0,6.54383595402,-0.000584773628154,7.08192505072,0.0,0.0,0.0,0.0,0.0,0.0,0.0,0.0,0.0
27400000000,355,27400000000,imu_link,-0.000613949219544,-0.374831103684,-0.00070131465355,0.92709264636,0.0,0.0,0.0,0.0,0.0,0.0,0.0,0.0,0.0,0.00367284040717,-0.0105538157001,-0.00246116956583,0.0,0.0,0.0,0.0,0.0,0.0,0.0,0.0,0.0,6.54474967565,-0.000725387768592,7.08302406602,0.0,0.0,0.0,0.0,0.0,0.0,0.0,0.0,0.0
27404000000,356,27404000000,imu_link,-0.000606076690733,-0.374851224165,-0.000703138877683,0.92708451503,0.0,0.0,0.0,0.0,0.0,0.0,0.0,0.0,0.0,0.00331195309512,-0.0108473924262,-0.00233007450897,0.0,0.0,0.0,0.0,0.0,0.0,0.0,0.0,0.0,6.54544036315,-0.000902345707602,7.08235730424,0.0,0.0,0.0,0.0,0.0,0.0,0.0,0.0,0.0
27408000000,357,27408000000,imu_link,-0.000599114089544,-0.374871938577,-0.000704977740658,0.927076142362,0.0,0.0,0.0,0.0,0.0,0.0,0.0,0.0,0.0,0.00288755517027,-0.0111682528561,-0.00216658132062,0.0,0.0,0.0,0.0,0.0,0.0,0.0,0.0,0.0,6.54509547098,-0.00104166677335,7.07986954569,0.0,0.0,0.0,0.0,0.0,0.0,0.0,0.0,0.0
27412000000,358,27412000000,imu_link,-0.000593088868457,-0.374893187689,-0.000706843720563,0.927067552254,0.0,0.0,0.0,0.0,0.0,0.0,0.0,0.0,0.0,0.00244808445743,-0.0114571843897,-0.00200368911939,0.0,0.0,0.0,0.0,0.0,0.0,0.0,0.0,0.0,6.54466113013,-0.00120570295522,7.07627715798,0.0,0.0,0.0,0.0,0.0,0.0,0.0,0.0,0.0
27416000000,359,27416000000,imu_link,-0.000587865006105,-0.374914674077,-0.000708745366318,0.927058865044,0.0,0.0,0.0,0.0,0.0,0.0,0.0,0.0,0.0,0.00206999723864,-0.011585644292,-0.00187011416121,0.0,0.0,0.0,0.0,0.0,0.0,0.0,0.0,0.0,6.54537032786,-0.00139306740365,7.07252444244,0.0,0.0,0.0,0.0,0.0,0.0,0.0,0.0,0.0
27420000000,360,27420000000,imu_link,-0.000583083097164,-0.374935763594,-0.000710669511389,0.927050337436,0.0,0.0,0.0,0.0,0.0,0.0,0.0,0.0,0.0,0.00186082743498,-0.0113719145183,-0.00179752263551,0.0,0.0,0.0,0.0,0.0,0.0,0.0,0.0,0.0,6.54761901868,-0.00157500502706,7.06895221783,0.0,0.0,0.0,0.0,0.0,0.0,0.0,0.0,0.0
27424000000,361,27424000000,imu_link,-0.000578373662845,-0.374955937101,-0.000712576463446,0.927042179705,0.0,0.0,0.0,0.0,0.0,0.0,0.0,0.0,0.0,0.00183023910522,-0.0108780114373,-0.00177556809139,0.0,0.0,0.0,0.0,0.0,0.0,0.0,0.0,0.0,6.5504319293,-0.0017111343191,7.06750651009,0.0,0.0,0.0,0.0,0.0,0.0,0.0,0.0,0.0
27428000000,362,27428000000,imu_link,-0.000573209553824,-0.374975042363,-0.000714414388268,0.927034453862,0.0,0.0,0.0,0.0,0.0,0.0,0.0,0.0,0.0,0.00205367579826,-0.0103017458687,-0.001828351203,0.0,0.0,0.0,0.0,0.0,0.0,0.0,0.0,0.0,6.55099978457,-0.00183279482918,7.06524711346,0.0,0.0,0.0,0.0,0.0,0.0,0.0,0.0,0.0
27432000000,363,27432000000,imu_link,-0.000567165204124,-0.374993203,-0.000716132131157,0.927027110274,0.0,0.0,0.0,0.0,0.0,0.0,0.0,0.0,0.0,0.00248398725809,-0.00979194789731,-0.00193727167117,0.0,0.0,0.0,0.0,0.0,0.0,0.0,0.0,0.0,6.55152488934,-0.00179144338067,7.06516478997,0.0,0.0,0.0,0.0,0.0,0.0,0.0,0.0,0.0
27436000000,364,27436000000,imu_link,-0.000559888376156,-0.375010755661,-0.000717682170027,0.92702001305,0.0,0.0,0.0,0.0,0.0,0.0,0.0,0.0,0.0,0.00308655374544,-0.00946355640477,-0.00209036344526,0.0,0.0,0.0,0.0,0.0,0.0,0.0,0.0,0.0,6.55237296709,-0.00166912812301,7.06737804196,0.0,0.0,0.0,0.0,0.0,0.0,0.0,0.0,0.0
27440000000,365,27440000000,imu_link,-0.00055126368104,-0.375027927651,-0.000719028739816,0.927013070343,0.0,0.0,0.0,0.0,0.0,0.0,0.0,0.0,0.0,0.00374936185839,-0.00925771227849,-0.00224862381575,0.0,0.0,0.0,0.0,0.0,0.0,0.0,0.0,0.0,6.55272044008,-0.00152666666236,7.06790515091,0.0,0.0,0.0,0.0,0.0,0.0,0.0,0.0,0.0
27444000000,366,27444000000,imu_link,-0.000541564672298,-0.375044778789,-0.000720222060353,0.927006257741,0.0,0.0,0.0,0.0,0.0,0.0,0.0,0.0,0.0,0.00427597012938,-0.00908425462576,-0.00237890538134,0.0,0.0,0.0,0.0,0.0,0.0,0.0,0.0,0.0,6.55370875459,-0.00137231987662,7.06820354267,0.0,0.0,0.0,0.0,0.0,0.0,0.0,0.0,0.0
27448000000,367,27448000000,imu_link,-0.000531195842612,-0.375061374365,-0.000721298498842,0.926999548554,0.0,0.0,0.0,0.0,0.0,0.0,0.0,0.0,0.0,0.00460828820625,-0.00894619900378,-0.00245023016713,0.0,0.0,0.0,0.0,0.0,0.0,0.0,0.0,0.0,6.55443494354,-0.00121464370916,7.06826810276,0.0,0.0,0.0,0.0,0.0,0.0,0.0,0.0,0.0
27452000000,368,27452000000,imu_link,-0.000520424895901,-0.375078139727,-0.000722269251939,0.926992770513,0.0,0.0,0.0,0.0,0.0,0.0,0.0,0.0,0.0,0.00481453155723,-0.00903768986051,-0.00247672422078,0.0,0.0,0.0,0.0,0.0,0.0,0.0,0.0,0.0,6.5558905967,-0.00112207066882,7.07266102618,0.0,0.0,0.0,0.0,0.0,0.0,0.0,0.0,0.0
27456000000,369,27456000000,imu_link,-0.000509388215925,-0.37509552381,-0.000723116318786,0.926985741877,0.0,0.0,0.0,0.0,0.0,0.0,0.0,0.0,0.0,0.00496105220225,-0.00937139710952,-0.00246948295798,0.0,0.0,0.0,0.0,0.0,0.0,0.0,0.0,0.0,6.55736102966,-0.00108500813824,7.07720060383,0.0,0.0,0.0,0.0,0.0,0.0,0.0,0.0,0.0
27460000000,370,27460000000,imu_link,-0.000498027353553,-0.375113593374,-0.000723824073742,0.926978435625,0.0,0.0,0.0,0.0,0.0,0.0,0.0,0.0,0.0,0.0051376131992,-0.00974109764732,-0.00246598753519,0.0,0.0,0.0,0.0,0.0,0.0,0.0,0.0,0.0,6.55763663181,-0.001119538572,7.07578201887,0.0,0.0,0.0,0.0,0.0,0.0,0.0,0.0,0.0
27464000000,371,27464000000,imu_link,-0.000486304908037,-0.375132191622,-0.000724385379927,0.926970915176,0.0,0.0,0.0,0.0,0.0,0.0,0.0,0.0,0.0,0.00533280854952,-0.010026216322,-0.00246613665442,0.0,0.0,0.0,0.0,0.0,0.0,0.0,0.0,0.0,6.55806839548,-0.00114598667433,7.07268711759,0.0,0.0,0.0,0.0,0.0,0.0,0.0,0.0,0.0
27468000000,372,27468000000,imu_link,-0.000474423251205,-0.375151051345,-0.000724814488834,0.926963288508,0.0,0.0,0.0,0.0,0.0,0.0,0.0,0.0,0.0,0.00543146528382,-0.0101673039148,-0.00243482983399,0.0,0.0,0.0,0.0,0.0,0.0,0.0,0.0,0.0,6.55920332535,-0.00111783504696,7.07019835209,0.0,0.0,0.0,0.0,0.0,0.0,0.0,0.0,0.0
27472000000,373,27472000000,imu_link,-0.000462725318633,-0.3751699557,-0.000725125964675,0.926955643177,0.0,0.0,0.0,0.0,0.0,0.0,0.0,0.0,0.0,0.00536838929358,-0.0101915854448,-0.00234586424344,0.0,0.0,0.0,0.0,0.0,0.0,0.0,0.0,0.0,6.56049983286,-0.00110059797565,7.06860969975,0.0,0.0,0.0,0.0,0.0,0.0,0.0,0.0,0.0
27476000000,374,27476000000,imu_link,-0.000451474191668,-0.375188862976,-0.000725311882051,0.926947995948,0.0,0.0,0.0,0.0,0.0,0.0,0.0,0.0,0.0,0.00518485830552,-0.0101934859161,-0.00220385802281,0.0,0.0,0.0,0.0,0.0,0.0,0.0,0.0,0.0,6.56076330898,-0.00112177846921,7.06641797972,0.0,0.0,0.0,0.0,0.0,0.0,0.0,0.0,0.0
27480000000,375,27480000000,imu_link,-0.000440981433764,-0.375207769274,-0.000725366296638,0.926940348272,0.0,0.0,0.0,0.0,0.0,0.0,0.0,0.0,0.0,0.00485804270045,-0.0101934213436,-0.00200064402836,0.0,0.0,0.0,0.0,0.0,0.0,0.0,0.0,0.0,6.56144960993,-0.00115322178247,7.06550240991,0.0,0.0,0.0,0.0,0.0,0.0,0.0,0.0,0.0
27484000000,376,27484000000,imu_link,-0.000431719729155,-0.375226516132,-0.000725305109169,0.926932764089,0.0,0.0,0.0,0.0,0.0,0.0,0.0,0.0,0.0,0.00430912978336,-0.010108085944,-0.00171605735986,0.0,0.0,0.0,0.0,0.0,0.0,0.0,0.0,0.0,6.56248028435,-0.0012677815344,7.06434203851,0.0,0.0,0.0,0.0,0.0,0.0,0.0,0.0,0.0
27488000000,377,27488000000,imu_link,-0.000424083052877,-0.375244936213,-0.000725176889742,0.926925310971,0.0,0.0,0.0,0.0,0.0,0.0,0.0,0.0,0.0,0.00356846965132,-0.00993265058201,-0.00137999537263,0.0,0.0,0.0,0.0,0.0,0.0,0.0,0.0,0.0,6.56372296613,-0.00152478848818,7.06316292781,0.0,0.0,0.0,0.0,0.0,0.0,0.0,0.0,0.0
27492000000,378,27492000000,imu_link,-0.000418177052997,-0.375262688667,-0.000725014240788,0.9269181269,0.0,0.0,0.0,0.0,0.0,0.0,0.0,0.0,0.0,0.00277264049977,-0.0095733856667,-0.00103908567643,0.0,0.0,0.0,0.0,0.0,0.0,0.0,0.0,0.0,6.56458777948,-0.00183886521407,7.06005304114,0.0,0.0,0.0,0.0,0.0,0.0,0.0,0.0,0.0
27496000000,379,27496000000,imu_link,-0.000413837190497,-0.375279565908,-0.000724834566832,0.926911296061,0.0,0.0,0.0,0.0,0.0,0.0,0.0,0.0,0.0,0.00204975094559,-0.00910205384058,-0.0007370277771,0.0,0.0,0.0,0.0,0.0,0.0,0.0,0.0,0.0,6.56577393,-0.00217683227468,7.05876758663,0.0,0.0,0.0,0.0,0.0,0.0,0.0,0.0,0.0
27500000000,380,27500000000,imu_link,-0.000410862601407,-0.375295811089,-0.000724633219432,0.926904720172,0.0,0.0,0.0,0.0,0.0,0.0,0.0,0.0,0.0,0.00142089775784,-0.00876178293841,-0.000470580307551,0.0,0.0,0.0,0.0,0.0,0.0,0.0,0.0,0.0,6.56658337002,-0.0024603057563,7.06046314828,0.0,0.0,0.0,0.0,0.0,0.0,0.0,0.0,0.0
