%time,field.header.seq,field.header.stamp,field.header.frame_id,field.orientation.x,field.orientation.y,field.orientation.z,field.orientation.w,field.orientation_covariance0,field.orientation_covariance1,field.orientation_covariance2,field.orientation_covariance3,field.orientation_covariance4,field.orientation_covariance5,field.orientation_covariance6,field.orientation_covariance7,field.orientation_covariance8,field.angular_velocity.x,field.angular_velocity.y,field.angular_velocity.z,field.angular_velocity_covariance0,field.angular_velocity_covariance1,field.angular_velocity_covariance2,field.angular_velocity_covariance3,field.angular_velocity_covariance4,field.angular_velocity_covariance5,field.angular_velocity_covariance6,field.angular_velocity_covariance7,field.angular_velocity_covariance8,field.linear_acceleration.x,field.linear_acceleration.y,field.linear_acceleration.z,field.linear_acceleration_covariance0,field.linear_acceleration_covariance1,field.linear_acceleration_covariance2,field.linear_acceleration_covariance3,field.linear_acceleration_covariance4,field.linear_acceleration_covariance5,field.linear_acceleration_covariance6,field.linear_acceleration_covariance7,field.linear_acceleration_covariance8
43044000000,0,43044000000,imu_link,-0.000473632752817,-0.209226725608,-0.000143042935653,0.977867032117,0.0,0.0,0.0,0.0,0.0,0.0,0.0,0.0,0.0,-0.00674885659104,-3.74971536995,0.00353421515748,0.0,0.0,0.0,0.0,0.0,0.0,0.0,0.0,0.0,1.1533483375,0.0121733819052,10.3753375736,0.0,0.0,0.0,0.0,0.0,0.0,0.0,0.0,0.0
43048000000,1,43048000000,imu_link,-0.000482084789173,-0.216410909584,-0.00013278487477,0.976302242226,0.0,0.0,0.0,0.0,0.0,0.0,0.0,0.0,0.0,-0.00291617692333,-3.67638867265,0.00408656769741,0.0,0.0,0.0,0.0,0.0,0.0,0.0,0.0,0.0,1.12233752149,0.0128494824685,10.3145031215,0.0,0.0,0.0,0.0,0.0,0.0,0.0,0.0,0.0
43052000000,2,43052000000,imu_link,-0.000480484721536,-0.223418326805,-0.00011868371634,0.974722527849,0.0,0.0,0.0,0.0,0.0,0.0,0.0,0.0,0.0,0.00239142014273,-3.59170824322,0.00491652138043,0.0,0.0,0.0,0.0,0.0,0.0,0.0,0.0,0.0,1.07250194518,0.00380308435923,10.2846270986,0.0,0.0,0.0,0.0,0.0,0.0,0.0,0.0,0.0
43056000000,3,43056000000,imu_link,-0.000468629735156,-0.23024037626,-0.000100397667777,0.973133669876,0.0,0.0,0.0,0.0,0.0,0.0,0.0,0.0,0.0,0.00784369486037,-3.50238225258,0.00585451370529,0.0,0.0,0.0,0.0,0.0,0.0,0.0,0.0,0.0,1.0069213308,-0.0102584927036,10.1977429402,0.0,0.0,0.0,0.0,0.0,0.0,0.0,0.0,0.0
43060000000,4,43060000000,imu_link,-0.000451682894169,-0.236868190613,-7.95131852862e-05,0.971541687184,0.0,0.0,0.0,0.0,0.0,0.0,0.0,0.0,0.0,0.0106099261573,-3.4082272201,0.00657801472241,0.0,0.0,0.0,0.0,0.0,0.0,0.0,0.0,0.0,0.94735082936,-0.0144391202922,10.1129811216,0.0,0.0,0.0,0.0,0.0,0.0,0.0,0.0,0.0
43064000000,5,43064000000,imu_link,-0.00043994473356,-0.243296496314,-5.91455177461e-05,0.969951863667,0.0,0.0,0.0,0.0,0.0,0.0,0.0,0.0,0.0,0.00801097759323,-3.31104952321,0.00698899002065,0.0,0.0,0.0,0.0,0.0,0.0,0.0,0.0,0.0,0.866578832885,-0.0077039033854,10.0269613949,0.0,0.0,0.0,0.0,0.0,0.0,0.0,0.0,0.0
43068000000,6,43068000000,imu_link,-0.000436378768178,-0.249519327147,-4.12113078723e-05,0.968369719299,0.0,0.0,0.0,0.0,0.0,0.0,0.0,0.0,0.0,0.00374714807384,-3.21045829149,0.0068483686724,0.0,0.0,0.0,0.0,0.0,0.0,0.0,0.0,0.0,0.816000412991,-0.00502163051498,9.92190706506,0.0,0.0,0.0,0.0,0.0,0.0,0.0,0.0,0.0
43072000000,7,43072000000,imu_link,-0.000438286564014,-0.255534184775,-2.55083938001e-05,0.966799921217,0.0,0.0,0.0,0.0,0.0,0.0,0.0,0.0,0.0,0.000816806997322,-3.10821399774,0.00649652993854,0.0,0.0,0.0,0.0,0.0,0.0,0.0,0.0,0.0,0.763587682087,-0.00249239276582,9.82343649037,0.0,0.0,0.0,0.0,0.0,0.0,0.0,0.0,0.0
43076000000,8,43076000000,imu_link,-0.000439890314277,-0.261338137818,-1.05530328008e-05,0.965247213986,0.0,0.0,0.0,0.0,0.0,0.0,0.0,0.0,0.0,0.000869325267969,-3.00407307762,0.00614273744078,0.0,0.0,0.0,0.0,0.0,0.0,0.0,0.0,0.0,0.715154964064,-0.00385376418133,9.73925983918,0.0,0.0,0.0,0.0,0.0,0.0,0.0,0.0,0.0
43080000000,9,43080000000,imu_link,-0.000442672548125,-0.266932914396,3.63085584217e-06,0.963715011422,0.0,0.0,0.0,0.0,0.0,0.0,0.0,0.0,0.0,0.000203147601719,-2.90043466779,0.00597050315094,0.0,0.0,0.0,0.0,0.0,0.0,0.0,0.0,0.0,0.704158849927,-0.000806381189944,9.64035570659,0.0,0.0,0.0,0.0,0.0,0.0,0.0,0.0,0.0
43084000000,10,43084000000,imu_link,-0.000446069129538,-0.272325293606,1.72896076921e-05,0.962205141945,0.0,0.0,0.0,0.0,0.0,0.0,0.0,0.0,0.0,-0.000157663860224,-2.7999222426,0.00584420535197,0.0,0.0,0.0,0.0,0.0,0.0,0.0,0.0,0.0,0.690562987075,0.00181936045065,9.54601118244,0.0,0.0,0.0,0.0,0.0,0.0,0.0,0.0,0.0
43088000000,11,43088000000,imu_link,-0.000450042598084,-0.277523757594,3.03526982253e-05,0.960718668764,0.0,0.0,0.0,0.0,0.0,0.0,0.0,0.0,0.0,-0.000509422997704,-2.70343890737,0.00567922056346,0.0,0.0,0.0,0.0,0.0,0.0,0.0,0.0,0.0,0.675758018288,0.00700218678446,9.45655324399,0.0,0.0,0.0,0.0,0.0,0.0,0.0,0.0,0.0
43092000000,12,43092000000,imu_link,-0.000454240899503,-0.282529644393,4.29340173732e-05,0.959258459364,0.0,0.0,0.0,0.0,0.0,0.0,0.0,0.0,0.0,-0.000675444277192,-2.60728406593,0.00552192285536,0.0,0.0,0.0,0.0,0.0,0.0,0.0,0.0,0.0,0.660377234431,0.00729455876997,9.38088559756,0.0,0.0,0.0,0.0,0.0,0.0,0.0,0.0,0.0
43096000000,13,43096000000,imu_link,-0.000457019474349,-0.287353331216,5.5962535353e-05,0.957824540843,0.0,0.0,0.0,0.0,0.0,0.0,0.0,0.0,0.0,7.85642111331e-05,-2.51617819965,0.00557666755731,0.0,0.0,0.0,0.0,0.0,0.0,0.0,0.0,0.0,0.630831022039,0.000706887653605,9.30625701427,0.0,0.0,0.0,0.0,0.0,0.0,0.0,0.0,0.0
43100000000,14,43100000000,imu_link,-0.000457963099528,-0.292006278551,7.02200082795e-05,0.956416289398,0.0,0.0,0.0,0.0,0.0,0.0,0.0,0.0,0.0,0.00114457148611,-2.43071839855,0.00593988672656,0.0,0.0,0.0,0.0,0.0,0.0,0.0,0.0,0.0,0.604755549181,-0.00461606306759,9.24082249439,0.0,0.0,0.0,0.0,0.0,0.0,0.0,0.0,0.0
43104000000,15,43104000000,imu_link,-0.000457648033989,-0.296493218617,8.62044979303e-05,0.955034844621,0.0,0.0,0.0,0.0,0.0,0.0,0.0,0.0,0.0,0.00201061288369,-2.34741609969,0.00661906157021,0.0,0.0,0.0,0.0,0.0,0.0,0.0,0.0,0.0,0.582303252987,-0.00400352650558,9.18407231775,0.0,0.0,0.0,0.0,0.0,0.0,0.0,0.0,0.0
43108000000,16,43108000000,imu_link,-0.000458272615763,-0.300817808037,0.000103503823868,0.953681511639,0.0,0.0,0.0,0.0,0.0,0.0,0.0,0.0,0.0,0.00177026129054,-2.26572101183,0.00742215963505,0.0,0.0,0.0,0.0,0.0,0.0,0.0,0.0,0.0,0.545177019384,0.000944491992211,9.13116634427,0.0,0.0,0.0,0.0,0.0,0.0,0.0,0.0,0.0
43112000000,17,43112000000,imu_link,-0.000457716995751,-0.304985348492,0.000122635511344,0.952356925034,0.0,0.0,0.0,0.0,0.0,0.0,0.0,0.0,0.0,0.00262335442502,-2.18650807914,0.00815289113017,0.0,0.0,0.0,0.0,0.0,0.0,0.0,0.0,0.0,0.523053127753,0.00249282581356,9.08814148725,0.0,0.0,0.0,0.0,0.0,0.0,0.0,0.0,0.0
43116000000,18,43116000000,imu_link,-0.000455547027797,-0.309001308925,0.000142927999165,0.951061492823,0.0,0.0,0.0,0.0,0.0,0.0,0.0,0.0,0.0,0.00358505930697,-2.10988134868,0.00849236336851,0.0,0.0,0.0,0.0,0.0,0.0,0.0,0.0,0.0,0.519190057677,0.00301986090325,9.04543968866,0.0,0.0,0.0,0.0,0.0,0.0,0.0,0.0,0.0
43120000000,19,43120000000,imu_link,-0.00045030340974,-0.312868703244,0.000164157774198,0.949796264895,0.0,0.0,0.0,0.0,0.0,0.0,0.0,0.0,0.0,0.00520899399349,-2.03456550468,0.00849486692945,0.0,0.0,0.0,0.0,0.0,0.0,0.0,0.0,0.0,0.505829491429,0.00241926700127,9.00230711262,0.0,0.0,0.0,0.0,0.0,0.0,0.0,0.0,0.0
43124000000,20,43124000000,imu_link,-0.000443355277771,-0.316591222865,0.000185351222295,0.948561946678,0.0,0.0,0.0,0.0,0.0,0.0,0.0,0.0,0.0,0.00603163547614,-1.96092780858,0.00824104560667,0.0,0.0,0.0,0.0,0.0,0.0,0.0,0.0,0.0,0.497943904346,0.00248528890937,8.96764360138,0.0,0.0,0.0,0.0,0.0,0.0,0.0,0.0,0.0
43128000000,21,43128000000,imu_link,-0.000437174337195,-0.320171820972,0.000205488450787,0.947359367774,0.0,0.0,0.0,0.0,0.0,0.0,0.0,0.0,0.0,0.00552075782256,-1.88859102765,0.00789005604773,0.0,0.0,0.0,0.0,0.0,0.0,0.0,0.0,0.0,0.505628589694,0.00402506154759,8.9464132879,0.0,0.0,0.0,0.0,0.0,0.0,0.0,0.0,0.0
43132000000,22,43132000000,imu_link,-0.000431715565045,-0.323616078444,0.000224714952322,0.946188351702,0.0,0.0,0.0,0.0,0.0,0.0,0.0,0.0,0.0,0.00505378825862,-1.81895476486,0.00760082560697,0.0,0.0,0.0,0.0,0.0,0.0,0.0,0.0,0.0,0.516631740829,0.00367922718028,8.92587600283,0.0,0.0,0.0,0.0,0.0,0.0,0.0,0.0,0.0
43136000000,23,43136000000,imu_link,-0.000427914413578,-0.326928951768,0.000242822892507,0.945048791557,0.0,0.0,0.0,0.0,0.0,0.0,0.0,0.0,0.0,0.00411012912864,-1.75170615345,0.00736467798227,0.0,0.0,0.0,0.0,0.0,0.0,0.0,0.0,0.0,0.527302402508,0.000534437680207,8.91019945925,0.0,0.0,0.0,0.0,0.0,0.0,0.0,0.0,0.0
43140000000,24,43140000000,imu_link,-0.000425879825844,-0.330113301118,0.000259940279242,0.943941184334,0.0,0.0,0.0,0.0,0.0,0.0,0.0,0.0,0.0,0.00313589780682,-1.68575067757,0.00720900268208,0.0,0.0,0.0,0.0,0.0,0.0,0.0,0.0,0.0,0.536076147023,-0.00368462951402,8.89604733346,0.0,0.0,0.0,0.0,0.0,0.0,0.0,0.0,0.0
43144000000,25,43144000000,imu_link,-0.00042591899152,-0.333173666458,0.000276387186835,0.942865340429,0.0,0.0,0.0,0.0,0.0,0.0,0.0,0.0,0.0,0.0020693511026,-1.62198966485,0.00725711311019,0.0,0.0,0.0,0.0,0.0,0.0,0.0,0.0,0.0,0.536831568905,-0.0100679637126,8.88140409012,0.0,0.0,0.0,0.0,0.0,0.0,0.0,0.0,0.0
43148000000,26,43148000000,imu_link,-0.000428616316152,-0.336113046025,0.000292336253687,0.941821507038,0.0,0.0,0.0,0.0,0.0,0.0,0.0,0.0,0.0,0.000756803610205,-1.55961906791,0.00748656866022,0.0,0.0,0.0,0.0,0.0,0.0,0.0,0.0,0.0,0.536657227137,-0.0123963707834,8.88665766176,0.0,0.0,0.0,0.0,0.0,0.0,0.0,0.0,0.0
43152000000,27,43152000000,imu_link,-0.000435063756218,-0.338931767409,0.00030764608705,0.940810806227,0.0,0.0,0.0,0.0,0.0,0.0,0.0,0.0,0.0,-0.00109186504612,-1.49723012658,0.00783679191755,0.0,0.0,0.0,0.0,0.0,0.0,0.0,0.0,0.0,0.53433792746,-0.00856963227605,8.88648752509,0.0,0.0,0.0,0.0,0.0,0.0,0.0,0.0,0.0
43156000000,28,43156000000,imu_link,-0.000446105481516,-0.341631644108,0.00032193126794,0.939833770991,0.0,0.0,0.0,0.0,0.0,0.0,0.0,0.0,0.0,-0.00340109001733,-1.43561805347,0.00815403690702,0.0,0.0,0.0,0.0,0.0,0.0,0.0,0.0,0.0,0.5296956272,-0.00110683150996,8.89292234253,0.0,0.0,0.0,0.0,0.0,0.0,0.0,0.0,0.0
43160000000,29,43160000000,imu_link,-0.000460035001242,-0.344212913765,0.000335683671929,0.9388914451,0.0,0.0,0.0,0.0,0.0,0.0,0.0,0.0,0.0,-0.00482229062007,-1.37395238251,0.0084178238089,0.0,0.0,0.0,0.0,0.0,0.0,0.0,0.0,0.0,0.532092600282,0.00213022905079,8.89369451826,0.0,0.0,0.0,0.0,0.0,0.0,0.0,0.0,0.0
43164000000,30,43164000000,imu_link,-0.000473610599832,-0.346675776102,0.000349964693856,0.937984839687,0.0,0.0,0.0,0.0,0.0,0.0,0.0,0.0,0.0,-0.00453707267778,-1.31221836038,0.00862630741781,0.0,0.0,0.0,0.0,0.0,0.0,0.0,0.0,0.0,0.536611435524,0.00234790842887,8.89480867023,0.0,0.0,0.0,0.0,0.0,0.0,0.0,0.0,0.0
43168000000,31,43168000000,imu_link,-0.000482836617511,-0.349022252036,0.000366116739592,0.937114240854,0.0,0.0,0.0,0.0,0.0,0.0,0.0,0.0,0.0,-0.00214393186001,-1.25139331934,0.00877111439682,0.0,0.0,0.0,0.0,0.0,0.0,0.0,0.0,0.0,0.534885302091,0.000326572693269,8.92007422003,0.0,0.0,0.0,0.0,0.0,0.0,0.0,0.0,0.0
43172000000,32,43172000000,imu_link,-0.00048761305447,-0.351253148509,0.000383952341426,0.936280321526,0.0,0.0,0.0,0.0,0.0,0.0,0.0,0.0,0.0,0.000264770497585,-1.19083743759,0.00880464126045,0.0,0.0,0.0,0.0,0.0,0.0,0.0,0.0,0.0,0.543340674724,-0.000571534505189,8.93841033503,0.0,0.0,0.0,0.0,0.0,0.0,0.0,0.0,0.0
43176000000,33,43176000000,imu_link,-0.000490128967805,-0.353369808549,0.000402474947737,0.935483498622,0.0,0.0,0.0,0.0,0.0,0.0,0.0,0.0,0.0,0.00147464667673,-1.13084377381,0.00874997499261,0.0,0.0,0.0,0.0,0.0,0.0,0.0,0.0,0.0,0.565989499508,0.00110099995097,8.96043014638,0.0,0.0,0.0,0.0,0.0,0.0,0.0,0.0,0.0
43180000000,34,43180000000,imu_link,-0.000491603520875,-0.355375679679,0.000420972897363,0.934723332008,0.0,0.0,0.0,0.0,0.0,0.0,0.0,0.0,0.0,0.00198865672435,-1.07254634067,0.00857422054894,0.0,0.0,0.0,0.0,0.0,0.0,0.0,0.0,0.0,0.582111784205,0.00248453745436,8.97416653835,0.0,0.0,0.0,0.0,0.0,0.0,0.0,0.0,0.0
43184000000,35,43184000000,imu_link,-0.000493649112234,-0.357274163553,0.000438639924385,0.93399932332,0.0,0.0,0.0,0.0,0.0,0.0,0.0,0.0,0.0,0.00160562045875,-1.01593213524,0.00830612837812,0.0,0.0,0.0,0.0,0.0,0.0,0.0,0.0,0.0,0.598700962629,0.00288255859031,8.98149248037,0.0,0.0,0.0,0.0,0.0,0.0,0.0,0.0,0.0
43188000000,36,43188000000,imu_link,-0.000496205201524,-0.359064977831,0.000455628970611,0.93331232065,0.0,0.0,0.0,0.0,0.0,0.0,0.0,0.0,0.0,0.00127885271001,-0.959039211154,0.00809916253083,0.0,0.0,0.0,0.0,0.0,0.0,0.0,0.0,0.0,0.623178942179,0.000339601567389,9.01147198851,0.0,0.0,0.0,0.0,0.0,0.0,0.0,0.0,0.0
43192000000,37,43192000000,imu_link,-0.000499491508127,-0.360750177555,0.000472132232242,0.932662230925,0.0,0.0,0.0,0.0,0.0,0.0,0.0,0.0,0.0,0.000884095997774,-0.903125878267,0.0080213580171,0.0,0.0,0.0,0.0,0.0,0.0,0.0,0.0,0.0,0.642049408186,-0.00552321526611,9.04970971032,0.0,0.0,0.0,0.0,0.0,0.0,0.0,0.0,0.0
43196000000,38,43196000000,imu_link,-0.000503795081217,-0.362333604599,0.00048827639502,0.932048210531,0.0,0.0,0.0,0.0,0.0,0.0,0.0,0.0,0.0,0.000377972841366,-0.84915952331,0.00805428965973,0.0,0.0,0.0,0.0,0.0,0.0,0.0,0.0,0.0,0.658184877439,-0.0103786563282,9.07550135683,0.0,0.0,0.0,0.0,0.0,0.0,0.0,0.0,0.0
43200000000,39,43200000000,imu_link,-0.000509088636298,-0.363819371299,0.00050423079288,0.931469243533,0.0,0.0,0.0,0.0,0.0,0.0,0.0,0.0,0.0,-8.50899026204e-05,-0.797296436973,0.00816124779343,0.0,0.0,0.0,0.0,0.0,0.0,0.0,0.0,0.0,0.675141214374,-0.0116788679186,9.0997812284,0.0,0.0,0.0,0.0,0.0,0.0,0.0,0.0,0.0
43204000000,40,43204000000,imu_link,-0.000516121747285,-0.365209637723,0.000519772642435,0.930925015223,0.0,0.0,0.0,0.0,0.0,0.0,0.0,0.0,0.0,-0.000937389158071,-0.746498622885,0.00830110160235,0.0,0.0,0.0,0.0,0.0,0.0,0.0,0.0,0.0,0.691119840446,-0.00952350913618,9.14656725224,0.0,0.0,0.0,0.0,0.0,0.0,0.0,0.0,0.0
43208000000,41,43208000000,imu_link,-0.000525145601572,-0.366508572735,0.000534846642827,0.930414372349,0.0,0.0,0.0,0.0,0.0,0.0,0.0,0.0,0.0,-0.001917034989,-0.697853621951,0.00846169433708,0.0,0.0,0.0,0.0,0.0,0.0,0.0,0.0,0.0,0.705145749461,-0.00534988495557,9.18525526449,0.0,0.0,0.0,0.0,0.0,0.0,0.0,0.0,0.0
43212000000,42,43212000000,imu_link,-0.000535345605139,-0.367720631508,0.000549712593767,0.929935991553,0.0,0.0,0.0,0.0,0.0,0.0,0.0,0.0,0.0,-0.0024706103939,-0.651525511586,0.00859462539383,0.0,0.0,0.0,0.0,0.0,0.0,0.0,0.0,0.0,0.724084080837,-0.00285345764553,9.21624414418,0.0,0.0,0.0,0.0,0.0,0.0,0.0,0.0,0.0
43216000000,43,43216000000,imu_link,-0.000546272829207,-0.368850253292,0.000564477716,0.929488501057,0.0,0.0,0.0,0.0,0.0,0.0,0.0,0.0,0.0,-0.00279635619846,-0.607515118352,0.00869502513071,0.0,0.0,0.0,0.0,0.0,0.0,0.0,0.0,0.0,0.740516295049,-0.00133875004591,9.24860818695,0.0,0.0,0.0,0.0,0.0,0.0,0.0,0.0,0.0
43220000000,44,43220000000,imu_link,-0.000556295628836,-0.369900687548,0.000579667818919,0.929070953088,0.0,0.0,0.0,0.0,0.0,0.0,0.0,0.0,0.0,-0.00226712421576,-0.565191299057,0.00873891108758,0.0,0.0,0.0,0.0,0.0,0.0,0.0,0.0,0.0,0.758087228128,-0.000761372982388,9.27173170286,0.0,0.0,0.0,0.0,0.0,0.0,0.0,0.0,0.0
43224000000,45,43224000000,imu_link,-0.000564874159857,-0.370875688077,0.000595430389991,0.928682157885,0.0,0.0,0.0,0.0,0.0,0.0,0.0,0.0,0.0,-0.00146047061334,-0.524832329144,0.00875037231555,0.0,0.0,0.0,0.0,0.0,0.0,0.0,0.0,0.0,0.781034432855,-0.00122927995288,9.28603581378,0.0,0.0,0.0,0.0,0.0,0.0,0.0,0.0,0.0
43228000000,46,43228000000,imu_link,-0.000571698305347,-0.371779610771,0.00061178348367,0.928320644981,0.0,0.0,0.0,0.0,0.0,0.0,0.0,0.0,0.0,-0.000507465055162,-0.486769430375,0.00871119871786,0.0,0.0,0.0,0.0,0.0,0.0,0.0,0.0,0.0,0.806357102717,-0.0011408683967,9.3263965984,0.0,0.0,0.0,0.0,0.0,0.0,0.0,0.0,0.0
43232000000,47,43232000000,imu_link,-0.00057672797246,-0.372617527,0.000628493461519,0.927984617843,0.0,0.0,0.0,0.0,0.0,0.0,0.0,0.0,0.0,0.000419278064633,-0.451394908431,0.00855434631776,0.0,0.0,0.0,0.0,0.0,0.0,0.0,0.0,0.0,0.832799527812,-0.000877553764383,9.35520977253,0.0,0.0,0.0,0.0,0.0,0.0,0.0,0.0,0.0
43236000000,48,43236000000,imu_link,-0.000580514660846,-0.373393300834,0.000645195513532,0.927672727646,0.0,0.0,0.0,0.0,0.0,0.0,0.0,0.0,0.0,0.00102102243637,-0.418064741879,0.00832942506063,0.0,0.0,0.0,0.0,0.0,0.0,0.0,0.0,0.0,0.861658508433,-0.00201806552409,9.38832112803,0.0,0.0,0.0,0.0,0.0,0.0,0.0,0.0,0.0
43240000000,49,43240000000,imu_link,-0.000583344485849,-0.374109877979,0.000661765116132,0.927383966313,0.0,0.0,0.0,0.0,0.0,0.0,0.0,0.0,0.0,0.00146593272935,-0.386289322632,0.00809906747626,0.0,0.0,0.0,0.0,0.0,0.0,0.0,0.0,0.0,0.891099342324,-0.00323259707212,9.41053669988,0.0,0.0,0.0,0.0,0.0,0.0,0.0,0.0,0.0
43244000000,50,43244000000,imu_link,-0.00058482928737,-0.374770974187,0.000678616108695,0.927116990655,0.0,0.0,0.0,0.0,0.0,0.0,0.0,0.0,0.0,0.00216695678128,-0.356488641817,0.00798692582348,0.0,0.0,0.0,0.0,0.0,0.0,0.0,0.0,0.0,0.920467036291,-0.00562207507623,9.42192256949,0.0,0.0,0.0,0.0,0.0,0.0,0.0,0.0,0.0
43248000000,51,43248000000,imu_link,-0.000584853128385,-0.375380463012,0.000696038574852,0.926870369289,0.0,0.0,0.0,0.0,0.0,0.0,0.0,0.0,0.0,0.00297474607909,-0.328752145175,0.00798625854312,0.0,0.0,0.0,0.0,0.0,0.0,0.0,0.0,0.0,0.951777026646,-0.00694584308346,9.46171711691,0.0,0.0,0.0,0.0,0.0,0.0,0.0,0.0,0.0
43252000000,52,43252000000,imu_link,-0.000583616740511,-0.375941220182,0.000714082627799,0.926643053417,0.0,0.0,0.0,0.0,0.0,0.0,0.0,0.0,0.0,0.00369805128519,-0.302545333172,0.00804532257205,0.0,0.0,0.0,0.0,0.0,0.0,0.0,0.0,0.0,0.982732942646,-0.00745550736487,9.48668419329,0.0,0.0,0.0,0.0,0.0,0.0,0.0,0.0,0.0
43256000000,53,43256000000,imu_link,-0.000581327146728,-0.376455460232,0.000732652287908,0.926434245773,0.0,0.0,0.0,0.0,0.0,0.0,0.0,0.0,0.0,0.00430683232976,-0.277514464412,0.00809784158546,0.0,0.0,0.0,0.0,0.0,0.0,0.0,0.0,0.0,1.0132989898,-0.00644533479177,9.5146922302,0.0,0.0,0.0,0.0,0.0,0.0,0.0,0.0,0.0
43260000000,54,43260000000,imu_link,-0.000578305863463,-0.37692453917,0.000751595126719,0.926243484424,0.0,0.0,0.0,0.0,0.0,0.0,0.0,0.0,0.0,0.00473779504739,-0.2531986169,0.00813949575618,0.0,0.0,0.0,0.0,0.0,0.0,0.0,0.0,0.0,1.04344346285,-0.00581423253438,9.53237108246,0.0,0.0,0.0,0.0,0.0,0.0,0.0,0.0,0.0
43264000000,55,43264000000,imu_link,-0.000574811464866,-0.377350437287,0.000770819251766,0.926070042118,0.0,0.0,0.0,0.0,0.0,0.0,0.0,0.0,0.0,0.0050311519106,-0.229936904793,0.00818657836775,0.0,0.0,0.0,0.0,0.0,0.0,0.0,0.0,0.0,1.07436390882,-0.0045781060199,9.54966206647,0.0,0.0,0.0,0.0,0.0,0.0,0.0,0.0,0.0
43268000000,56,43268000000,imu_link,-0.000571107685819,-0.377734853013,0.000790272672712,0.925913295144,0.0,0.0,0.0,0.0,0.0,0.0,0.0,0.0,0.0,0.00519215080735,-0.207579250151,0.00825873307893,0.0,0.0,0.0,0.0,0.0,0.0,0.0,0.0,0.0,1.1054866495,-0.0033882544328,9.58757245785,0.0,0.0,0.0,0.0,0.0,0.0,0.0,0.0,0.0
43272000000,57,43272000000,imu_link,-0.00056730608409,-0.378079180865,0.000809976402487,0.925772734043,0.0,0.0,0.0,0.0,0.0,0.0,0.0,0.0,0.0,0.00530517568674,-0.185963423046,0.00836119118253,0.0,0.0,0.0,0.0,0.0,0.0,0.0,0.0,0.0,1.13582959278,-0.00264838620573,9.61419511808,0.0,0.0,0.0,0.0,0.0,0.0,0.0,0.0,0.0
43276000000,58,43276000000,imu_link,-0.000563606628713,-0.378384450609,0.000829888853234,0.92564798988,0.0,0.0,0.0,0.0,0.0,0.0,0.0,0.0,0.0,0.0053176545773,-0.164893943704,0.00848178814138,0.0,0.0,0.0,0.0,0.0,0.0,0.0,0.0,0.0,1.16783192371,-0.00213633141892,9.64391464438,0.0,0.0,0.0,0.0,0.0,0.0,0.0,0.0,0.0
43280000000,59,43280000000,imu_link,-0.000559598508848,-0.378652387237,0.000850124583319,0.925538402109,0.0,0.0,0.0,0.0,0.0,0.0,0.0,0.0,0.0,0.00554143607952,-0.144748026285,0.00857724408878,0.0,0.0,0.0,0.0,0.0,0.0,0.0,0.0,0.0,1.2007706605,-0.00252040323876,9.66895432141,0.0,0.0,0.0,0.0,0.0,0.0,0.0,0.0,0.0
43284000000,60,43284000000,imu_link,-0.000555300369838,-0.378885164255,0.000870567579399,0.925443118761,0.0,0.0,0.0,0.0,0.0,0.0,0.0,0.0,0.0,0.0057338362299,-0.125769219238,0.0086220094614,0.0,0.0,0.0,0.0,0.0,0.0,0.0,0.0,0.0,1.2335897699,-0.00274932677041,9.68807332527,0.0,0.0,0.0,0.0,0.0,0.0,0.0,0.0,0.0
43288000000,61,43288000000,imu_link,-0.000551039114885,-0.379084428201,0.000890998256482,0.925361496267,0.0,0.0,0.0,0.0,0.0,0.0,0.0,0.0,0.0,0.00573281602586,-0.107674029996,0.00862665509632,0.0,0.0,0.0,0.0,0.0,0.0,0.0,0.0,0.0,1.26854538982,-0.00343078354723,9.7272315357,0.0,0.0,0.0,0.0,0.0,0.0,0.0,0.0,0.0
43292000000,62,43292000000,imu_link,-0.00054744624156,-0.379251363384,0.000911158103287,0.925293074363,0.0,0.0,0.0,0.0,0.0,0.0,0.0,0.0,0.0,0.00539027435496,-0.0902136910763,0.00863105996958,0.0,0.0,0.0,0.0,0.0,0.0,0.0,0.0,0.0,1.30309095171,-0.00408721013724,9.75614821911,0.0,0.0,0.0,0.0,0.0,0.0,0.0,0.0,0.0
43296000000,63,43296000000,imu_link,-0.000544681141925,-0.379387580195,0.000931002652939,0.925237213124,0.0,0.0,0.0,0.0,0.0,0.0,0.0,0.0,0.0,0.00496495204316,-0.073619653902,0.00864484189035,0.0,0.0,0.0,0.0,0.0,0.0,0.0,0.0,0.0,1.33781494789,-0.0053895388993,9.78798711591,0.0,0.0,0.0,0.0,0.0,0.0,0.0,0.0,0.0
43300000000,64,43300000000,imu_link,-0.000542300032954,-0.37949476194,0.000950725983642,0.925193238027,0.0,0.0,0.0,0.0,0.0,0.0,0.0,0.0,0.0,0.00478106925426,-0.0579325526254,0.00866397876987,0.0,0.0,0.0,0.0,0.0,0.0,0.0,0.0,0.0,1.37272354834,-0.00649975417744,9.81174455843,0.0,0.0,0.0,0.0,0.0,0.0,0.0,0.0,0.0
43304000000,65,43304000000,imu_link,-0.000539774854994,-0.379574215378,0.000970534417739,0.925160624825,0.0,0.0,0.0,0.0,0.0,0.0,0.0,0.0,0.0,0.00488012500261,-0.0429497329411,0.00867812807903,0.0,0.0,0.0,0.0,0.0,0.0,0.0,0.0,0.0,1.40733540342,-0.00704954392419,9.82529818318,0.0,0.0,0.0,0.0,0.0,0.0,0.0,0.0,0.0
43308000000,66,43308000000,imu_link,-0.000536580868323,-0.379627100862,0.000990580990324,0.925138905852,0.0,0.0,0.0,0.0,0.0,0.0,0.0,0.0,0.0,0.00525053112294,-0.0285927249533,0.00866323871048,0.0,0.0,0.0,0.0,0.0,0.0,0.0,0.0,0.0,1.44374630078,-0.00762377426343,9.86323766441,0.0,0.0,0.0,0.0,0.0,0.0,0.0,0.0,0.0
43312000000,67,43312000000,imu_link,-0.000531746250643,-0.379654710286,0.00101113916692,0.925127556503,0.0,0.0,0.0,0.0,0.0,0.0,0.0,0.0,0.0,0.00612184734291,-0.0149334465384,0.00859012244169,0.0,0.0,0.0,0.0,0.0,0.0,0.0,0.0,0.0,1.4790798494,-0.00775459438845,9.89169275266,0.0,0.0,0.0,0.0,0.0,0.0,0.0,0.0,0.0
43316000000,68,43316000000,imu_link,-0.000524942659694,-0.379658237429,0.00103225942258,0.925126089583,0.0,0.0,0.0,0.0,0.0,0.0,0.0,0.0,0.0,0.00715412377655,-0.0019190453282,0.00847776143748,0.0,0.0,0.0,0.0,0.0,0.0,0.0,0.0,0.0,1.51523854191,-0.00764383692909,9.92354505642,0.0,0.0,0.0,0.0,0.0,0.0,0.0,0.0,0.0
43320000000,69,43320000000,imu_link,-0.000516641327699,-0.379638938469,0.0010537538617,0.9251339898,0.0,0.0,0.0,0.0,0.0,0.0,0.0,0.0,0.0,0.00793219418965,0.0104167506693,0.00836768656007,0.0,0.0,0.0,0.0,0.0,0.0,0.0,0.0,0.0,1.55037138879,-0.00663708672079,9.94286860802,0.0,0.0,0.0,0.0,0.0,0.0,0.0,0.0,0.0
43324000000,70,43324000000,imu_link,-0.000507897258932,-0.379597922985,0.00107525153496,0.9251508,0.0,0.0,0.0,0.0,0.0,0.0,0.0,0.0,0.0,0.00815134708617,0.0221531523163,0.00828605787735,0.0,0.0,0.0,0.0,0.0,0.0,0.0,0.0,0.0,1.58563570944,-0.00600759123933,9.9618051569,0.0,0.0,0.0,0.0,0.0,0.0,0.0,0.0,0.0
43328000000,71,43328000000,imu_link,-0.000499707534416,-0.37953669947,0.0010964171576,0.925175897826,0.0,0.0,0.0,0.0,0.0,0.0,0.0,0.0,0.0,0.00784486720629,0.0330742552426,0.00823834955902,0.0,0.0,0.0,0.0,0.0,0.0,0.0,0.0,0.0,1.62227256198,-0.0055639356654,9.99634263263,0.0,0.0,0.0,0.0,0.0,0.0,0.0,0.0,0.0
43332000000,72,43332000000,imu_link,-0.000492234834558,-0.37945658413,0.00111716116281,0.925208738835,0.0,0.0,0.0,0.0,0.0,0.0,0.0,0.0,0.0,0.00744546193268,0.0432832954639,0.0081798583329,0.0,0.0,0.0,0.0,0.0,0.0,0.0,0.0,0.0,1.65851550775,-0.00597213160863,10.0218365324,0.0,0.0,0.0,0.0,0.0,0.0,0.0,0.0,0.0
43336000000,73,43336000000,imu_link,-0.000485419063021,-0.379358390324,0.00113742938137,0.925248983957,0.0,0.0,0.0,0.0,0.0,0.0,0.0,0.0,0.0,0.00706321440388,0.053051726705,0.00808470888103,0.0,0.0,0.0,0.0,0.0,0.0,0.0,0.0,0.0,1.69460362138,-0.00633145018557,10.0397263953,0.0,0.0,0.0,0.0,0.0,0.0,0.0,0.0,0.0
43340000000,74,43340000000,imu_link,-0.000479560543362,-0.379242616811,0.00115705624682,0.925296422146,0.0,0.0,0.0,0.0,0.0,0.0,0.0,0.0,0.0,0.00651045857543,0.0625496055583,0.00796974997135,0.0,0.0,0.0,0.0,0.0,0.0,0.0,0.0,0.0,1.73038901564,-0.00661338626639,10.0561725628,0.0,0.0,0.0,0.0,0.0,0.0,0.0,0.0,0.0
43344000000,75,43344000000,imu_link,-0.000475290292226,-0.379109885556,0.00117579636256,0.925350790931,0.0,0.0,0.0,0.0,0.0,0.0,0.0,0.0,0.0,0.00561897469872,0.0717103943238,0.00786072296117,0.0,0.0,0.0,0.0,0.0,0.0,0.0,0.0,0.0,1.76606858037,-0.00702753075723,10.0683746787,0.0,0.0,0.0,0.0,0.0,0.0,0.0,0.0,0.0
43348000000,76,43348000000,imu_link,-0.000473014674193,-0.378961602135,0.00119352615437,0.925411506228,0.0,0.0,0.0,0.0,0.0,0.0,0.0,0.0,0.0,0.00451524645301,0.0801104249357,0.00777132831347,0.0,0.0,0.0,0.0,0.0,0.0,0.0,0.0,0.0,1.8030208498,-0.00769724842104,10.1010041921,0.0,0.0,0.0,0.0,0.0,0.0,0.0,0.0,0.0
43352000000,77,43352000000,imu_link,-0.000472555625228,-0.378799621282,0.00121033720821,0.925477800215,0.0,0.0,0.0,0.0,0.0,0.0,0.0,0.0,0.0,0.00351011980645,0.0875066619017,0.0076903383375,0.0,0.0,0.0,0.0,0.0,0.0,0.0,0.0,0.0,1.83889643901,-0.00863989169995,10.1269668874,0.0,0.0,0.0,0.0,0.0,0.0,0.0,0.0,0.0
43356000000,78,43356000000,imu_link,-0.000473235980858,-0.378625560102,0.00122646501835,0.925549003062,0.0,0.0,0.0,0.0,0.0,0.0,0.0,0.0,0.0,0.00286193723669,0.0940272876473,0.00758986155686,0.0,0.0,0.0,0.0,0.0,0.0,0.0,0.0,0.0,1.87539917644,-0.00962857246357,10.1523783193,0.0,0.0,0.0,0.0,0.0,0.0,0.0,0.0,0.0
43360000000,79,43360000000,imu_link,-0.0004739641392,-0.378440529932,0.00124224458069,0.925624652595,0.0,0.0,0.0,0.0,0.0,0.0,0.0,0.0,0.0,0.00278166631311,0.0999453826961,0.00743761964221,0.0,0.0,0.0,0.0,0.0,0.0,0.0,0.0,0.0,1.91135324892,-0.0103540170747,10.1685791704,0.0,0.0,0.0,0.0,0.0,0.0,0.0,0.0,0.0
43364000000,80,43364000000,imu_link,-0.000473776806684,-0.378245532154,0.00125795480678,0.925704332112,0.0,0.0,0.0,0.0,0.0,0.0,0.0,0.0,0.0,0.00319939309529,0.105320517592,0.00723215958705,0.0,0.0,0.0,0.0,0.0,0.0,0.0,0.0,0.0,1.94687234458,-0.0107382993673,10.1780116233,0.0,0.0,0.0,0.0,0.0,0.0,0.0,0.0,0.0
43368000000,81,43368000000,imu_link,-0.000471886589372,-0.378041672755,0.00127383061196,0.925787582731,0.0,0.0,0.0,0.0,0.0,0.0,0.0,0.0,0.0,0.00402531152684,0.110096404774,0.00698659703049,0.0,0.0,0.0,0.0,0.0,0.0,0.0,0.0,0.0,1.98422103694,-0.0107132661402,10.2018869924,0.0,0.0,0.0,0.0,0.0,0.0,0.0,0.0,0.0
43372000000,82,43372000000,imu_link,-0.000468714060252,-0.377829924011,0.00128974664552,0.925874000814,0.0,0.0,0.0,0.0,0.0,0.0,0.0,0.0,0.0,0.00463226191168,0.114346224275,0.00676267888217,0.0,0.0,0.0,0.0,0.0,0.0,0.0,0.0,0.0,2.02103980664,-0.0101798236706,10.2221471678,0.0,0.0,0.0,0.0,0.0,0.0,0.0,0.0,0.0
43376000000,83,43376000000,imu_link,-0.000465084742179,-0.377611120021,0.00130548138867,0.925963239795,0.0,0.0,0.0,0.0,0.0,0.0,0.0,0.0,0.0,0.00481468880188,0.118145016887,0.00659229291302,0.0,0.0,0.0,0.0,0.0,0.0,0.0,0.0,0.0,2.058100362,-0.00983688033634,10.2383414714,0.0,0.0,0.0,0.0,0.0,0.0,0.0,0.0,0.0
43380000000,84,43380000000,imu_link,-0.000461286487267,-0.377385439158,0.00132097786278,0.926055221109,0.0,0.0,0.0,0.0,0.0,0.0,0.0,0.0,0.0,0.00485304346386,0.121846595898,0.00644989164478,0.0,0.0,0.0,0.0,0.0,0.0,0.0,0.0,0.0,2.09479865628,-0.00998420163404,10.2443849298,0.0,0.0,0.0,0.0,0.0,0.0,0.0,0.0,0.0
43384000000,85,43384000000,imu_link,-0.000457020133494,-0.37715311715,0.00133637731189,0.926149842872,0.0,0.0,0.0,0.0,0.0,0.0,0.0,0.0,0.0,0.00505647367008,0.125419576267,0.00631642730259,0.0,0.0,0.0,0.0,0.0,0.0,0.0,0.0,0.0,2.13048172004,-0.0102906521916,10.2476647125,0.0,0.0,0.0,0.0,0.0,0.0,0.0,0.0,0.0
43388000000,86,43388000000,imu_link,-0.000451997650271,-0.376914837141,0.00135181466241,0.92624682123,0.0,0.0,0.0,0.0,0.0,0.0,0.0,0.0,0.0,0.0054182851697,0.12862246178,0.00619117702937,0.0,0.0,0.0,0.0,0.0,0.0,0.0,0.0,0.0,2.16682167522,-0.0104076288347,10.2628506036,0.0,0.0,0.0,0.0,0.0,0.0,0.0,0.0,0.0
43392000000,87,43392000000,imu_link,-0.000446305005396,-0.376671425767,0.00136734763102,0.926345814576,0.0,0.0,0.0,0.0,0.0,0.0,0.0,0.0,0.0,0.00575059638768,0.131378183076,0.00610896080598,0.0,0.0,0.0,0.0,0.0,0.0,0.0,0.0,0.0,2.20258599135,-0.010299071652,10.2777068659,0.0,0.0,0.0,0.0,0.0,0.0,0.0,0.0,0.0
43396000000,88,43396000000,imu_link,-0.000440485109553,-0.376423600741,0.00138284499483,0.926446526529,0.0,0.0,0.0,0.0,0.0,0.0,0.0,0.0,0.0,0.00580623095277,0.133746062415,0.006068313688,0.0,0.0,0.0,0.0,0.0,0.0,0.0,0.0,0.0,2.23691429575,-0.0102637054057,10.2867446857,0.0,0.0,0.0,0.0,0.0,0.0,0.0,0.0,0.0
43400000000,89,43400000000,imu_link,-0.000435285987369,-0.376172154364,0.00139814989017,0.926548631203,0.0,0.0,0.0,0.0,0.0,0.0,0.0,0.0,0.0,0.00548525992927,0.135686155691,0.00609582936429,0.0,0.0,0.0,0.0,0.0,0.0,0.0,0.0,0.0,2.27153179256,-0.0104339028679,10.2964839502,0.0,0.0,0.0,0.0,0.0,0.0,0.0,0.0,0.0
43404000000,90,43404000000,imu_link,-0.000431144976539,-0.375917809211,0.00141316089079,0.926651832032,0.0,0.0,0.0,0.0,0.0,0.0,0.0,0.0,0.0,0.00494205162823,0.137236058947,0.00615855611773,0.0,0.0,0.0,0.0,0.0,0.0,0.0,0.0,0.0,2.30621687161,-0.0109321028229,10.3101202764,0.0,0.0,0.0,0.0,0.0,0.0,0.0,0.0,0.0
43408000000,91,43408000000,imu_link,-0.000428080735158,-0.37566068067,0.00142788842995,0.926756079495,0.0,0.0,0.0,0.0,0.0,0.0,0.0,0.0,0.0,0.00439206962713,0.138723221057,0.0062294699812,0.0,0.0,0.0,0.0,0.0,0.0,0.0,0.0,0.0,2.34000844764,-0.0114278551797,10.316062023,0.0,0.0,0.0,0.0,0.0,0.0,0.0,0.0,0.0
43412000000,92,43412000000,imu_link,-0.000425478999714,-0.375400791344,0.00144251034854,0.926861361796,0.0,0.0,0.0,0.0,0.0,0.0,0.0,0.0,0.0,0.00416010832171,0.140197234962,0.00626725248349,0.0,0.0,0.0,0.0,0.0,0.0,0.0,0.0,0.0,2.37379081432,-0.011834590647,10.3205692803,0.0,0.0,0.0,0.0,0.0,0.0,0.0,0.0,0.0
43416000000,93,43416000000,imu_link,-0.000422783775457,-0.375137737755,0.00145718011906,0.926967839567,0.0,0.0,0.0,0.0,0.0,0.0,0.0,0.0,0.0,0.0042149523028,0.141887964687,0.00627169157775,0.0,0.0,0.0,0.0,0.0,0.0,0.0,0.0,0.0,2.40749438138,-0.0118275228852,10.3199730949,0.0,0.0,0.0,0.0,0.0,0.0,0.0,0.0,0.0
43420000000,94,43420000000,imu_link,-0.000419692217764,-0.374871653616,0.00147193338125,0.927075455713,0.0,0.0,0.0,0.0,0.0,0.0,0.0,0.0,0.0,0.00441675560099,0.143505793525,0.00623586004203,0.0,0.0,0.0,0.0,0.0,0.0,0.0,0.0,0.0,2.44119990483,-0.0118491612043,10.3199948286,0.0,0.0,0.0,0.0,0.0,0.0,0.0,0.0,0.0
43424000000,95,43424000000,imu_link,-0.000416098168664,-0.374602725035,0.00148671174338,0.927184132169,0.0,0.0,0.0,0.0,0.0,0.0,0.0,0.0,0.0,0.00465669988369,0.145022664423,0.00615312646184,0.0,0.0,0.0,0.0,0.0,0.0,0.0,0.0,0.0,2.47539279894,-0.0120534231808,10.3196089237,0.0,0.0,0.0,0.0,0.0,0.0,0.0,0.0,0.0
43428000000,96,43428000000,imu_link,-0.000412164718587,-0.374331429899,0.00150139529308,0.927293673289,0.0,0.0,0.0,0.0,0.0,0.0,0.0,0.0,0.0,0.00479822408127,0.146281500886,0.00604545151427,0.0,0.0,0.0,0.0,0.0,0.0,0.0,0.0,0.0,2.51035710117,-0.0125255477456,10.3275661594,0.0,0.0,0.0,0.0,0.0,0.0,0.0,0.0,0.0
43432000000,97,43432000000,imu_link,-0.000408465663115,-0.374058155711,0.00151580227514,0.927403920439,0.0,0.0,0.0,0.0,0.0,0.0,0.0,0.0,0.0,0.00463941495062,0.147331460328,0.00596097026915,0.0,0.0,0.0,0.0,0.0,0.0,0.0,0.0,0.0,2.54395874404,-0.0127881104811,10.3327928892,0.0,0.0,0.0,0.0,0.0,0.0,0.0,0.0,0.0
43436000000,98,43436000000,imu_link,-0.000405349971707,-0.37378292195,0.00152988413454,0.927514863711,0.0,0.0,0.0,0.0,0.0,0.0,0.0,0.0,0.0,0.00430972781987,0.148370821398,0.00591918891367,0.0,0.0,0.0,0.0,0.0,0.0,0.0,0.0,0.0,2.57722866947,-0.0130506676919,10.3301033878,0.0,0.0,0.0,0.0,0.0,0.0,0.0,0.0,0.0
43440000000,99,43440000000,imu_link,-0.000403104529057,-0.373505892887,0.00154361045987,0.927626434915,0.0,0.0,0.0,0.0,0.0,0.0,0.0,0.0,0.0,0.00384119775972,0.149321499089,0.00591683294632,0.0,0.0,0.0,0.0,0.0,0.0,0.0,0.0,0.0,2.6107609964,-0.0130460804168,10.3273027433,0.0,0.0,0.0,0.0,0.0,0.0,0.0,0.0,0.0
43444000000,100,43444000000,imu_link,-0.000401163088491,-0.373227434643,0.00155723039386,0.927738484774,0.0,0.0,0.0,0.0,0.0,0.0,0.0,0.0,0.0,0.00368152819631,0.150074018468,0.00592417914815,0.0,0.0,0.0,0.0,0.0,0.0,0.0,0.0,0.0,2.64098918812,-0.0133581849512,10.3251135448,0.0,0.0,0.0,0.0,0.0,0.0,0.0,0.0,0.0
43448000000,101,43448000000,imu_link,-0.000398925314721,-0.372948032051,0.00157096121771,0.92785081685,0.0,0.0,0.0,0.0,0.0,0.0,0.0,0.0,0.0,0.00384047352361,0.150564485205,0.00592028738589,0.0,0.0,0.0,0.0,0.0,0.0,0.0,0.0,0.0,2.67223132061,-0.0136432468608,10.3285503693,0.0,0.0,0.0,0.0,0.0,0.0,0.0,0.0,0.0
43452000000,102,43452000000,imu_link,-0.000396079617276,-0.372668392399,0.00158490140872,0.927963146098,0.0,0.0,0.0,0.0,0.0,0.0,0.0,0.0,0.0,0.00416173195499,0.150673417119,0.00590410566701,0.0,0.0,0.0,0.0,0.0,0.0,0.0,0.0,0.0,2.70398365636,-0.0140164005682,10.3353915338,0.0,0.0,0.0,0.0,0.0,0.0,0.0,0.0,0.0
43456000000,103,43456000000,imu_link,-0.000392637337613,-0.372389343578,0.00159903908185,0.928075140115,0.0,0.0,0.0,0.0,0.0,0.0,0.0,0.0,0.0,0.00447479820326,0.150336305006,0.00588471870997,0.0,0.0,0.0,0.0,0.0,0.0,0.0,0.0,0.0,2.7345359615,-0.0142123518154,10.3371175215,0.0,0.0,0.0,0.0,0.0,0.0,0.0,0.0,0.0
43460000000,104,43460000000,imu_link,-0.000388964512281,-0.372111684429,0.00161326531045,0.92818647932,0.0,0.0,0.0,0.0,0.0,0.0,0.0,0.0,0.0,0.00459702899459,0.14956932127,0.0058831361128,0.0,0.0,0.0,0.0,0.0,0.0,0.0,0.0,0.0,2.7649226164,-0.0140404416664,10.3390540453,0.0,0.0,0.0,0.0,0.0,0.0,0.0,0.0,0.0
43464000000,105,43464000000,imu_link,-0.000385463005579,-0.371835721994,0.0016274738817,0.928297042221,0.0,0.0,0.0,0.0,0.0,0.0,0.0,0.0,0.0,0.0045127163132,0.148637592974,0.00590711249544,0.0,0.0,0.0,0.0,0.0,0.0,0.0,0.0,0.0,2.79569222224,-0.0136778984694,10.3381816964,0.0,0.0,0.0,0.0,0.0,0.0,0.0,0.0,0.0
43468000000,106,43468000000,imu_link,-0.000382687665803,-0.371561420023,0.00164150346648,0.928406845174,0.0,0.0,0.0,0.0,0.0,0.0,0.0,0.0,0.0,0.00414089256179,0.147726228117,0.00595934196629,0.0,0.0,0.0,0.0,0.0,0.0,0.0,0.0,0.0,2.82680455242,-0.0134782919124,10.3363952758,0.0,0.0,0.0,0.0,0.0,0.0,0.0,0.0,0.0
43472000000,107,43472000000,imu_link,-0.000380840316489,-0.371288428462,0.00165524820857,0.92851603002,0.0,0.0,0.0,0.0,0.0,0.0,0.0,0.0,0.0,0.00365600412069,0.147003915382,0.00599977631371,0.0,0.0,0.0,0.0,0.0,0.0,0.0,0.0,0.0,2.85786356031,-0.0137910796989,10.3294029397,0.0,0.0,0.0,0.0,0.0,0.0,0.0,0.0,0.0
43476000000,108,43476000000,imu_link,-0.00037970797929,-0.37101671006,0.0016687359956,0.92862461307,0.0,0.0,0.0,0.0,0.0,0.0,0.0,0.0,0.0,0.00327518348633,0.14630176198,0.00601347635299,0.0,0.0,0.0,0.0,0.0,0.0,0.0,0.0,0.0,2.8885787016,-0.0145137286319,10.3192040789,0.0,0.0,0.0,0.0,0.0,0.0,0.0,0.0,0.0
43480000000,109,43480000000,imu_link,-0.000379283960111,-0.370746385855,0.00168195339094,0.928732547374,0.0,0.0,0.0,0.0,0.0,0.0,0.0,0.0,0.0,0.00289485633736,0.145534713342,0.00601960567148,0.0,0.0,0.0,0.0,0.0,0.0,0.0,0.0,0.0,2.91863029573,-0.0151655066089,10.3119617362,0.0,0.0,0.0,0.0,0.0,0.0,0.0,0.0,0.0
43484000000,110,43484000000,imu_link,-0.000379810689976,-0.370478105658,0.00169482464827,0.928839575245,0.0,0.0,0.0,0.0,0.0,0.0,0.0,0.0,0.0,0.00238730495312,0.144418381643,0.00603548889283,0.0,0.0,0.0,0.0,0.0,0.0,0.0,0.0,0.0,2.94943918348,-0.0156476526923,10.3096590763,0.0,0.0,0.0,0.0,0.0,0.0,0.0,0.0,0.0
43488000000,111,43488000000,imu_link,-0.000382003763907,-0.370212445635,0.00170711540586,0.928945469297,0.0,0.0,0.0,0.0,0.0,0.0,0.0,0.0,0.0,0.00150345485041,0.142993015246,0.00607502855046,0.0,0.0,0.0,0.0,0.0,0.0,0.0,0.0,0.0,2.97984574425,-0.0158153786503,10.3083708126,0.0,0.0,0.0,0.0,0.0,0.0,0.0,0.0,0.0
43492000000,112,43492000000,imu_link,-0.00038663735129,-0.369949439227,0.00171856428446,0.929050219022,0.0,0.0,0.0,0.0,0.0,0.0,0.0,0.0,0.0,0.000211582219369,0.141550905615,0.00613622284159,0.0,0.0,0.0,0.0,0.0,0.0,0.0,0.0,0.0,3.0092323021,-0.0160793204403,10.3050704861,0.0,0.0,0.0,0.0,0.0,0.0,0.0,0.0,0.0
43496000000,113,43496000000,imu_link,-0.000393882888626,-0.369688740493,0.00172911671688,0.929153964725,0.0,0.0,0.0,0.0,0.0,0.0,0.0,0.0,0.0,-0.00116973109305,0.140295631757,0.00620336241424,0.0,0.0,0.0,0.0,0.0,0.0,0.0,0.0,0.0,3.03632368177,-0.0165723076777,10.2891746283,0.0,0.0,0.0,0.0,0.0,0.0,0.0,0.0,0.0
43500000000,114,43500000000,imu_link,-0.000403283833168,-0.369430084495,0.00173892702206,0.929256813892,0.0,0.0,0.0,0.0,0.0,0.0,0.0,0.0,0.0,-0.00231020438547,0.139182913668,0.00625737486891,0.0,0.0,0.0,0.0,0.0,0.0,0.0,0.0,0.0,3.06387569746,-0.0172085169567,10.2782461383,0.0,0.0,0.0,0.0,0.0,0.0,0.0,0.0,0.0
43504000000,115,43504000000,imu_link,-0.000413701222267,-0.369173854858,0.0017483546127,0.929358615926,0.0,0.0,0.0,0.0,0.0,0.0,0.0,0.0,0.0,-0.00285548733011,0.137863096841,0.00626772860775,0.0,0.0,0.0,0.0,0.0,0.0,0.0,0.0,0.0,3.09128613424,-0.0177588144731,10.2730565335,0.0,0.0,0.0,0.0,0.0,0.0,0.0,0.0,0.0
43508000000,116,43508000000,imu_link,-0.000424040860394,-0.36892058302,0.00175772016775,0.929459162112,0.0,0.0,0.0,0.0,0.0,0.0,0.0,0.0,0.0,-0.00283365443213,0.136256800409,0.00622503614367,0.0,0.0,0.0,0.0,0.0,0.0,0.0,0.0,0.0,3.1191347816,-0.0178310215364,10.2724931634,0.0,0.0,0.0,0.0,0.0,0.0,0.0,0.0,0.0
43512000000,117,43512000000,imu_link,-0.00043351066471,-0.368670285153,0.00176722929957,0.929558448842,0.0,0.0,0.0,0.0,0.0,0.0,0.0,0.0,0.0,-0.00240581343242,0.13464159323,0.00613178705328,0.0,0.0,0.0,0.0,0.0,0.0,0.0,0.0,0.0,3.14596421769,-0.0177345503055,10.265937618,0.0,0.0,0.0,0.0,0.0,0.0,0.0,0.0,0.0
43516000000,118,43516000000,imu_link,-0.000441640147173,-0.368422612663,0.00177702409039,0.929656617046,0.0,0.0,0.0,0.0,0.0,0.0,0.0,0.0,0.0,-0.00173276492956,0.133213943113,0.00601790627605,0.0,0.0,0.0,0.0,0.0,0.0,0.0,0.0,0.0,3.1716650853,-0.0176477778655,10.2489921231,0.0,0.0,0.0,0.0,0.0,0.0,0.0,0.0,0.0
43520000000,119,43520000000,imu_link,-0.000448120220952,-0.368176945139,0.00178719949743,0.929753914848,0.0,0.0,0.0,0.0,0.0,0.0,0.0,0.0,0.0,-0.00089793288013,0.132120089896,0.00589131835699,0.0,0.0,0.0,0.0,0.0,0.0,0.0,0.0,0.0,3.19788499787,-0.0177470699152,10.2310846894,0.0,0.0,0.0,0.0,0.0,0.0,0.0,0.0,0.0
43524000000,120,43524000000,imu_link,-0.000452961754084,-0.367932837289,0.00179772369023,0.929850520385,0.0,0.0,0.0,0.0,0.0,0.0,0.0,0.0,0.0,-7.35544562408e-05,0.131266053181,0.0057520935143,0.0,0.0,0.0,0.0,0.0,0.0,0.0,0.0,0.0,3.2238156232,-0.0176820204385,10.2178243079,0.0,0.0,0.0,0.0,0.0,0.0,0.0,0.0,0.0
43528000000,121,43528000000,imu_link,-0.000456203789716,-0.367690046233,0.00180852960102,0.929946531259,0.0,0.0,0.0,0.0,0.0,0.0,0.0,0.0,0.0,0.000720600716712,0.13054294275,0.00558905378043,0.0,0.0,0.0,0.0,0.0,0.0,0.0,0.0,0.0,3.24907378812,-0.0175676222438,10.2024849819,0.0,0.0,0.0,0.0,0.0,0.0,0.0,0.0,0.0
43532000000,122,43532000000,imu_link,-0.000458004951208,-0.367448209598,0.00181946358642,0.930042092083,0.0,0.0,0.0,0.0,0.0,0.0,0.0,0.0,0.0,0.00141314886564,0.13001509094,0.00538389675708,0.0,0.0,0.0,0.0,0.0,0.0,0.0,0.0,0.0,3.27536515315,-0.0174671437689,10.1906166009,0.0,0.0,0.0,0.0,0.0,0.0,0.0,0.0,0.0
43536000000,123,43536000000,imu_link,-0.000458375524162,-0.367207390183,0.0018304635667,0.930137179071,0.0,0.0,0.0,0.0,0.0,0.0,0.0,0.0,0.0,0.00208949361201,0.129453690236,0.00515195028313,0.0,0.0,0.0,0.0,0.0,0.0,0.0,0.0,0.0,3.29932233544,-0.0173688080296,10.1731356016,0.0,0.0,0.0,0.0,0.0,0.0,0.0,0.0,0.0
43540000000,124,43540000000,imu_link,-0.000457427029322,-0.36696799643,0.00184150523706,0.930231632022,0.0,0.0,0.0,0.0,0.0,0.0,0.0,0.0,0.0,0.00270915495772,0.128673031524,0.00492940684301,0.0,0.0,0.0,0.0,0.0,0.0,0.0,0.0,0.0,3.32426672252,-0.0173769843596,10.1627582629,0.0,0.0,0.0,0.0,0.0,0.0,0.0,0.0,0.0
43548000000,125,43548000000,imu_link,-0.000452658840943,-0.366496117239,0.00186389368313,0.930417603579,0.0,0.0,0.0,0.0,0.0,0.0,0.0,0.0,0.0,0.00364969989593,0.126038056772,0.00469822409899,0.0,0.0,0.0,0.0,0.0,0.0,0.0,0.0,0.0,3.35960668612,-0.0172324971979,10.1536257682,0.0,0.0,0.0,0.0,0.0,0.0,0.0,0.0,0.0
43552000000,126,43552000000,imu_link,-0.000448508538238,-0.366264825423,0.00187562963036,0.930508655796,0.0,0.0,0.0,0.0,0.0,0.0,0.0,0.0,0.0,0.0043175065009,0.124277610398,0.00466662349551,0.0,0.0,0.0,0.0,0.0,0.0,0.0,0.0,0.0,3.39850202014,-0.0170422469129,10.1386175272,0.0,0.0,0.0,0.0,0.0,0.0,0.0,0.0,0.0
43556000000,127,43556000000,imu_link,-0.000442833509021,-0.366036632122,0.00188790854851,0.930598422331,0.0,0.0,0.0,0.0,0.0,0.0,0.0,0.0,0.0,0.0051231335515,0.122599010593,0.0046405270943,0.0,0.0,0.0,0.0,0.0,0.0,0.0,0.0,0.0,3.42199669418,-0.0166433757304,10.1184950919,0.0,0.0,0.0,0.0,0.0,0.0,0.0,0.0,0.0
43560000000,128,43560000000,imu_link,-0.000435741634206,-0.365811508492,0.00190066654289,0.930686917202,0.0,0.0,0.0,0.0,0.0,0.0,0.0,0.0,0.0,0.00586689123708,0.120936514533,0.00460465290009,0.0,0.0,0.0,0.0,0.0,0.0,0.0,0.0,0.0,3.44563047353,-0.0164471180706,10.1027037957,0.0,0.0,0.0,0.0,0.0,0.0,0.0,0.0,0.0
43564000000,129,43564000000,imu_link,-0.000427347294556,-0.3655898284,0.00191385016922,0.930773996157,0.0,0.0,0.0,0.0,0.0,0.0,0.0,0.0,0.0,0.00654725427888,0.119073776046,0.00456508497224,0.0,0.0,0.0,0.0,0.0,0.0,0.0,0.0,0.0,3.46886580806,-0.0164852404191,10.0919170459,0.0,0.0,0.0,0.0,0.0,0.0,0.0,0.0,0.0
43568000000,130,43568000000,imu_link,-0.000417841797445,-0.365372182569,0.00192741663227,0.930859430139,0.0,0.0,0.0,0.0,0.0,0.0,0.0,0.0,0.0,0.00713014115726,0.116894445518,0.00454085036944,0.0,0.0,0.0,0.0,0.0,0.0,0.0,0.0,0.0,3.49249055098,-0.0166782158636,10.0812064604,0.0,0.0,0.0,0.0,0.0,0.0,0.0,0.0,0.0
43572000000,131,43572000000,imu_link,-0.000407651347658,-0.365159471461,0.00194125721822,0.930942869215,0.0,0.0,0.0,0.0,0.0,0.0,0.0,0.0,0.0,0.00749384451665,0.114232520025,0.00454419551845,0.0,0.0,0.0,0.0,0.0,0.0,0.0,0.0,0.0,3.51585894813,-0.0166748718968,10.0773338279,0.0,0.0,0.0,0.0,0.0,0.0,0.0,0.0,0.0
43576000000,132,43576000000,imu_link,-0.000397377655017,-0.364952076232,0.00195517087319,0.931024168028,0.0,0.0,0.0,0.0,0.0,0.0,0.0,0.0,0.0,0.00754033661559,0.111367265553,0.00456400248358,0.0,0.0,0.0,0.0,0.0,0.0,0.0,0.0,0.0,3.53800886983,-0.0167916434237,10.0619740608,0.0,0.0,0.0,0.0,0.0,0.0,0.0,0.0,0.0
43580000000,133,43580000000,imu_link,-0.000387617886669,-0.364749732205,0.00196900097893,0.93110343445,0.0,0.0,0.0,0.0,0.0,0.0,0.0,0.0,0.0,0.00728051110466,0.10864552608,0.00461987139077,0.0,0.0,0.0,0.0,0.0,0.0,0.0,0.0,0.0,3.55990119137,-0.0169642934767,10.0421393772,0.0,0.0,0.0,0.0,0.0,0.0,0.0,0.0,0.0
43584000000,134,43584000000,imu_link,-0.000378741134097,-0.364551687276,0.00198261909981,0.931180966881,0.0,0.0,0.0,0.0,0.0,0.0,0.0,0.0,0.0,0.00682619233917,0.106328747082,0.00468309527191,0.0,0.0,0.0,0.0,0.0,0.0,0.0,0.0,0.0,3.58110091137,-0.0174172639961,10.0235146625,0.0,0.0,0.0,0.0,0.0,0.0,0.0,0.0,0.0
43588000000,135,43588000000,imu_link,-0.000370741793037,-0.364357109052,0.00199598774554,0.931257094291,0.0,0.0,0.0,0.0,0.0,0.0,0.0,0.0,0.0,0.00636850193078,0.10445949825,0.0047276092476,0.0,0.0,0.0,0.0,0.0,0.0,0.0,0.0,0.0,3.60215019771,-0.0178324186079,10.003029258,0.0,0.0,0.0,0.0,0.0,0.0,0.0,0.0,0.0
43592000000,136,43592000000,imu_link,-0.000363146667236,-0.3641654819,0.00200920026896,0.931332020834,0.0,0.0,0.0,0.0,0.0,0.0,0.0,0.0,0.0,0.00614867786548,0.102867054626,0.00472920501118,0.0,0.0,0.0,0.0,0.0,0.0,0.0,0.0,0.0,3.62332494688,-0.018264686395,9.98499397977,0.0,0.0,0.0,0.0,0.0,0.0,0.0,0.0,0.0
43596000000,137,43596000000,imu_link,-0.000355491337247,-0.36397690628,0.00202239665574,0.931405709255,0.0,0.0,0.0,0.0,0.0,0.0,0.0,0.0,0.0,0.006170484324,0.101220562114,0.00471141832176,0.0,0.0,0.0,0.0,0.0,0.0,0.0,0.0,0.0,3.64396487862,-0.0183218250617,9.96566586444,0.0,0.0,0.0,0.0,0.0,0.0,0.0,0.0,0.0
43600000000,138,43600000000,imu_link,-0.000347684453377,-0.363791752159,0.00203559992997,0.931478017191,0.0,0.0,0.0,0.0,0.0,0.0,0.0,0.0,0.0,0.00623861164147,0.0993757725709,0.00468783255415,0.0,0.0,0.0,0.0,0.0,0.0,0.0,0.0,0.0,3.66531854938,-0.0180615887083,9.95137196916,0.0,0.0,0.0,0.0,0.0,0.0,0.0,0.0,0.0
43604000000,139,43604000000,imu_link,-0.000340073109079,-0.363610248719,0.00204867009636,0.931548857724,0.0,0.0,0.0,0.0,0.0,0.0,0.0,0.0,0.0,0.0061193587012,0.0974088162008,0.00466226575561,0.0,0.0,0.0,0.0,0.0,0.0,0.0,0.0,0.0,3.68681700752,-0.0179789658984,9.93899579715,0.0,0.0,0.0,0.0,0.0,0.0,0.0,0.0,0.0
43608000000,140,43608000000,imu_link,-0.000333477737185,-0.363432198123,0.002061377321,0.931618310728,0.0,0.0,0.0,0.0,0.0,0.0,0.0,0.0,0.0,0.00557638724919,0.0955494117908,0.0046787599379,0.0,0.0,0.0,0.0,0.0,0.0,0.0,0.0,0.0,3.70766871231,-0.0180997025676,9.92189618106,0.0,0.0,0.0,0.0,0.0,0.0,0.0,0.0,0.0
43612000000,141,43612000000,imu_link,-0.000328632028471,-0.3632567866,0.00207355964892,0.931686695913,0.0,0.0,0.0,0.0,0.0,0.0,0.0,0.0,0.0,0.00466309780973,0.0941279583696,0.00475286076412,0.0,0.0,0.0,0.0,0.0,0.0,0.0,0.0,0.0,3.72930748133,-0.0187325467324,9.90504943151,0.0,0.0,0.0,0.0,0.0,0.0,0.0,0.0,0.0
43616000000,142,43616000000,imu_link,-0.000325930922536,-0.363083164372,0.00208513537297,0.931754346236,0.0,0.0,0.0,0.0,0.0,0.0,0.0,0.0,0.0,0.00355189650941,0.0931632784111,0.00486026702427,0.0,0.0,0.0,0.0,0.0,0.0,0.0,0.0,0.0,3.747591989,-0.0193030687529,9.87882705627,0.0,0.0,0.0,0.0,0.0,0.0,0.0,0.0,0.0
43620000000,143,43620000000,imu_link,-0.000325288617292,-0.36291088627,0.00209614677061,0.931821436211,0.0,0.0,0.0,0.0,0.0,0.0,0.0,0.0,0.0,0.00248880687587,0.0924375931886,0.00497148332069,0.0,0.0,0.0,0.0,0.0,0.0,0.0,0.0,0.0,3.76600550923,-0.0198248738081,9.85722361142,0.0,0.0,0.0,0.0,0.0,0.0,0.0,0.0,0.0
43624000000,144,43624000000,imu_link,-0.000325907786077,-0.362740334594,0.00210683478824,0.931887817653,0.0,0.0,0.0,0.0,0.0,0.0,0.0,0.0,0.0,0.00184046886754,0.0915060397333,0.00505018023495,0.0,0.0,0.0,0.0,0.0,0.0,0.0,0.0,0.0,3.78581494435,-0.0203355977145,9.84775068664,0.0,0.0,0.0,0.0,0.0,0.0,0.0,0.0,0.0
43628000000,145,43628000000,imu_link,-0.000326893415203,-0.362572149555,0.00211749795292,0.931953242234,0.0,0.0,0.0,0.0,0.0,0.0,0.0,0.0,0.0,0.00166256233756,0.0902301639375,0.0051056874496,0.0,0.0,0.0,0.0,0.0,0.0,0.0,0.0,0.0,3.80312129597,-0.0208797505508,9.83277592342,0.0,0.0,0.0,0.0,0.0,0.0,0.0,0.0,0.0
43632000000,146,43632000000,imu_link,-0.000327629839399,-0.362406722313,0.00212833705555,0.932017559096,0.0,0.0,0.0,0.0,0.0,0.0,0.0,0.0,0.0,0.00180748024383,0.0887439882581,0.00514321508172,0.0,0.0,0.0,0.0,0.0,0.0,0.0,0.0,0.0,3.82107607175,-0.0212960422034,9.81942013921,0.0,0.0,0.0,0.0,0.0,0.0,0.0,0.0,0.0
43636000000,147,43636000000,imu_link,-0.000328004160224,-0.362243739556,0.00213933525088,0.932080891774,0.0,0.0,0.0,0.0,0.0,0.0,0.0,0.0,0.0,0.00200228915682,0.0874260878971,0.0051523862138,0.0,0.0,0.0,0.0,0.0,0.0,0.0,0.0,0.0,3.83742219905,-0.0217001908311,9.79389404992,0.0,0.0,0.0,0.0,0.0,0.0,0.0,0.0,0.0
43640000000,148,43640000000,imu_link,-0.000328465639841,-0.362083088723,0.0021503280793,0.932143285692,0.0,0.0,0.0,0.0,0.0,0.0,0.0,0.0,0.0,0.00195804922758,0.0861693807518,0.00516629310409,0.0,0.0,0.0,0.0,0.0,0.0,0.0,0.0,0.0,3.85507032464,-0.0216774955556,9.77619776575,0.0,0.0,0.0,0.0,0.0,0.0,0.0,0.0,0.0
43644000000,149,43644000000,imu_link,-0.000329676100499,-0.361924797901,0.00216113284923,0.932204731528,0.0,0.0,0.0,0.0,0.0,0.0,0.0,0.0,0.0,0.00157223089252,0.0848986407033,0.0052148728091,0.0,0.0,0.0,0.0,0.0,0.0,0.0,0.0,0.0,3.87310664763,-0.0215010584992,9.75983686574,0.0,0.0,0.0,0.0,0.0,0.0,0.0,0.0,0.0
43648000000,150,43648000000,imu_link,-0.00033190765119,-0.361768873476,0.00217165088646,0.93226522833,0.0,0.0,0.0,0.0,0.0,0.0,0.0,0.0,0.0,0.00104169707996,0.0836250683134,0.0052666403406,0.0,0.0,0.0,0.0,0.0,0.0,0.0,0.0,0.0,3.8911212843,-0.0212120455198,9.74136252396,0.0,0.0,0.0,0.0,0.0,0.0,0.0,0.0,0.0
43652000000,151,43652000000,imu_link,-0.000335081466023,-0.361615663258,0.00218184234715,0.932324642692,0.0,0.0,0.0,0.0,0.0,0.0,0.0,0.0,0.0,0.000540277623377,0.0821651688416,0.00528557819216,0.0,0.0,0.0,0.0,0.0,0.0,0.0,0.0,0.0,3.90987319353,-0.0212530392642,9.72779553716,0.0,0.0,0.0,0.0,0.0,0.0,0.0,0.0,0.0
43656000000,152,43656000000,imu_link,-0.000338790721192,-0.361465265061,0.00219178919345,0.932382938194,0.0,0.0,0.0,0.0,0.0,0.0,0.0,0.0,0.0,0.000243192163618,0.0806526370675,0.0052691094424,0.0,0.0,0.0,0.0,0.0,0.0,0.0,0.0,0.0,3.92689935361,-0.0216333518704,9.70571453829,0.0,0.0,0.0,0.0,0.0,0.0,0.0,0.0,0.0
43660000000,153,43660000000,imu_link,-0.000342690972105,-0.36131773379,0.00220158388428,0.932440095041,0.0,0.0,0.0,0.0,0.0,0.0,0.0,0.0,0.0,0.00012331738512,0.0791105436378,0.00523345722165,0.0,0.0,0.0,0.0,0.0,0.0,0.0,0.0,0.0,3.94485444539,-0.0220164791154,9.6864062596,0.0,0.0,0.0,0.0,0.0,0.0,0.0,0.0,0.0
43664000000,154,43664000000,imu_link,-0.000346675662218,-0.361173074759,0.00221127936751,0.932496112662,0.0,0.0,0.0,0.0,0.0,0.0,0.0,0.0,0.0,6.267046285e-05,0.0775657463173,0.00520322123987,0.0,0.0,0.0,0.0,0.0,0.0,0.0,0.0,0.0,3.96212149616,-0.0222547276525,9.66828541862,0.0,0.0,0.0,0.0,0.0,0.0,0.0,0.0,0.0
43668000000,155,43668000000,imu_link,-0.000351088857693,-0.361031548626,0.00222077710061,0.932550891792,0.0,0.0,0.0,0.0,0.0,0.0,0.0,0.0,0.0,-0.000176508876091,0.0758818918471,0.00518922920163,0.0,0.0,0.0,0.0,0.0,0.0,0.0,0.0,0.0,3.97859338714,-0.022339122666,9.64981023889,0.0,0.0,0.0,0.0,0.0,0.0,0.0,0.0,0.0
43672000000,156,43672000000,imu_link,-0.00035643883036,-0.360893572888,0.00222995026679,0.932604272626,0.0,0.0,0.0,0.0,0.0,0.0,0.0,0.0,0.0,-0.000676082315704,0.0739751122432,0.00520792406998,0.0,0.0,0.0,0.0,0.0,0.0,0.0,0.0,0.0,3.99569895671,-0.0223780595796,9.63725028037,0.0,0.0,0.0,0.0,0.0,0.0,0.0,0.0,0.0
43676000000,157,43676000000,imu_link,-0.000363173382425,-0.36075924276,0.00223870426749,0.932656220197,0.0,0.0,0.0,0.0,0.0,0.0,0.0,0.0,0.0,-0.00140167191635,0.0720181473548,0.00526325754932,0.0,0.0,0.0,0.0,0.0,0.0,0.0,0.0,0.0,4.01045283392,-0.0225634987166,9.61628239241,0.0,0.0,0.0,0.0,0.0,0.0,0.0,0.0,0.0
43680000000,158,43680000000,imu_link,-0.000371458206506,-0.360628379293,0.00224702068519,0.932706805467,0.0,0.0,0.0,0.0,0.0,0.0,0.0,0.0,0.0,-0.0022076661896,0.0701576294037,0.00533973316488,0.0,0.0,0.0,0.0,0.0,0.0,0.0,0.0,0.0,4.02569577995,-0.0228833653126,9.59612002631,0.0,0.0,0.0,0.0,0.0,0.0,0.0,0.0,0.0
43684000000,159,43684000000,imu_link,-0.000381247419472,-0.360500617755,0.00225493115908,0.932756170998,0.0,0.0,0.0,0.0,0.0,0.0,0.0,0.0,0.0,-0.00298615209116,0.0684928631103,0.00542247682179,0.0,0.0,0.0,0.0,0.0,0.0,0.0,0.0,0.0,4.04167669943,-0.0232671622297,9.57895866601,0.0,0.0,0.0,0.0,0.0,0.0,0.0,0.0,0.0
43688000000,160,43688000000,imu_link,-0.000392334674587,-0.360375712995,0.00226251327682,0.932804412828,0.0,0.0,0.0,0.0,0.0,0.0,0.0,0.0,0.0,-0.00365415192704,0.0669595036113,0.00550403357236,0.0,0.0,0.0,0.0,0.0,0.0,0.0,0.0,0.0,4.05684074672,-0.0236060018596,9.55931852034,0.0,0.0,0.0,0.0,0.0,0.0,0.0,0.0,0.0
43692000000,161,43692000000,imu_link,-0.000404520310923,-0.360253359287,0.00226983375968,0.932851650232,0.0,0.0,0.0,0.0,0.0,0.0,0.0,0.0,0.0,-0.0042166657144,0.0655899957352,0.00558055727294,0.0,0.0,0.0,0.0,0.0,0.0,0.0,0.0,0.0,4.07263732696,-0.0236880057762,9.54248086281,0.0,0.0,0.0,0.0,0.0,0.0,0.0,0.0,0.0
43696000000,162,43696000000,imu_link,-0.000417803175922,-0.360133414985,0.00227688117435,0.932897939039,0.0,0.0,0.0,0.0,0.0,0.0,0.0,0.0,0.0,-0.00478055470971,0.0642966190035,0.00565142061968,0.0,0.0,0.0,0.0,0.0,0.0,0.0,0.0,0.0,4.08697681594,-0.0237712925099,9.51979711007,0.0,0.0,0.0,0.0,0.0,0.0,0.0,0.0,0.0
43700000000,163,43700000000,imu_link,-0.000432246395252,-0.360015861982,0.00228360761022,0.932943287355,0.0,0.0,0.0,0.0,0.0,0.0,0.0,0.0,0.0,-0.00538251721045,0.0630132369682,0.00571121272526,0.0,0.0,0.0,0.0,0.0,0.0,0.0,0.0,0.0,4.10218388319,-0.0238545273612,9.50062383439,0.0,0.0,0.0,0.0,0.0,0.0,0.0,0.0,0.0
43704000000,164,43704000000,imu_link,-0.000447846991161,-0.359900668264,0.00228999594832,0.932987708566,0.0,0.0,0.0,0.0,0.0,0.0,0.0,0.0,0.0,-0.00598615505916,0.0617472060762,0.00576238533563,0.0,0.0,0.0,0.0,0.0,0.0,0.0,0.0,0.0,4.11832629844,-0.0241315314875,9.48421118656,0.0,0.0,0.0,0.0,0.0,0.0,0.0,0.0,0.0
43708000000,165,43708000000,imu_link,-0.000464554227913,-0.359788006811,0.00229606718668,0.933031136897,0.0,0.0,0.0,0.0,0.0,0.0,0.0,0.0,0.0,-0.00656258018576,0.0603885887045,0.00581417045685,0.0,0.0,0.0,0.0,0.0,0.0,0.0,0.0,0.0,4.13277457111,-0.0243327559804,9.46573225514,0.0,0.0,0.0,0.0,0.0,0.0,0.0,0.0,0.0
43712000000,166,43712000000,imu_link,-0.000482433591777,-0.359678077072,0.00230179913984,0.93307349649,0.0,0.0,0.0,0.0,0.0,0.0,0.0,0.0,0.0,-0.00717381544917,0.0589233668945,0.00586733969665,0.0,0.0,0.0,0.0,0.0,0.0,0.0,0.0,0.0,4.14796713819,-0.0244208478544,9.45104135173,0.0,0.0,0.0,0.0,0.0,0.0,0.0,0.0,0.0
43716000000,167,43716000000,imu_link,-0.000501798963489,-0.359570924685,0.00230709966879,0.933114770867,0.0,0.0,0.0,0.0,0.0,0.0,0.0,0.0,0.0,-0.00794813786083,0.057434279553,0.0059338857079,0.0,0.0,0.0,0.0,0.0,0.0,0.0,0.0,0.0,4.16221156883,-0.0244454748983,9.43052147932,0.0,0.0,0.0,0.0,0.0,0.0,0.0,0.0,0.0
43720000000,168,43720000000,imu_link,-0.000522799554255,-0.359466666071,0.00231191331662,0.93315491625,0.0,0.0,0.0,0.0,0.0,0.0,0.0,0.0,0.0,-0.00880221691432,0.0558832004219,0.00600129263718,0.0,0.0,0.0,0.0,0.0,0.0,0.0,0.0,0.0,4.17582795569,-0.0246100145907,9.41294268799,0.0,0.0,0.0,0.0,0.0,0.0,0.0,0.0,0.0
43724000000,169,43724000000,imu_link,-0.000545324616044,-0.359365435281,0.00231630280348,0.933193881939,0.0,0.0,0.0,0.0,0.0,0.0,0.0,0.0,0.0,-0.0095935450013,0.0542603290287,0.00607795914625,0.0,0.0,0.0,0.0,0.0,0.0,0.0,0.0,0.0,4.19010708759,-0.0248701627772,9.39893392946,0.0,0.0,0.0,0.0,0.0,0.0,0.0,0.0,0.0
43728000000,170,43728000000,imu_link,-0.000568732002459,-0.359266997184,0.00232045806691,0.9332317594,0.0,0.0,0.0,0.0,0.0,0.0,0.0,0.0,0.0,-0.0100508519549,0.052762816362,0.00612770857022,0.0,0.0,0.0,0.0,0.0,0.0,0.0,0.0,0.0,4.20378732134,-0.0252383998463,9.38066643159,0.0,0.0,0.0,0.0,0.0,0.0,0.0,0.0,0.0
43732000000,171,43732000000,imu_link,-0.000592175641273,-0.359171127799,0.00232459670451,0.933268635782,0.0,0.0,0.0,0.0,0.0,0.0,0.0,0.0,0.0,-0.01007401942,0.051384434398,0.00612689386148,0.0,0.0,0.0,0.0,0.0,0.0,0.0,0.0,0.0,4.2177331678,-0.0253841825539,9.36401775136,0.0,0.0,0.0,0.0,0.0,0.0,0.0,0.0,0.0
43736000000,172,43736000000,imu_link,-0.00061504936535,-0.35907777513,0.00232884234638,0.933304532088,0.0,0.0,0.0,0.0,0.0,0.0,0.0,0.0,0.0,-0.00979207658166,0.0500333469523,0.00607487123788,0.0,0.0,0.0,0.0,0.0,0.0,0.0,0.0,0.0,4.23049093238,-0.0252526062758,9.3433158534,0.0,0.0,0.0,0.0,0.0,0.0,0.0,0.0,0.0
43740000000,173,43740000000,imu_link,-0.000636983115792,-0.358986835844,0.00233324103858,0.933339489109,0.0,0.0,0.0,0.0,0.0,0.0,0.0,0.0,0.0,-0.00932905631114,0.0487373561814,0.00597788224895,0.0,0.0,0.0,0.0,0.0,0.0,0.0,0.0,0.0,4.2440957628,-0.0250005091079,9.32645800049,0.0,0.0,0.0,0.0,0.0,0.0,0.0,0.0,0.0
43744000000,174,43744000000,imu_link,-0.000657826482953,-0.358898142159,0.00233780415473,0.933373572312,0.0,0.0,0.0,0.0,0.0,0.0,0.0,0.0,0.0,-0.00879359247137,0.0475312331997,0.00585920151361,0.0,0.0,0.0,0.0,0.0,0.0,0.0,0.0,0.0,4.25815838808,-0.0248549168352,9.31114578653,0.0,0.0,0.0,0.0,0.0,0.0,0.0,0.0,0.0
43748000000,175,43748000000,imu_link,-0.000677522545557,-0.358811225419,0.00234252058916,0.933406962731,0.0,0.0,0.0,0.0,0.0,0.0,0.0,0.0,0.0,-0.00823295270709,0.0465762452532,0.00572509572951,0.0,0.0,0.0,0.0,0.0,0.0,0.0,0.0,0.0,4.27061892423,-0.0247077939975,9.28721819822,0.0,0.0,0.0,0.0,0.0,0.0,0.0,0.0,0.0
43752000000,176,43752000000,imu_link,-0.000696197862478,-0.358725808596,0.00234730618861,0.933439767585,0.0,0.0,0.0,0.0,0.0,0.0,0.0,0.0,0.0,-0.00774611370792,0.0457699564872,0.00557442550891,0.0,0.0,0.0,0.0,0.0,0.0,0.0,0.0,0.0,4.2836029522,-0.0245334442055,9.26685685782,0.0,0.0,0.0,0.0,0.0,0.0,0.0,0.0,0.0
43756000000,177,43756000000,imu_link,-0.000714120944935,-0.358641865589,0.00235205366439,0.933471997503,0.0,0.0,0.0,0.0,0.0,0.0,0.0,0.0,0.0,-0.00740379878052,0.0449781048227,0.00542187121748,0.0,0.0,0.0,0.0,0.0,0.0,0.0,0.0,0.0,4.29545127683,-0.0242050996727,9.24595652006,0.0,0.0,0.0,0.0,0.0,0.0,0.0,0.0,0.0
43760000000,178,43760000000,imu_link,-0.000731407693549,-0.358559162169,0.00235670740099,0.933503743001,0.0,0.0,0.0,0.0,0.0,0.0,0.0,0.0,0.0,-0.00712523901621,0.044311963972,0.00526413887289,0.0,0.0,0.0,0.0,0.0,0.0,0.0,0.0,0.0,4.30787858699,-0.0239774387722,9.22579763302,0.0,0.0,0.0,0.0,0.0,0.0,0.0,0.0,0.0
43764000000,179,43764000000,imu_link,-0.000748057672462,-0.358477456217,0.00236126823047,0.933535097469,0.0,0.0,0.0,0.0,0.0,0.0,0.0,0.0,0.0,-0.00684600028695,0.0437755735196,0.00510671048842,0.0,0.0,0.0,0.0,0.0,0.0,0.0,0.0,0.0,4.32037347847,-0.0238418702383,9.20829727364,0.0,0.0,0.0,0.0,0.0,0.0,0.0,0.0,0.0
43768000000,180,43768000000,imu_link,-0.000764276057083,-0.358396320493,0.00236569982668,0.933566225184,0.0,0.0,0.0,0.0,0.0,0.0,0.0,0.0,0.0,-0.00666846772406,0.0434683059584,0.00496908461031,0.0,0.0,0.0,0.0,0.0,0.0,0.0,0.0,0.0,4.33165703586,-0.0237518226945,9.18682696421,0.0,0.0,0.0,0.0,0.0,0.0,0.0,0.0,0.0
43772000000,181,43772000000,imu_link,-0.000780290611954,-0.35831541378,0.00236994521831,0.933597257255,0.0,0.0,0.0,0.0,0.0,0.0,0.0,0.0,0.0,-0.0066069983931,0.0433440978154,0.00484566715794,0.0,0.0,0.0,0.0,0.0,0.0,0.0,0.0,0.0,4.34337917296,-0.0237136829962,9.16863510737,0.0,0.0,0.0,0.0,0.0,0.0,0.0,0.0,0.0
43776000000,182,43776000000,imu_link,-0.000796384819972,-0.358234612918,0.0023739336545,0.93362824096,0.0,0.0,0.0,0.0,0.0,0.0,0.0,0.0,0.0,-0.00669036022033,0.0432862162819,0.00474000720066,0.0,0.0,0.0,0.0,0.0,0.0,0.0,0.0,0.0,4.35399046522,-0.0236173707506,9.14892254618,0.0,0.0,0.0,0.0,0.0,0.0,0.0,0.0,0.0
43780000000,183,43780000000,imu_link,-0.000812583059094,-0.358153927116,0.00237763726042,0.933659172847,0.0,0.0,0.0,0.0,0.0,0.0,0.0,0.0,0.0,-0.00679009864489,0.0432234605409,0.00462569386857,0.0,0.0,0.0,0.0,0.0,0.0,0.0,0.0,0.0,4.36503148291,-0.0235222848589,9.13103260442,0.0,0.0,0.0,0.0,0.0,0.0,0.0,0.0,0.0
43784000000,184,43784000000,imu_link,-0.00082890936537,-0.358073208828,0.00238100603439,0.93369010964,0.0,0.0,0.0,0.0,0.0,0.0,0.0,0.0,0.0,-0.00690980425845,0.0432397922808,0.00449232565327,0.0,0.0,0.0,0.0,0.0,0.0,0.0,0.0,0.0,4.37557122694,-0.0232824590149,9.10963448094,0.0,0.0,0.0,0.0,0.0,0.0,0.0,0.0,0.0
43788000000,185,43788000000,imu_link,-0.000845366105116,-0.357992452582,0.00238397764396,0.933721053581,0.0,0.0,0.0,0.0,0.0,0.0,0.0,0.0,0.0,-0.00704175529389,0.0432591128476,0.00433027099783,0.0,0.0,0.0,0.0,0.0,0.0,0.0,0.0,0.0,4.38703713613,-0.0231394247876,9.09265074546,0.0,0.0,0.0,0.0,0.0,0.0,0.0,0.0,0.0
43792000000,186,43792000000,imu_link,-0.000861944362838,-0.357911826282,0.0023865263473,0.933751940373,0.0,0.0,0.0,0.0,0.0,0.0,0.0,0.0,0.0,-0.00717436490915,0.0431885398317,0.00415459723315,0.0,0.0,0.0,0.0,0.0,0.0,0.0,0.0,0.0,4.39817219959,-0.0231092556075,9.07500468545,0.0,0.0,0.0,0.0,0.0,0.0,0.0,0.0,0.0
43796000000,187,43796000000,imu_link,-0.000878421846193,-0.357831406268,0.002388726148,0.933782740819,0.0,0.0,0.0,0.0,0.0,0.0,0.0,0.0,0.0,-0.00719003733685,0.0430768080275,0.00397368293112,0.0,0.0,0.0,0.0,0.0,0.0,0.0,0.0,0.0,4.41014164257,-0.0232431471921,9.05970161874,0.0,0.0,0.0,0.0,0.0,0.0,0.0,0.0,0.0
43800000000,188,43800000000,imu_link,-0.000894619741824,-0.357751416027,0.00239065282207,0.933813369344,0.0,0.0,0.0,0.0,0.0,0.0,0.0,0.0,0.0,-0.00710895569626,0.0428451775978,0.00379615640623,0.0,0.0,0.0,0.0,0.0,0.0,0.0,0.0,0.0,4.42208115769,-0.023350769368,9.04683154733,0.0,0.0,0.0,0.0,0.0,0.0,0.0,0.0,0.0
43804000000,189,43804000000,imu_link,-0.000910297519225,-0.357672282398,0.00239239168146,0.933843662625,0.0,0.0,0.0,0.0,0.0,0.0,0.0,0.0,0.0,-0.0069008783905,0.0423847147759,0.00361544551264,0.0,0.0,0.0,0.0,0.0,0.0,0.0,0.0,0.0,4.43500267117,-0.0233844262286,9.03890709097,0.0,0.0,0.0,0.0,0.0,0.0,0.0,0.0,0.0
43808000000,190,43808000000,imu_link,-0.000925385714395,-0.35759415631,0.00239396347488,0.933873563162,0.0,0.0,0.0,0.0,0.0,0.0,0.0,0.0,0.0,-0.00665685097903,0.0418434059494,0.00343201137328,0.0,0.0,0.0,0.0,0.0,0.0,0.0,0.0,0.0,4.44643221228,-0.0232728090444,9.02331883456,0.0,0.0,0.0,0.0,0.0,0.0,0.0,0.0,0.0
43812000000,191,43812000000,imu_link,-0.000939817540607,-0.357517018916,0.00239537370216,0.933903078544,0.0,0.0,0.0,0.0,0.0,0.0,0.0,0.0,0.0,-0.00638061738198,0.0413121728683,0.00323921690242,0.0,0.0,0.0,0.0,0.0,0.0,0.0,0.0,0.0,4.45763014583,-0.0231683929104,9.00774570871,0.0,0.0,0.0,0.0,0.0,0.0,0.0,0.0,0.0
43816000000,192,43816000000,imu_link,-0.000953718465433,-0.357440892874,0.00239659691424,0.933932200347,0.0,0.0,0.0,0.0,0.0,0.0,0.0,0.0,0.0,-0.00616753894677,0.0407690166611,0.0030569828735,0.0,0.0,0.0,0.0,0.0,0.0,0.0,0.0,0.0,4.46815073034,-0.0230436645421,8.99004740446,0.0,0.0,0.0,0.0,0.0,0.0,0.0,0.0,0.0
43820000000,193,43820000000,imu_link,-0.000967430684248,-0.357365637128,0.00239758756083,0.933960982617,0.0,0.0,0.0,0.0,0.0,0.0,0.0,0.0,0.0,-0.00612218862983,0.040301821657,0.00291464889679,0.0,0.0,0.0,0.0,0.0,0.0,0.0,0.0,0.0,4.47916311159,-0.0229478627425,8.97470545369,0.0,0.0,0.0,0.0,0.0,0.0,0.0,0.0,0.0
43824000000,194,43824000000,imu_link,-0.000981163292463,-0.357291249215,0.00239836227441,0.933989426285,0.0,0.0,0.0,0.0,0.0,0.0,0.0,0.0,0.0,-0.00617149773854,0.0398361867363,0.00281744176525,0.0,0.0,0.0,0.0,0.0,0.0,0.0,0.0,0.0,4.4901559982,-0.0228460891144,8.96057874128,0.0,0.0,0.0,0.0,0.0,0.0,0.0,0.0,0.0
43828000000,195,43828000000,imu_link,-0.000994994452535,-0.357217511224,0.00239895714627,0.934017614751,0.0,0.0,0.0,0.0,0.0,0.0,0.0,0.0,0.0,-0.0062505534445,0.0394872924681,0.00275104967736,0.0,0.0,0.0,0.0,0.0,0.0,0.0,0.0,0.0,4.50041523625,-0.0227348074394,8.94276577099,0.0,0.0,0.0,0.0,0.0,0.0,0.0,0.0,0.0
43832000000,196,43832000000,imu_link,-0.00100893598846,-0.35714419666,0.00239937056887,0.934045634785,0.0,0.0,0.0,0.0,0.0,0.0,0.0,0.0,0.0,-0.00633510005156,0.0392596877842,0.00268601675008,0.0,0.0,0.0,0.0,0.0,0.0,0.0,0.0,0.0,4.5113434128,-0.0226253655532,8.92867292277,0.0,0.0,0.0,0.0,0.0,0.0,0.0,0.0,0.0
43836000000,197,43836000000,imu_link,-0.00102321267236,-0.357071399069,0.00239957215963,0.934073450568,0.0,0.0,0.0,0.0,0.0,0.0,0.0,0.0,0.0,-0.0065301722996,0.0389822846452,0.00264691876572,0.0,0.0,0.0,0.0,0.0,0.0,0.0,0.0,0.0,4.52191623967,-0.0225757162894,8.91474711201,0.0,0.0,0.0,0.0,0.0,0.0,0.0,0.0,0.0
43840000000,198,43840000000,imu_link,-0.00103811763231,-0.356999667904,0.00239950462039,0.934100852053,0.0,0.0,0.0,0.0,0.0,0.0,0.0,0.0,0.0,-0.00687314104869,0.0384111490223,0.00263334635306,0.0,0.0,0.0,0.0,0.0,0.0,0.0,0.0,0.0,4.5331773429,-0.0226163673896,8.90533130673,0.0,0.0,0.0,0.0,0.0,0.0,0.0,0.0,0.0
43844000000,199,43844000000,imu_link,-0.00105391964418,-0.356929425575,0.00239911265484,0.934127677928,0.0,0.0,0.0,0.0,0.0,0.0,0.0,0.0,0.0,-0.0073521045781,0.0376142860845,0.00264186431535,0.0,0.0,0.0,0.0,0.0,0.0,0.0,0.0,0.0,4.54443701335,-0.0227181893147,8.89504065128,0.0,0.0,0.0,0.0,0.0,0.0,0.0,0.0,0.0
43848000000,200,43848000000,imu_link,-0.00107056450345,-0.356860544016,0.00239842447609,0.934153977445,0.0,0.0,0.0,0.0,0.0,0.0,0.0,0.0,0.0,-0.00780054141717,0.0368859501885,0.00265384669405,0.0,0.0,0.0,0.0,0.0,0.0,0.0,0.0,0.0,4.55438059729,-0.0228642309792,8.87839446487,0.0,0.0,0.0,0.0,0.0,0.0,0.0,0.0,0.0
43852000000,201,43852000000,imu_link,-0.0010878297533,-0.356792489769,0.00239749822985,0.934179954759,0.0,0.0,0.0,0.0,0.0,0.0,0.0,0.0,0.0,-0.00813395461822,0.0364429125035,0.00265329084552,0.0,0.0,0.0,0.0,0.0,0.0,0.0,0.0,0.0,4.56514780628,-0.0230276056413,8.86238085314,0.0,0.0,0.0,0.0,0.0,0.0,0.0,0.0,0.0
43856000000,202,43856000000,imu_link,-0.00110545917942,-0.356725197476,0.00239637956366,0.934205635185,0.0,0.0,0.0,0.0,0.0,0.0,0.0,0.0,0.0,-0.00833945957655,0.0360345889637,0.00262832255412,0.0,0.0,0.0,0.0,0.0,0.0,0.0,0.0,0.0,4.57515268236,-0.0231484137929,8.84701274073,0.0,0.0,0.0,0.0,0.0,0.0,0.0,0.0,0.0
43860000000,203,43860000000,imu_link,-0.00112336068401,-0.356659067023,0.00239506416662,0.934230866349,0.0,0.0,0.0,0.0,0.0,0.0,0.0,0.0,0.0,-0.00850327804672,0.0354121933866,0.00258485375749,0.0,0.0,0.0,0.0,0.0,0.0,0.0,0.0,0.0,4.58526927623,-0.0232092712372,8.83539423466,0.0,0.0,0.0,0.0,0.0,0.0,0.0,0.0,0.0
43864000000,204,43864000000,imu_link,-0.00114201628789,-0.356594682939,0.00239342022918,0.934255425159,0.0,0.0,0.0,0.0,0.0,0.0,0.0,0.0,0.0,-0.00891658689824,0.0344776248462,0.002565689906,0.0,0.0,0.0,0.0,0.0,0.0,0.0,0.0,0.0,4.59642058215,-0.0231475295732,8.82853863225,0.0,0.0,0.0,0.0,0.0,0.0,0.0,0.0,0.0
43868000000,205,43868000000,imu_link,-0.00116194528242,-0.356532204636,0.00239133794682,0.934279250783,0.0,0.0,0.0,0.0,0.0,0.0,0.0,0.0,0.0,-0.00959227802104,0.0334584302023,0.00258775820824,0.0,0.0,0.0,0.0,0.0,0.0,0.0,0.0,0.0,4.60654020541,-0.0231065186475,8.81535829884,0.0,0.0,0.0,0.0,0.0,0.0,0.0,0.0,0.0
43872000000,206,43872000000,imu_link,-0.00118334428905,-0.356471578906,0.00238878569407,0.934302363709,0.0,0.0,0.0,0.0,0.0,0.0,0.0,0.0,0.0,-0.0103653878293,0.0324680014015,0.00263004560128,0.0,0.0,0.0,0.0,0.0,0.0,0.0,0.0,0.0,4.61648622372,-0.023150726362,8.8004363485,0.0,0.0,0.0,0.0,0.0,0.0,0.0,0.0,0.0
43876000000,207,43876000000,imu_link,-0.001205978461,-0.356412661822,0.00238580816836,0.934324819337,0.0,0.0,0.0,0.0,0.0,0.0,0.0,0.0,0.0,-0.0110206253375,0.0315543778004,0.00265130361017,0.0,0.0,0.0,0.0,0.0,0.0,0.0,0.0,0.0,4.62602455185,-0.0231846986554,8.78403586373,0.0,0.0,0.0,0.0,0.0,0.0,0.0,0.0,0.0
43880000000,208,43880000000,imu_link,-0.00122918936977,-0.356355305325,0.00238258981564,0.934346674809,0.0,0.0,0.0,0.0,0.0,0.0,0.0,0.0,0.0,-0.0113351955116,0.0307192118164,0.00264135135049,0.0,0.0,0.0,0.0,0.0,0.0,0.0,0.0,0.0,4.63650848499,-0.0233254921631,8.77122017008,0.0,0.0,0.0,0.0,0.0,0.0,0.0,0.0,0.0
43884000000,209,43884000000,imu_link,-0.00125226019484,-0.356299653859,0.00237935952562,0.934367875707,0.0,0.0,0.0,0.0,0.0,0.0,0.0,0.0,0.0,-0.0112743125935,0.0298058766094,0.00261054666589,0.0,0.0,0.0,0.0,0.0,0.0,0.0,0.0,0.0,4.64764546711,-0.0234514789698,8.76288784002,0.0,0.0,0.0,0.0,0.0,0.0,0.0,0.0,0.0
43888000000,210,43888000000,imu_link,-0.00127471462621,-0.356245845658,0.00237627545841,0.934388369935,0.0,0.0,0.0,0.0,0.0,0.0,0.0,0.0,0.0,-0.0109629291494,0.0288180155501,0.00256873577315,0.0,0.0,0.0,0.0,0.0,0.0,0.0,0.0,0.0,4.65775953032,-0.0234684227348,8.75149287369,0.0,0.0,0.0,0.0,0.0,0.0,0.0,0.0,0.0
43892000000,211,43892000000,imu_link,-0.00129650437243,-0.356193832787,0.00237337073915,0.934408176159,0.0,0.0,0.0,0.0,0.0,0.0,0.0,0.0,0.0,-0.0106230177304,0.0278557939967,0.00253380360174,0.0,0.0,0.0,0.0,0.0,0.0,0.0,0.0,0.0,4.66796571328,-0.0233409035922,8.74062492545,0.0,0.0,0.0,0.0,0.0,0.0,0.0,0.0,0.0
43896000000,212,43896000000,imu_link,-0.00131738824575,-0.356143660155,0.00237069362022,0.934427277872,0.0,0.0,0.0,0.0,0.0,0.0,0.0,0.0,0.0,-0.0101618957822,0.0268693327059,0.00247844933155,0.0,0.0,0.0,0.0,0.0,0.0,0.0,0.0,0.0,4.67714594666,-0.0232282223276,8.7272575877,0.0,0.0,0.0,0.0,0.0,0.0,0.0,0.0,0.0
43900000000,213,43900000000,imu_link,-0.00133692982707,-0.356095163202,0.00236832767879,0.9344457386,0.0,0.0,0.0,0.0,0.0,0.0,0.0,0.0,0.0,-0.00948175517154,0.0259704957266,0.00238446733743,0.0,0.0,0.0,0.0,0.0,0.0,0.0,0.0,0.0,4.68720189498,-0.0231244098748,8.71555563875,0.0,0.0,0.0,0.0,0.0,0.0,0.0,0.0,0.0
43904000000,214,43904000000,imu_link,-0.00135495807019,-0.356048031843,0.00236630570238,0.93446367704,0.0,0.0,0.0,0.0,0.0,0.0,0.0,0.0,0.0,-0.00871541303401,0.0252374444769,0.00227543508166,0.0,0.0,0.0,0.0,0.0,0.0,0.0,0.0,0.0,4.69702569085,-0.0229895511568,8.70398672323,0.0,0.0,0.0,0.0,0.0,0.0,0.0,0.0,0.0
43908000000,215,43908000000,imu_link,-0.0013714219339,-0.35600184502,0.0023646378478,0.934481253976,0.0,0.0,0.0,0.0,0.0,0.0,0.0,0.0,0.0,-0.00792280541021,0.0247296804054,0.00216218277497,0.0,0.0,0.0,0.0,0.0,0.0,0.0,0.0,0.0,4.70587935536,-0.0228394142954,8.68916922685,0.0,0.0,0.0,0.0,0.0,0.0,0.0,0.0,0.0
43912000000,216,43912000000,imu_link,-0.00138629721884,-0.355956367056,0.00236334356708,0.93449855941,0.0,0.0,0.0,0.0,0.0,0.0,0.0,0.0,0.0,-0.00711508465261,0.0243480102365,0.00205379810594,0.0,0.0,0.0,0.0,0.0,0.0,0.0,0.0,0.0,4.71504005325,-0.022672769583,8.67704725508,0.0,0.0,0.0,0.0,0.0,0.0,0.0,0.0,0.0
43916000000,217,43916000000,imu_link,-0.0013997673229,-0.355911785074,0.00236239882232,0.934515522059,0.0,0.0,0.0,0.0,0.0,0.0,0.0,0.0,0.0,-0.00639760147458,0.0238664529857,0.00196681100296,0.0,0.0,0.0,0.0,0.0,0.0,0.0,0.0,0.0,4.72325985165,-0.0223405990518,8.66384247619,0.0,0.0,0.0,0.0,0.0,0.0,0.0,0.0,0.0
43920000000,218,43920000000,imu_link,-0.00141239191223,-0.355868342168,0.0023616934091,0.934532048993,0.0,0.0,0.0,0.0,0.0,0.0,0.0,0.0,0.0,-0.00596158812536,0.023255505792,0.00192789363785,0.0,0.0,0.0,0.0,0.0,0.0,0.0,0.0,0.0,4.73265688241,-0.0218621331954,8.65422685567,0.0,0.0,0.0,0.0,0.0,0.0,0.0,0.0,0.0
43924000000,219,43924000000,imu_link,-0.00142496634718,-0.355826215239,0.00236105373085,0.934548072303,0.0,0.0,0.0,0.0,0.0,0.0,0.0,0.0,0.0,-0.00592836581166,0.0225508776325,0.00194935054246,0.0,0.0,0.0,0.0,0.0,0.0,0.0,0.0,0.0,4.74280145692,-0.0214306057385,8.64640183275,0.0,0.0,0.0,0.0,0.0,0.0,0.0,0.0,0.0
43928000000,220,43928000000,imu_link,-0.00143794396636,-0.355785320362,0.00236037827854,0.934563623702,0.0,0.0,0.0,0.0,0.0,0.0,0.0,0.0,0.0,-0.00612491871072,0.0218917133538,0.00200404530332,0.0,0.0,0.0,0.0,0.0,0.0,0.0,0.0,0.0,4.75158785585,-0.0212637000634,8.63254070478,0.0,0.0,0.0,0.0,0.0,0.0,0.0,0.0,0.0
43932000000,221,43932000000,imu_link,-0.00145105094049,-0.35574564048,0.00235972749328,0.934578710124,0.0,0.0,0.0,0.0,0.0,0.0,0.0,0.0,0.0,-0.00618274406756,0.021241387736,0.00203825827111,0.0,0.0,0.0,0.0,0.0,0.0,0.0,0.0,0.0,4.76073934461,-0.0213774322825,8.6207066169,0.0,0.0,0.0,0.0,0.0,0.0,0.0,0.0,0.0
43936000000,222,43936000000,imu_link,-0.00146349164082,-0.355707317587,0.00235924926611,0.934593278571,0.0,0.0,0.0,0.0,0.0,0.0,0.0,0.0,0.0,-0.00584268488143,0.0205142359696,0.00200000744122,0.0,0.0,0.0,0.0,0.0,0.0,0.0,0.0,0.0,4.77032627061,-0.0215862141706,8.61145022461,0.0,0.0,0.0,0.0,0.0,0.0,0.0,0.0,0.0
43940000000,223,43940000000,imu_link,-0.00147470599235,-0.355670469767,0.0023590388797,0.934607284967,0.0,0.0,0.0,0.0,0.0,0.0,0.0,0.0,0.0,-0.00522413105867,0.0197233337199,0.00190664154144,0.0,0.0,0.0,0.0,0.0,0.0,0.0,0.0,0.0,4.77938918478,-0.0216337526337,8.6017573629,0.0,0.0,0.0,0.0,0.0,0.0,0.0,0.0,0.0
43944000000,224,43944000000,imu_link,-0.00148459273417,-0.355635209694,0.00235910346246,0.934620686825,0.0,0.0,0.0,0.0,0.0,0.0,0.0,0.0,0.0,-0.00455715353933,0.018872097026,0.00179858218083,0.0,0.0,0.0,0.0,0.0,0.0,0.0,0.0,0.0,4.78926072417,-0.0215384647192,8.59497274285,0.0,0.0,0.0,0.0,0.0,0.0,0.0,0.0,0.0
43948000000,225,43948000000,imu_link,-0.00149336451225,-0.355601434684,0.00235941317149,0.934633523196,0.0,0.0,0.0,0.0,0.0,0.0,0.0,0.0,0.0,-0.00399470314822,0.0180760615094,0.00171443670465,0.0,0.0,0.0,0.0,0.0,0.0,0.0,0.0,0.0,4.79771786563,-0.0213957321583,8.58268897492,0.0,0.0,0.0,0.0,0.0,0.0,0.0,0.0,0.0
43952000000,226,43952000000,imu_link,-0.00150131056486,-0.355569287909,0.00235988799073,0.934645739567,0.0,0.0,0.0,0.0,0.0,0.0,0.0,0.0,0.0,-0.0035818548628,0.0172038255513,0.00164429653846,0.0,0.0,0.0,0.0,0.0,0.0,0.0,0.0,0.0,4.80680697961,-0.0213074004404,8.57475343365,0.0,0.0,0.0,0.0,0.0,0.0,0.0,0.0,0.0
43956000000,227,43956000000,imu_link,-0.00150862911791,-0.35553923433,0.002360458161,0.934657159138,0.0,0.0,0.0,0.0,0.0,0.0,0.0,0.0,0.0,-0.0032747259986,0.0160831569354,0.00157666538241,0.0,0.0,0.0,0.0,0.0,0.0,0.0,0.0,0.0,4.81520535317,-0.021294655151,8.56652613699,0.0,0.0,0.0,0.0,0.0,0.0,0.0,0.0,0.0
43960000000,228,43960000000,imu_link,-0.00151509171072,-0.35551143896,0.00236114727917,0.9346677197,0.0,0.0,0.0,0.0,0.0,0.0,0.0,0.0,0.0,-0.00285687915551,0.0148740253743,0.0014793998336,0.0,0.0,0.0,0.0,0.0,0.0,0.0,0.0,0.0,4.82363440096,-0.0213616616254,8.55676789405,0.0,0.0,0.0,0.0,0.0,0.0,0.0,0.0,0.0
43964000000,229,43964000000,imu_link,-0.00152039467067,-0.355485890562,0.00236195904439,0.93467742626,0.0,0.0,0.0,0.0,0.0,0.0,0.0,0.0,0.0,-0.00229644190269,0.0136706734673,0.00132989161192,0.0,0.0,0.0,0.0,0.0,0.0,0.0,0.0,0.0,4.83263846046,-0.0213825538749,8.54792316571,0.0,0.0,0.0,0.0,0.0,0.0,0.0,0.0,0.0
43968000000,230,43968000000,imu_link,-0.00152431815117,-0.35546248357,0.00236292240641,0.934686319481,0.0,0.0,0.0,0.0,0.0,0.0,0.0,0.0,0.0,-0.00162795974297,0.0125236018835,0.00115487856331,0.0,0.0,0.0,0.0,0.0,0.0,0.0,0.0,0.0,4.84064333366,-0.0212721545596,8.53542797763,0.0,0.0,0.0,0.0,0.0,0.0,0.0,0.0,0.0
43972000000,231,43972000000,imu_link,-0.00152695427607,-0.355441106369,0.00236403195779,0.934694441872,0.0,0.0,0.0,0.0,0.0,0.0,0.0,0.0,0.0,-0.00100332610987,0.0114363604561,0.000993759539757,0.0,0.0,0.0,0.0,0.0,0.0,0.0,0.0,0.0,4.84908101405,-0.0211263144815,8.52451483185,0.0,0.0,0.0,0.0,0.0,0.0,0.0,0.0,0.0
43976000000,232,43976000000,imu_link,-0.00152863823224,-0.355421958036,0.00236525004483,0.93470171745,0.0,0.0,0.0,0.0,0.0,0.0,0.0,0.0,0.0,-0.000542324758735,0.0102430001571,0.0008745626807,0.0,0.0,0.0,0.0,0.0,0.0,0.0,0.0,0.0,4.8575731712,-0.0209905255973,8.51561397646,0.0,0.0,0.0,0.0,0.0,0.0,0.0,0.0,0.0
43980000000,233,43980000000,imu_link,-0.00152996887341,-0.355405147339,0.00236647022563,0.934708104308,0.0,0.0,0.0,0.0,0.0,0.0,0.0,0.0,0.0,-0.000380274420589,0.0089921493863,0.00081201757161,0.0,0.0,0.0,0.0,0.0,0.0,0.0,0.0,0.0,4.86686406284,-0.0208966414268,8.50893809994,0.0,0.0,0.0,0.0,0.0,0.0,0.0,0.0,0.0
43984000000,234,43984000000,imu_link,-0.00153138831589,-0.355390647727,0.00236760819063,0.934713612177,0.0,0.0,0.0,0.0,0.0,0.0,0.0,0.0,0.0,-0.000439793002182,0.00775602438593,0.00078864600748,0.0,0.0,0.0,0.0,0.0,0.0,0.0,0.0,0.0,4.87671509258,-0.0209277140807,8.50419126618,0.0,0.0,0.0,0.0,0.0,0.0,0.0,0.0,0.0
43988000000,235,43988000000,imu_link,-0.00153312927808,-0.355378078092,0.00236861687963,0.934718385815,0.0,0.0,0.0,0.0,0.0,0.0,0.0,0.0,0.0,-0.000615876079763,0.00672404573742,0.000784751953786,0.0,0.0,0.0,0.0,0.0,0.0,0.0,0.0,0.0,4.88486062879,-0.0210370368372,8.49222082705,0.0,0.0,0.0,0.0,0.0,0.0,0.0,0.0,0.0
43992000000,236,43992000000,imu_link,-0.00153553637659,-0.355366938976,0.00236941485798,0.934722614835,0.0,0.0,0.0,0.0,0.0,0.0,0.0,0.0,0.0,-0.000966753645453,0.00595965805125,0.000804187926531,0.0,0.0,0.0,0.0,0.0,0.0,0.0,0.0,0.0,4.89334238161,-0.0211684771635,8.48082303696,0.0,0.0,0.0,0.0,0.0,0.0,0.0,0.0,0.0
43996000000,237,43996000000,imu_link,-0.00153903570125,-0.355356956602,0.00236989013349,0.934726402957,0.0,0.0,0.0,0.0,0.0,0.0,0.0,0.0,0.0,-0.00153626575292,0.00534224299205,0.000847073865798,0.0,0.0,0.0,0.0,0.0,0.0,0.0,0.0,0.0,4.90032201454,-0.0213281123548,8.46676045517,0.0,0.0,0.0,0.0,0.0,0.0,0.0,0.0,0.0
44000000000,238,44000000000,imu_link,-0.00154418952499,-0.355348159364,0.00236985686077,0.934729738959,0.0,0.0,0.0,0.0,0.0,0.0,0.0,0.0,0.0,-0.00240162805052,0.00471037327481,0.000902989766149,0.0,0.0,0.0,0.0,0.0,0.0,0.0,0.0,0.0,4.90819005948,-0.0215282049917,8.45795732784,0.0,0.0,0.0,0.0,0.0,0.0,0.0,0.0,0.0
44004000000,239,44004000000,imu_link,-0.00155117744114,-0.355340703119,0.002369216273,0.934732563555,0.0,0.0,0.0,0.0,0.0,0.0,0.0,0.0,0.0,-0.00336870639197,0.00399541964392,0.000944593337295,0.0,0.0,0.0,0.0,0.0,0.0,0.0,0.0,0.0,4.91524493321,-0.0218585712708,8.44734099195,0.0,0.0,0.0,0.0,0.0,0.0,0.0,0.0,0.0
44008000000,240,44008000000,imu_link,-0.00155991805371,-0.355334906458,0.00236796451957,0.934734755774,0.0,0.0,0.0,0.0,0.0,0.0,0.0,0.0,0.0,-0.00429890003883,0.00310998095498,0.000969819263669,0.0,0.0,0.0,0.0,0.0,0.0,0.0,0.0,0.0,4.92311844473,-0.0222284170537,8.44041959517,0.0,0.0,0.0,0.0,0.0,0.0,0.0,0.0,0.0
44012000000,241,44012000000,imu_link,-0.00156990736905,-0.355331295218,0.00236620444407,0.934736116295,0.0,0.0,0.0,0.0,0.0,0.0,0.0,0.0,0.0,-0.00497605145041,0.00194269619479,0.000953380129993,0.0,0.0,0.0,0.0,0.0,0.0,0.0,0.0,0.0,4.93164648696,-0.0226412366386,8.43664446972,0.0,0.0,0.0,0.0,0.0,0.0,0.0,0.0,0.0
44016000000,242,44016000000,imu_link,-0.00158050572658,-0.355330360212,0.00236409640695,0.934736459202,0.0,0.0,0.0,0.0,0.0,0.0,0.0,0.0,0.0,-0.00532648418602,0.000512108093563,0.000898063080427,0.0,0.0,0.0,0.0,0.0,0.0,0.0,0.0,0.0,4.93932520356,-0.0230163510618,8.42970885109,0.0,0.0,0.0,0.0,0.0,0.0,0.0,0.0,0.0
44020000000,243,44020000000,imu_link,-0.00159097759027,-0.355332050898,0.00236179385074,0.934735804559,0.0,0.0,0.0,0.0,0.0,0.0,0.0,0.0,0.0,-0.00530581626516,-0.000892282332837,0.000783781678696,0.0,0.0,0.0,0.0,0.0,0.0,0.0,0.0,0.0,4.94726258612,-0.0233023923828,8.42067988591,0.0,0.0,0.0,0.0,0.0,0.0,0.0,0.0,0.0
44024000000,244,44024000000,imu_link,-0.00160101242928,-0.355335896007,0.00235936606827,0.934734331861,0.0,0.0,0.0,0.0,0.0,0.0,0.0,0.0,0.0,-0.00512700831064,-0.00204494740711,0.000646862729093,0.0,0.0,0.0,0.0,0.0,0.0,0.0,0.0,0.0,4.95490699224,-0.0234136288392,8.4088452215,0.0,0.0,0.0,0.0,0.0,0.0,0.0,0.0,0.0
44028000000,245,44028000000,imu_link,-0.00161047671416,-0.355341219641,0.00235686345699,0.934732298138,0.0,0.0,0.0,0.0,0.0,0.0,0.0,0.0,0.0,-0.00487583801979,-0.00283625091745,0.00050999927759,0.0,0.0,0.0,0.0,0.0,0.0,0.0,0.0,0.0,4.96300525051,-0.0234023474545,8.39812393478,0.0,0.0,0.0,0.0,0.0,0.0,0.0,0.0,0.0
44032000000,246,44032000000,imu_link,-0.00161951636125,-0.355347632218,0.00235428866237,0.934729851224,0.0,0.0,0.0,0.0,0.0,0.0,0.0,0.0,0.0,-0.00469181751694,-0.00341904016674,0.00040042763204,0.0,0.0,0.0,0.0,0.0,0.0,0.0,0.0,0.0,4.97017722902,-0.0233180307663,8.38663096838,0.0,0.0,0.0,0.0,0.0,0.0,0.0,0.0,0.0
44040000000,247,44040000000,imu_link,-0.00163677210906,-0.355364561092,0.00234894405015,0.934723398744,0.0,0.0,0.0,0.0,0.0,0.0,0.0,0.0,0.0,-0.00443998830979,-0.00495832966094,0.000237936975674,0.0,0.0,0.0,0.0,0.0,0.0,0.0,0.0,0.0,4.98103456365,-0.0233380992615,8.37494723833,0.0,0.0,0.0,0.0,0.0,0.0,0.0,0.0,0.0
44044000000,248,44044000000,imu_link,-0.00164421751281,-0.355375770528,0.00234633698381,0.934719130527,0.0,0.0,0.0,0.0,0.0,0.0,0.0,0.0,0.0,-0.00395958426243,-0.00598636972698,0.00010031261781,0.0,0.0,0.0,0.0,0.0,0.0,0.0,0.0,0.0,4.99279305446,-0.0234115720338,8.36780310575,0.0,0.0,0.0,0.0,0.0,0.0,0.0,0.0,0.0
44048000000,249,44048000000,imu_link,-0.00165009660549,-0.355388832334,0.00234392291761,0.934714160082,0.0,0.0,0.0,0.0,0.0,0.0,0.0,0.0,0.0,-0.00319601046279,-0.00697886595678,-8.85004412521e-05,0.0,0.0,0.0,0.0,0.0,0.0,0.0,0.0,0.0,4.99927902323,-0.0234337709896,8.35655120386,0.0,0.0,0.0,0.0,0.0,0.0,0.0,0.0,0.0
44052000000,250,44052000000,imu_link,-0.00165411727914,-0.355403489683,0.00234174219551,0.934708585422,0.0,0.0,0.0,0.0,0.0,0.0,0.0,0.0,0.0,-0.00228836964756,-0.0078342903324,-0.000310284387825,0.0,0.0,0.0,0.0,0.0,0.0,0.0,0.0,0.0,5.00662732331,-0.023289811321,8.34737616767,0.0,0.0,0.0,0.0,0.0,0.0,0.0,0.0,0.0
44056000000,251,44056000000,imu_link,-0.00165644721608,-0.355419445056,0.00233975923121,0.934702519407,0.0,0.0,0.0,0.0,0.0,0.0,0.0,0.0,0.0,-0.0014649808819,-0.00853038557775,-0.000518806527283,0.0,0.0,0.0,0.0,0.0,0.0,0.0,0.0,0.0,5.01237311174,-0.0230410578566,8.33307481215,0.0,0.0,0.0,0.0,0.0,0.0,0.0,0.0,0.0
44060000000,252,44060000000,imu_link,-0.00165768360483,-0.355436490303,0.00233792926706,0.934696040183,0.0,0.0,0.0,0.0,0.0,0.0,0.0,0.0,0.0,-0.000928337393246,-0.00911457663339,-0.000642055116862,0.0,0.0,0.0,0.0,0.0,0.0,0.0,0.0,0.0,5.01917828954,-0.0227563761917,8.32298969772,0.0,0.0,0.0,0.0,0.0,0.0,0.0,0.0,0.0
44064000000,253,44064000000,imu_link,-0.00165823243855,-0.355454523028,0.00233624688686,0.934689185919,0.0,0.0,0.0,0.0,0.0,0.0,0.0,0.0,0.0,-0.000582246729622,-0.00964364996696,-0.00069565317082,0.0,0.0,0.0,0.0,0.0,0.0,0.0,0.0,0.0,5.02613571112,-0.0225979777576,8.31423901235,0.0,0.0,0.0,0.0,0.0,0.0,0.0,0.0,0.0
44068000000,254,44068000000,imu_link,-0.0016580017682,-0.355473590039,0.00233479616963,0.934681938705,0.0,0.0,0.0,0.0,0.0,0.0,0.0,0.0,0.0,-0.000178310863435,-0.010197958608,-0.000726324390946,0.0,0.0,0.0,0.0,0.0,0.0,0.0,0.0,0.0,5.03216772056,-0.0225915774117,8.30372572221,0.0,0.0,0.0,0.0,0.0,0.0,0.0,0.0,0.0
44072000000,255,44072000000,imu_link,-0.0016567125012,-0.355493838176,0.00233368906466,0.934674242834,0.0,0.0,0.0,0.0,0.0,0.0,0.0,0.0,0.0,0.000375736477462,-0.0108312107906,-0.000754347273115,0.0,0.0,0.0,0.0,0.0,0.0,0.0,0.0,0.0,5.03876466088,-0.0226185569981,8.29595957333,0.0,0.0,0.0,0.0,0.0,0.0,0.0,0.0,0.0
44076000000,256,44076000000,imu_link,-0.0016541232106,-0.355515526843,0.0023329971152,0.934665999796,0.0,0.0,0.0,0.0,0.0,0.0,0.0,0.0,0.0,0.00105494425591,-0.0116035421732,-0.000791959695089,0.0,0.0,0.0,0.0,0.0,0.0,0.0,0.0,0.0,5.0445663492,-0.0226114831027,8.28646677471,0.0,0.0,0.0,0.0,0.0,0.0,0.0,0.0,0.0
44080000000,257,44080000000,imu_link,-0.00165032592941,-0.355538804757,0.00233269722481,0.934657152789,0.0,0.0,0.0,0.0,0.0,0.0,0.0,0.0,0.0,0.00168681629366,-0.0124553428428,-0.00082407713471,0.0,0.0,0.0,0.0,0.0,0.0,0.0,0.0,0.0,5.05072607604,-0.0225380611376,8.27747706629,0.0,0.0,0.0,0.0,0.0,0.0,0.0,0.0,0.0
44084000000,258,44084000000,imu_link,-0.00164554464631,-0.355563812158,0.00233270660436,0.934647648125,0.0,0.0,0.0,0.0,0.0,0.0,0.0,0.0,0.0,0.00219908737786,-0.0133818962057,-0.000855131940312,0.0,0.0,0.0,0.0,0.0,0.0,0.0,0.0,0.0,5.05755549885,-0.0224683673716,8.27055291344,0.0,0.0,0.0,0.0,0.0,0.0,0.0,0.0,0.0
44088000000,259,44088000000,imu_link,-0.00164000411132,-0.355590453866,0.00233296816199,0.934637521591,0.0,0.0,0.0,0.0,0.0,0.0,0.0,0.0,0.0,0.00259631873921,-0.0142572965548,-0.000872883700161,0.0,0.0,0.0,0.0,0.0,0.0,0.0,0.0,0.0,5.06334739799,-0.0224475575867,8.2590416122,0.0,0.0,0.0,0.0,0.0,0.0,0.0,0.0,0.0
44092000000,260,44092000000,imu_link,-0.00163383140649,-0.355618377621,0.00233343911674,0.934626906929,0.0,0.0,0.0,0.0,0.0,0.0,0.0,0.0,0.0,0.00292707762125,-0.0149441174857,-0.000887907168584,0.0,0.0,0.0,0.0,0.0,0.0,0.0,0.0,0.0,5.06989676073,-0.0224803087001,8.24892408598,0.0,0.0,0.0,0.0,0.0,0.0,0.0,0.0,0.0
44096000000,261,44096000000,imu_link,-0.00162728696051,-0.355647336203,0.00233406928828,0.934615897741,0.0,0.0,0.0,0.0,0.0,0.0,0.0,0.0,0.0,0.00312757782023,-0.0154984200683,-0.000879987078906,0.0,0.0,0.0,0.0,0.0,0.0,0.0,0.0,0.0,5.07559446571,-0.0224964112757,8.23719968405,0.0,0.0,0.0,0.0,0.0,0.0,0.0,0.0,0.0
44100000000,262,44100000000,imu_link,-0.00162092209396,-0.355677104804,0.00233479530837,0.934604578665,0.0,0.0,0.0,0.0,0.0,0.0,0.0,0.0,0.0,0.00305950560879,-0.0159319222829,-0.000803560234445,0.0,0.0,0.0,0.0,0.0,0.0,0.0,0.0,0.0,5.08174912352,-0.0225399713367,8.22758357376,0.0,0.0,0.0,0.0,0.0,0.0,0.0,0.0,0.0
44104000000,263,44104000000,imu_link,-0.00161542299849,-0.355707604056,0.00233554719097,0.934592978812,0.0,0.0,0.0,0.0,0.0,0.0,0.0,0.0,0.0,0.00265844763171,-0.0163223005958,-0.000637771530786,0.0,0.0,0.0,0.0,0.0,0.0,0.0,0.0,0.0,5.08776452022,-0.0226640264312,8.21843595418,0.0,0.0,0.0,0.0,0.0,0.0,0.0,0.0,0.0
44108000000,264,44108000000,imu_link,-0.00161096036402,-0.355739120872,0.0023363319129,0.934580988594,0.0,0.0,0.0,0.0,0.0,0.0,0.0,0.0,0.0,0.00217845005909,-0.0168660480521,-0.000438453338972,0.0,0.0,0.0,0.0,0.0,0.0,0.0,0.0,0.0,5.0948434541,-0.0230013677465,8.21476863386,0.0,0.0,0.0,0.0,0.0,0.0,0.0,0.0,0.0
44112000000,265,44112000000,imu_link,-0.00160721212148,-0.355771990591,0.00233722702596,0.93456848061,0.0,0.0,0.0,0.0,0.0,0.0,0.0,0.0,0.0,0.00186225925726,-0.0175895966436,-0.000260284937767,0.0,0.0,0.0,0.0,0.0,0.0,0.0,0.0,0.0,5.10177038556,-0.0233971318396,8.21096457979,0.0,0.0,0.0,0.0,0.0,0.0,0.0,0.0,0.0
44116000000,266,44116000000,imu_link,-0.00160377759373,-0.355806730415,0.00233833463318,0.934555258227,0.0,0.0,0.0,0.0,0.0,0.0,0.0,0.0,0.0,0.00175070549123,-0.018590352774,-0.000105852263026,0.0,0.0,0.0,0.0,0.0,0.0,0.0,0.0,0.0,5.10765010174,-0.0237331912059,8.20502613877,0.0,0.0,0.0,0.0,0.0,0.0,0.0,0.0,0.0
44120000000,267,44120000000,imu_link,-0.00160059500895,-0.355843385053,0.00233964710977,0.93454130431,0.0,0.0,0.0,0.0,0.0,0.0,0.0,0.0,0.0,0.00166659977657,-0.0196151147036,3.40199254501e-05,0.0,0.0,0.0,0.0,0.0,0.0,0.0,0.0,0.0,5.11359345925,-0.0239261775558,8.19676287265,0.0,0.0,0.0,0.0,0.0,0.0,0.0,0.0,0.0
44124000000,268,44124000000,imu_link,-0.00159766610757,-0.355881771408,0.00234112771045,0.934526688417,0.0,0.0,0.0,0.0,0.0,0.0,0.0,0.0,0.0,0.00157541831645,-0.020541912672,0.000157103667652,0.0,0.0,0.0,0.0,0.0,0.0,0.0,0.0,0.0,5.11971981908,-0.0241229019047,8.18751681252,0.0,0.0,0.0,0.0,0.0,0.0,0.0,0.0,0.0
44128000000,269,44128000000,imu_link,-0.00159464718594,-0.355921553297,0.00234280292392,0.934511538866,0.0,0.0,0.0,0.0,0.0,0.0,0.0,0.0,0.0,0.00165005118339,-0.0212892151272,0.000231530688582,0.0,0.0,0.0,0.0,0.0,0.0,0.0,0.0,0.0,5.1262333734,-0.0244039861489,8.17909760881,0.0,0.0,0.0,0.0,0.0,0.0,0.0,0.0,0.0
44132000000,270,44132000000,imu_link,-0.00159105231536,-0.355962212013,0.00234476271895,0.934496053635,0.0,0.0,0.0,0.0,0.0,0.0,0.0,0.0,0.0,0.00196851624365,-0.0217595569631,0.000261700841795,0.0,0.0,0.0,0.0,0.0,0.0,0.0,0.0,0.0,5.13194076565,-0.0246597095135,8.16685879633,0.0,0.0,0.0,0.0,0.0,0.0,0.0,0.0,0.0
44136000000,271,44136000000,imu_link,-0.00158658440911,-0.356003396587,0.00234709157617,0.934480366583,0.0,0.0,0.0,0.0,0.0,0.0,0.0,0.0,0.0,0.00244134948178,-0.0220425005931,0.000278578847181,0.0,0.0,0.0,0.0,0.0,0.0,0.0,0.0,0.0,5.13764056433,-0.0248067753292,8.15624401563,0.0,0.0,0.0,0.0,0.0,0.0,0.0,0.0,0.0
44140000000,272,44140000000,imu_link,-0.00158121576925,-0.356044973837,0.00234981825185,0.934464528335,0.0,0.0,0.0,0.0,0.0,0.0,0.0,0.0,0.0,0.00293244000742,-0.02225426026,0.000303989432974,0.0,0.0,0.0,0.0,0.0,0.0,0.0,0.0,0.0,5.14309249099,-0.0248184413739,8.14648325552,0.0,0.0,0.0,0.0,0.0,0.0,0.0,0.0,0.0
44144000000,273,44144000000,imu_link,-0.00157533082846,-0.356087223932,0.0023528672858,0.93444843159,0.0,0.0,0.0,0.0,0.0,0.0,0.0,0.0,0.0,0.00323006458849,-0.022615514964,0.000362464197834,0.0,0.0,0.0,0.0,0.0,0.0,0.0,0.0,0.0,5.14897300019,-0.0247293739673,8.14058145646,0.0,0.0,0.0,0.0,0.0,0.0,0.0,0.0,0.0
44148000000,274,44148000000,imu_link,-0.00156938377126,-0.356130836902,0.00235609455594,0.934431812847,0.0,0.0,0.0,0.0,0.0,0.0,0.0,0.0,0.0,0.00328880619652,-0.0233454350851,0.000434221637097,0.0,0.0,0.0,0.0,0.0,0.0,0.0,0.0,0.0,5.15680439447,-0.0247672690283,8.14328251364,0.0,0.0,0.0,0.0,0.0,0.0,0.0,0.0,0.0
44152000000,275,44152000000,imu_link,-0.00156379428553,-0.356176401235,0.00235933304057,0.934414447287,0.0,0.0,0.0,0.0,0.0,0.0,0.0,0.0,0.0,0.0031208552123,-0.0243897127147,0.000502480905031,0.0,0.0,0.0,0.0,0.0,0.0,0.0,0.0,0.0,5.16356916247,-0.0249541977478,8.14238846226,0.0,0.0,0.0,0.0,0.0,0.0,0.0,0.0,0.0
44156000000,276,44156000000,imu_link,-0.00155864987179,-0.356224122361,0.00236253989376,0.934396256234,0.0,0.0,0.0,0.0,0.0,0.0,0.0,0.0,0.0,0.00290409143372,-0.025543843274,0.000566251950847,0.0,0.0,0.0,0.0,0.0,0.0,0.0,0.0,0.0,5.16854073415,-0.0252251191265,8.13414377407,0.0,0.0,0.0,0.0,0.0,0.0,0.0,0.0,0.0
44160000000,277,44160000000,imu_link,-0.00155389138552,-0.356273923686,0.00236573056835,0.934377268581,0.0,0.0,0.0,0.0,0.0,0.0,0.0,0.0,0.0,0.0027178271518,-0.0266571232518,0.000626751530102,0.0,0.0,0.0,0.0,0.0,0.0,0.0,0.0,0.0,5.17340691047,-0.0255162806384,8.12395443935,0.0,0.0,0.0,0.0,0.0,0.0,0.0,0.0,0.0
44164000000,278,44164000000,imu_link,-0.00154932123289,-0.356325519263,0.00236893272937,0.93435759326,0.0,0.0,0.0,0.0,0.0,0.0,0.0,0.0,0.0,0.00262922932979,-0.0276176629675,0.000665086421147,0.0,0.0,0.0,0.0,0.0,0.0,0.0,0.0,0.0,5.17931989384,-0.0257810717974,8.11610802857,0.0,0.0,0.0,0.0,0.0,0.0,0.0,0.0,0.0
44168000000,279,44168000000,imu_link,-0.00154484112539,-0.356378537992,0.00237213183984,0.934337371678,0.0,0.0,0.0,0.0,0.0,0.0,0.0,0.0,0.0,0.00258450981668,-0.0283797436996,0.000679248526708,0.0,0.0,0.0,0.0,0.0,0.0,0.0,0.0,0.0,5.1845484855,-0.0259767540488,8.10574440206,0.0,0.0,0.0,0.0,0.0,0.0,0.0,0.0,0.0
44172000000,280,44172000000,imu_link,-0.00154031867446,-0.356432783793,0.00237533696651,0.934316678557,0.0,0.0,0.0,0.0,0.0,0.0,0.0,0.0,0.0,0.00260354375302,-0.0290370711708,0.000674125424689,0.0,0.0,0.0,0.0,0.0,0.0,0.0,0.0,0.0,5.188435439,-0.02617502387,8.09225357933,0.0,0.0,0.0,0.0,0.0,0.0,0.0,0.0,0.0
44176000000,281,44176000000,imu_link,-0.00153580887077,-0.356488206976,0.00237853547237,0.934295532552,0.0,0.0,0.0,0.0,0.0,0.0,0.0,0.0,0.0,0.00259470842285,-0.0296677866562,0.000672917508825,0.0,0.0,0.0,0.0,0.0,0.0,0.0,0.0,0.0,5.19319988401,-0.0263309772813,8.08251194122,0.0,0.0,0.0,0.0,0.0,0.0,0.0,0.0,0.0
44180000000,282,44180000000,imu_link,-0.00153141296141,-0.356544975268,0.00238171900226,0.93427386927,0.0,0.0,0.0,0.0,0.0,0.0,0.0,0.0,0.0,0.00253683664397,-0.0303882056636,0.000685804777086,0.0,0.0,0.0,0.0,0.0,0.0,0.0,0.0,0.0,5.19929463543,-0.0264651041464,8.07753187485,0.0,0.0,0.0,0.0,0.0,0.0,0.0,0.0,0.0
44184000000,283,44184000000,imu_link,-0.00152715618044,-0.35660310257,0.00238490841634,0.934251683029,0.0,0.0,0.0,0.0,0.0,0.0,0.0,0.0,0.0,0.00247087480228,-0.0311161175065,0.000712938425494,0.0,0.0,0.0,0.0,0.0,0.0,0.0,0.0,0.0,5.2050262405,-0.0266246619577,8.0707754247,0.0,0.0,0.0,0.0,0.0,0.0,0.0,0.0,0.0
44188000000,284,44188000000,imu_link,-0.00152264453632,-0.356662573243,0.0023882263676,0.934228979842,0.0,0.0,0.0,0.0,0.0,0.0,0.0,0.0,0.0,0.00261084970879,-0.0318362148105,0.000727129639572,0.0,0.0,0.0,0.0,0.0,0.0,0.0,0.0,0.0,5.21088298133,-0.0268585515948,8.06422556392,0.0,0.0,0.0,0.0,0.0,0.0,0.0,0.0,0.0
44192000000,285,44192000000,imu_link,-0.00151732776103,-0.356723032711,0.00239183538436,0.934205895279,0.0,0.0,0.0,0.0,0.0,0.0,0.0,0.0,0.0,0.00303737314852,-0.0323672900161,0.000719213087908,0.0,0.0,0.0,0.0,0.0,0.0,0.0,0.0,0.0,5.21717083064,-0.02711615821,8.05707535915,0.0,0.0,0.0,0.0,0.0,0.0,0.0,0.0,0.0
44196000000,286,44196000000,imu_link,-0.00151086233752,-0.356784262053,0.00239582251843,0.934182513046,0.0,0.0,0.0,0.0,0.0,0.0,0.0,0.0,0.0,0.00364020515336,-0.0327816540452,0.000690730073451,0.0,0.0,0.0,0.0,0.0,0.0,0.0,0.0,0.0,5.22122228584,-0.0272994701872,8.0449368665,0.0,0.0,0.0,0.0,0.0,0.0,0.0,0.0,0.0
44200000000,287,44200000000,imu_link,-0.0015031436357,-0.356846181019,0.00240018844065,0.934158863763,0.0,0.0,0.0,0.0,0.0,0.0,0.0,0.0,0.0,0.00429214548106,-0.0331531978705,0.000643882656725,0.0,0.0,0.0,0.0,0.0,0.0,0.0,0.0,0.0,5.22563174471,-0.0273999636147,8.03503105289,0.0,0.0,0.0,0.0,0.0,0.0,0.0,0.0,0.0
44208000000,288,44208000000,imu_link,-0.00148452558838,-0.356970916257,0.00240984595929,0.934111210602,0.0,0.0,0.0,0.0,0.0,0.0,0.0,0.0,0.0,0.00535340736784,-0.0333850394513,0.000560086656746,0.0,0.0,0.0,0.0,0.0,0.0,0.0,0.0,0.0,5.23402444617,-0.0273168055223,8.02262807653,0.0,0.0,0.0,0.0,0.0,0.0,0.0,0.0,0.0
44212000000,289,44212000000,imu_link,-0.00147421740707,-0.357032632046,0.00241503767016,0.934087626473,0.0,0.0,0.0,0.0,0.0,0.0,0.0,0.0,0.0,0.00564927037444,-0.0330504038394,0.00056756492218,0.0,0.0,0.0,0.0,0.0,0.0,0.0,0.0,0.0,5.24148349377,-0.0273725679848,8.0109874964,0.0,0.0,0.0,0.0,0.0,0.0,0.0,0.0,0.0
44216000000,290,44216000000,imu_link,-0.00146364687219,-0.357093378142,0.00242042373624,0.934064408151,0.0,0.0,0.0,0.0,0.0,0.0,0.0,0.0,0.0,0.00580793712348,-0.0325326718236,0.000611775984621,0.0,0.0,0.0,0.0,0.0,0.0,0.0,0.0,0.0,5.24541555927,-0.0274766617316,8.00006418632,0.0,0.0,0.0,0.0,0.0,0.0,0.0,0.0,0.0
44220000000,291,44220000000,imu_link,-0.00145300094311,-0.357153193225,0.00242593457322,0.934041540939,0.0,0.0,0.0,0.0,0.0,0.0,0.0,0.0,0.0,0.00586680974536,-0.0320353517117,0.000656843045928,0.0,0.0,0.0,0.0,0.0,0.0,0.0,0.0,0.0,5.24984566329,-0.0276286791811,7.99289615748,0.0,0.0,0.0,0.0,0.0,0.0,0.0,0.0,0.0
44224000000,292,44224000000,imu_link,-0.00144247820186,-0.357212403543,0.00243150287963,0.934018900133,0.0,0.0,0.0,0.0,0.0,0.0,0.0,0.0,0.0,0.00582043921149,-0.031712375713,0.000705845663194,0.0,0.0,0.0,0.0,0.0,0.0,0.0,0.0,0.0,5.2557762046,-0.0277738156144,7.99077628757,0.0,0.0,0.0,0.0,0.0,0.0,0.0,0.0,0.0
44228000000,293,44228000000,imu_link,-0.00143212836344,-0.357271429975,0.00243711933215,0.933996324822,0.0,0.0,0.0,0.0,0.0,0.0,0.0,0.0,0.0,0.00574856194495,-0.0316146258879,0.000759264872509,0.0,0.0,0.0,0.0,0.0,0.0,0.0,0.0,0.0,5.2616106161,-0.0279588192221,7.98900513801,0.0,0.0,0.0,0.0,0.0,0.0,0.0,0.0,0.0
44232000000,294,44232000000,imu_link,-0.00142187480128,-0.357330425435,0.00244283319863,0.933973756535,0.0,0.0,0.0,0.0,0.0,0.0,0.0,0.0,0.0,0.00572104548992,-0.0315988597519,0.000821969006763,0.0,0.0,0.0,0.0,0.0,0.0,0.0,0.0,0.0,5.26742837475,-0.0281490911471,7.98485394148,0.0,0.0,0.0,0.0,0.0,0.0,0.0,0.0,0.0
44236000000,295,44236000000,imu_link,-0.00141163617018,-0.357389245466,0.00244866867625,0.933951250618,0.0,0.0,0.0,0.0,0.0,0.0,0.0,0.0,0.0,0.00573605918002,-0.0315058613151,0.000881476019482,0.0,0.0,0.0,0.0,0.0,0.0,0.0,0.0,0.0,5.27131787466,-0.0283225215574,7.97348293978,0.0,0.0,0.0,0.0,0.0,0.0,0.0,0.0,0.0
44240000000,296,44240000000,imu_link,-0.00140144044734,-0.357447628524,0.00245460159872,0.933928907229,0.0,0.0,0.0,0.0,0.0,0.0,0.0,0.0,0.0,0.00573408465315,-0.0312727789195,0.000934757294451,0.0,0.0,0.0,0.0,0.0,0.0,0.0,0.0,0.0,5.27603941144,-0.0285907701438,7.96442065197,0.0,0.0,0.0,0.0,0.0,0.0,0.0,0.0,0.0
44244000000,297,44244000000,imu_link,-0.00139132714539,-0.35750544511,0.00246060522851,0.933906776048,0.0,0.0,0.0,0.0,0.0,0.0,0.0,0.0,0.0,0.00570907803626,-0.0309702785337,0.000982642170333,0.0,0.0,0.0,0.0,0.0,0.0,0.0,0.0,0.0,5.28044731978,-0.0290042830544,7.95585916913,0.0,0.0,0.0,0.0,0.0,0.0,0.0,0.0,0.0
44248000000,298,44248000000,imu_link,-0.00138148539112,-0.357562630933,0.00246662335613,0.933884881678,0.0,0.0,0.0,0.0,0.0,0.0,0.0,0.0,0.0,0.00558581022616,-0.0306330871359,0.0010380993208,0.0,0.0,0.0,0.0,0.0,0.0,0.0,0.0,0.0,5.28525887557,-0.0292994760003,7.94922873075,0.0,0.0,0.0,0.0,0.0,0.0,0.0,0.0,0.0
44252000000,299,44252000000,imu_link,-0.00137207995565,-0.357619100661,0.00247260886874,0.933863256823,0.0,0.0,0.0,0.0,0.0,0.0,0.0,0.0,0.0,0.00537731283443,-0.0302499671683,0.0011010378784,0.0,0.0,0.0,0.0,0.0,0.0,0.0,0.0,0.0,5.29019607576,-0.0295264973251,7.94333737366,0.0,0.0,0.0,0.0,0.0,0.0,0.0,0.0,0.0
44256000000,300,44256000000,imu_link,-0.00136318217552,-0.357674697344,0.00247852695994,0.933841961746,0.0,0.0,0.0,0.0,0.0,0.0,0.0,0.0,0.0,0.00512952250255,-0.0297826731649,0.00116052154993,0.0,0.0,0.0,0.0,0.0,0.0,0.0,0.0,0.0,5.29369999539,-0.0297219194112,7.93339844729,0.0,0.0,0.0,0.0,0.0,0.0,0.0,0.0,0.0
44260000000,301,44260000000,imu_link,-0.00135460549759,-0.357729118142,0.00248439624964,0.933821112876,0.0,0.0,0.0,0.0,0.0,0.0,0.0,0.0,0.0,0.00497262697636,-0.0291533983597,0.00119540867691,0.0,0.0,0.0,0.0,0.0,0.0,0.0,0.0,0.0,5.29786549307,-0.0299833018502,7.92419059086,0.0,0.0,0.0,0.0,0.0,0.0,0.0,0.0,0.0
44264000000,302,44264000000,imu_link,-0.00134587264967,-0.357782026127,0.00249022626966,0.933800840212,0.0,0.0,0.0,0.0,0.0,0.0,0.0,0.0,0.0,0.00504078991962,-0.0283441542942,0.00114944884157,0.0,0.0,0.0,0.0,0.0,0.0,0.0,0.0,0.0,5.30321740241,-0.0303020457821,7.91814232108,0.0,0.0,0.0,0.0,0.0,0.0,0.0,0.0,0.0
44268000000,303,44268000000,imu_link,-0.0013366438812,-0.357833366175,0.00249601155963,0.933781165671,0.0,0.0,0.0,0.0,0.0,0.0,0.0,0.0,0.0,0.00526668838959,-0.0275056729494,0.00104015902503,0.0,0.0,0.0,0.0,0.0,0.0,0.0,0.0,0.0,5.30852158051,-0.0305572849268,7.91412404057,0.0,0.0,0.0,0.0,0.0,0.0,0.0,0.0,0.0
44272000000,304,44272000000,imu_link,-0.00132692360093,-0.357883173726,0.00250175513673,0.933762075937,0.0,0.0,0.0,0.0,0.0,0.0,0.0,0.0,0.0,0.00549101089209,-0.0266861178962,0.00093303837737,0.0,0.0,0.0,0.0,0.0,0.0,0.0,0.0,0.0,5.31363546319,-0.0306667597813,7.90966357337,0.0,0.0,0.0,0.0,0.0,0.0,0.0,0.0,0.0
44276000000,305,44276000000,imu_link,-0.00131691320181,-0.357931604465,0.00250744854585,0.933743511339,0.0,0.0,0.0,0.0,0.0,0.0,0.0,0.0,0.0,0.00561955537472,-0.0259496712403,0.000857958150638,0.0,0.0,0.0,0.0,0.0,0.0,0.0,0.0,0.0,5.31747395474,-0.0307345042253,7.90248333493,0.0,0.0,0.0,0.0,0.0,0.0,0.0,0.0,0.0
44280000000,306,44280000000,imu_link,-0.0013072975095,-0.357978928745,0.00251299867134,0.933725367753,0.0,0.0,0.0,0.0,0.0,0.0,0.0,0.0,0.0,0.00541129945421,-0.0253571611102,0.000861902811328,0.0,0.0,0.0,0.0,0.0,0.0,0.0,0.0,0.0,5.3228232834,-0.0307082863832,7.89953282555,0.0,0.0,0.0,0.0,0.0,0.0,0.0,0.0,0.0
44284000000,307,44284000000,imu_link,-0.00129893798569,-0.358025386282,0.00251825971462,0.933707552666,0.0,0.0,0.0,0.0,0.0,0.0,0.0,0.0,0.0,0.00477440237795,-0.0248919459573,0.000951935832821,0.0,0.0,0.0,0.0,0.0,0.0,0.0,0.0,0.0,5.32922313936,-0.030853554135,7.89932036959,0.0,0.0,0.0,0.0,0.0,0.0,0.0,0.0,0.0
44288000000,308,44288000000,imu_link,-0.00129229198839,-0.358070912753,0.00252316324238,0.933690090485,0.0,0.0,0.0,0.0,0.0,0.0,0.0,0.0,0.0,0.00391183776674,-0.0243917097767,0.00109193170157,0.0,0.0,0.0,0.0,0.0,0.0,0.0,0.0,0.0,5.33404604249,-0.0312271991036,7.89275246424,0.0,0.0,0.0,0.0,0.0,0.0,0.0,0.0,0.0
44292000000,309,44292000000,imu_link,-0.00128742796693,-0.358115294903,0.00252770208818,0.933673063126,0.0,0.0,0.0,0.0,0.0,0.0,0.0,0.0,0.0,0.00301636478675,-0.0237771570547,0.00124090942592,0.0,0.0,0.0,0.0,0.0,0.0,0.0,0.0,0.0,5.33947317507,-0.031759970427,7.88700277272,0.0,0.0,0.0,0.0,0.0,0.0,0.0,0.0,0.0
44296000000,310,44296000000,imu_link,-0.00128411213326,-0.358158243265,0.00253192453935,0.933656582045,0.0,0.0,0.0,0.0,0.0,0.0,0.0,0.0,0.0,0.00223912502775,-0.0230078367185,0.00137065225346,0.0,0.0,0.0,0.0,0.0,0.0,0.0,0.0,0.0,5.34352258086,-0.0322361171623,7.87751872333,0.0,0.0,0.0,0.0,0.0,0.0,0.0,0.0,0.0
44300000000,311,44300000000,imu_link,-0.00128200952397,-0.358199880929,0.00253592589607,0.933640600463,0.0,0.0,0.0,0.0,0.0,0.0,0.0,0.0,0.0,0.00163514416618,-0.0223048383567,0.00148491146442,0.0,0.0,0.0,0.0,0.0,0.0,0.0,0.0,0.0,5.34812588043,-0.0326072743697,7.87267856903,0.0,0.0,0.0,0.0,0.0,0.0,0.0,0.0,0.0
44304000000,312,44304000000,imu_link,-0.00128055894318,-0.358240729799,0.00253988275942,0.933624918625,0.0,0.0,0.0,0.0,0.0,0.0,0.0,0.0,0.0,0.00132398756815,-0.0218820738108,0.00158104487428,0.0,0.0,0.0,0.0,0.0,0.0,0.0,0.0,0.0,5.35333679669,-0.0329630492033,7.87212537639,0.0,0.0,0.0,0.0,0.0,0.0,0.0,0.0,0.0
44308000000,313,44308000000,imu_link,-0.00127926402451,-0.358281145602,0.00254394246221,0.933609400417,0.0,0.0,0.0,0.0,0.0,0.0,0.0,0.0,0.0,0.00127039792176,-0.0216504712545,0.00165700334744,0.0,0.0,0.0,0.0,0.0,0.0,0.0,0.0,0.0,5.35874747475,-0.0332433317342,7.8702283404,0.0,0.0,0.0,0.0,0.0,0.0,0.0,0.0,0.0
44312000000,314,44312000000,imu_link,-0.00127801175608,-0.358321328984,0.00254814875039,0.933593968928,0.0,0.0,0.0,0.0,0.0,0.0,0.0,0.0,0.0,0.00127709908353,-0.0215264806771,0.00173310883995,0.0,0.0,0.0,0.0,0.0,0.0,0.0,0.0,0.0,5.36383280428,-0.033377175679,7.86676019645,0.0,0.0,0.0,0.0,0.0,0.0,0.0,0.0,0.0
44316000000,315,44316000000,imu_link,-0.00127707767761,-0.358361493109,0.00255244286729,0.933578542151,0.0,0.0,0.0,0.0,0.0,0.0,0.0,0.0,0.0,0.00114433196932,-0.0215162981703,0.00183112045028,0.0,0.0,0.0,0.0,0.0,0.0,0.0,0.0,0.0,5.36866558583,-0.0333985799435,7.86213361692,0.0,0.0,0.0,0.0,0.0,0.0,0.0,0.0,0.0
44320000000,316,44320000000,imu_link,-0.00127666082151,-0.358401941425,0.00255675732966,0.933563003504,0.0,0.0,0.0,0.0,0.0,0.0,0.0,0.0,0.0,0.000906109509015,-0.0216683530296,0.00193325509214,0.0,0.0,0.0,0.0,0.0,0.0,0.0,0.0,0.0,5.3734641279,-0.0334972642446,7.85824647095,0.0,0.0,0.0,0.0,0.0,0.0,0.0,0.0,0.0
44324000000,317,44324000000,imu_link,-0.00127670331806,-0.358442688951,0.00256108676753,0.933547347273,0.0,0.0,0.0,0.0,0.0,0.0,0.0,0.0,0.0,0.000693918246693,-0.021828512537,0.00202252114571,0.0,0.0,0.0,0.0,0.0,0.0,0.0,0.0,0.0,5.37849778555,-0.0336632516003,7.85320812977,0.0,0.0,0.0,0.0,0.0,0.0,0.0,0.0,0.0
44328000000,318,44328000000,imu_link,-0.00127685467959,-0.358483501877,0.00256544924928,0.933531663627,0.0,0.0,0.0,0.0,0.0,0.0,0.0,0.0,0.0,0.000648923865232,-0.0218638342406,0.00205744944181,0.0,0.0,0.0,0.0,0.0,0.0,0.0,0.0,0.0,5.38454327622,-0.0338814822751,7.84967113783,0.0,0.0,0.0,0.0,0.0,0.0,0.0,0.0,0.0
44332000000,319,44332000000,imu_link,-0.00127695596801,-0.358524020556,0.00256985233222,0.933516090877,0.0,0.0,0.0,0.0,0.0,0.0,0.0,0.0,0.0,0.000680021945551,-0.0217067034233,0.0020674711011,0.0,0.0,0.0,0.0,0.0,0.0,0.0,0.0,0.0,5.38903148036,-0.0340892631819,7.84158395717,0.0,0.0,0.0,0.0,0.0,0.0,0.0,0.0,0.0
44336000000,320,44336000000,imu_link,-0.00127697868129,-0.358564003227,0.00257428416273,0.933500722001,0.0,0.0,0.0,0.0,0.0,0.0,0.0,0.0,0.0,0.00072266977435,-0.0214200893562,0.00206688399472,0.0,0.0,0.0,0.0,0.0,0.0,0.0,0.0,0.0,5.39285657912,-0.0343349933581,7.83268122857,0.0,0.0,0.0,0.0,0.0,0.0,0.0,0.0,0.0
44340000000,321,44340000000,imu_link,-0.00127711486269,-0.358603368798,0.00257866755304,0.933485588179,0.0,0.0,0.0,0.0,0.0,0.0,0.0,0.0,0.0,0.000661968403252,-0.0210897400357,0.00206470876691,0.0,0.0,0.0,0.0,0.0,0.0,0.0,0.0,0.0,5.39809316516,-0.0344176524026,7.82886769158,0.0,0.0,0.0,0.0,0.0,0.0,0.0,0.0,0.0
44344000000,322,44344000000,imu_link,-0.00127756068381,-0.358642467685,0.00258294751692,0.933470554755,0.0,0.0,0.0,0.0,0.0,0.0,0.0,0.0,0.0,0.000499309716814,-0.020946799958,0.00207199499484,0.0,0.0,0.0,0.0,0.0,0.0,0.0,0.0,0.0,5.40309702611,-0.0344343386872,7.82732384661,0.0,0.0,0.0,0.0,0.0,0.0,0.0,0.0,0.0
44348000000,323,44348000000,imu_link,-0.00127820666615,-0.358682032011,0.00258714542791,0.933455340538,0.0,0.0,0.0,0.0,0.0,0.0,0.0,0.0,0.0,0.000390457000754,-0.0211961461921,0.0020695273537,0.0,0.0,0.0,0.0,0.0,0.0,0.0,0.0,0.0,5.40869870851,-0.0345394063592,7.82957927818,0.0,0.0,0.0,0.0,0.0,0.0,0.0,0.0,0.0
44352000000,324,44352000000,imu_link,-0.001278844285,-0.35872303615,0.00259132413236,0.93343957112,0.0,0.0,0.0,0.0,0.0,0.0,0.0,0.0,0.0,0.000388698616537,-0.0219677154972,0.00205886121113,0.0,0.0,0.0,0.0,0.0,0.0,0.0,0.0,0.0,5.41504086721,-0.0346566852776,7.8351081781,0.0,0.0,0.0,0.0,0.0,0.0,0.0,0.0,0.0
44356000000,325,44356000000,imu_link,-0.00127951027234,-0.35876599002,0.00259546592977,0.933423050291,0.0,0.0,0.0,0.0,0.0,0.0,0.0,0.0,0.0,0.000365832120118,-0.0230124074969,0.00204645106023,0.0,0.0,0.0,0.0,0.0,0.0,0.0,0.0,0.0,5.41940062881,-0.0347241778835,7.83167814369,0.0,0.0,0.0,0.0,0.0,0.0,0.0,0.0,0.0
44360000000,326,44360000000,imu_link,-0.00128027794491,-0.358810905877,0.00259954210043,0.933405773013,0.0,0.0,0.0,0.0,0.0,0.0,0.0,0.0,0.0,0.00030357205087,-0.0240636094118,0.00203378937692,0.0,0.0,0.0,0.0,0.0,0.0,0.0,0.0,0.0,5.42318841155,-0.0347922582973,7.82338702858,0.0,0.0,0.0,0.0,0.0,0.0,0.0,0.0,0.0
44364000000,327,44364000000,imu_link,-0.00128146727405,-0.358857367637,0.00260348511168,0.933387898679,0.0,0.0,0.0,0.0,0.0,0.0,0.0,0.0,0.0,8.05026671968e-05,-0.0248915687804,0.00204707742556,0.0,0.0,0.0,0.0,0.0,0.0,0.0,0.0,0.0,5.42819640468,-0.0348318443651,7.81536707719,0.0,0.0,0.0,0.0,0.0,0.0,0.0,0.0,0.0
44368000000,328,44368000000,imu_link,-0.00128354951761,-0.358904654604,0.00260722239826,0.933369703706,0.0,0.0,0.0,0.0,0.0,0.0,0.0,0.0,0.0,-0.000374407643819,-0.0253329256913,0.00211117007604,0.0,0.0,0.0,0.0,0.0,0.0,0.0,0.0,0.0,5.43316945774,-0.0348937202196,7.80584995753,0.0,0.0,0.0,0.0,0.0,0.0,0.0,0.0,0.0
44372000000,329,44372000000,imu_link,-0.00128689764254,-0.358951888558,0.00261071686763,0.933351525285,0.0,0.0,0.0,0.0,0.0,0.0,0.0,0.0,0.0,-0.0010086696933,-0.0253034089081,0.00222502876725,0.0,0.0,0.0,0.0,0.0,0.0,0.0,0.0,0.0,5.43921775475,-0.0350170534872,7.79850380664,0.0,0.0,0.0,0.0,0.0,0.0,0.0,0.0,0.0
44376000000,330,44376000000,imu_link,-0.00129164234194,-0.358998393787,0.00261396738592,0.933333623145,0.0,0.0,0.0,0.0,0.0,0.0,0.0,0.0,0.0,-0.0017030714749,-0.0249117642946,0.00236194248461,0.0,0.0,0.0,0.0,0.0,0.0,0.0,0.0,0.0,5.44306658075,-0.035222577486,7.78705306643,0.0,0.0,0.0,0.0,0.0,0.0,0.0,0.0,0.0
44380000000,331,44380000000,imu_link,-0.00129776676847,-0.359043832176,0.00261697775576,0.933316127475,0.0,0.0,0.0,0.0,0.0,0.0,0.0,0.0,0.0,-0.00238839394295,-0.0243389867293,0.00249769082391,0.0,0.0,0.0,0.0,0.0,0.0,0.0,0.0,0.0,5.44652348226,-0.0355250792743,7.77738919445,0.0,0.0,0.0,0.0,0.0,0.0,0.0,0.0,0.0
44384000000,332,44384000000,imu_link,-0.0013047319066,-0.359088191727,0.00261981477703,0.933299043612,0.0,0.0,0.0,0.0,0.0,0.0,0.0,0.0,0.0,-0.00281015980025,-0.0237603972791,0.00256788366482,0.0,0.0,0.0,0.0,0.0,0.0,0.0,0.0,0.0,5.4512599303,-0.0359306797723,7.77389653325,0.0,0.0,0.0,0.0,0.0,0.0,0.0,0.0,0.0
44388000000,333,44388000000,imu_link,-0.00131174312644,-0.35913191472,0.00262259768299,0.933282202306,0.0,0.0,0.0,0.0,0.0,0.0,0.0,0.0,0.0,-0.00284038781987,-0.023419702249,0.00255100202653,0.0,0.0,0.0,0.0,0.0,0.0,0.0,0.0,0.0,5.45570288004,-0.036236792966,7.77304041508,0.0,0.0,0.0,0.0,0.0,0.0,0.0,0.0,0.0
44396000000,334,44396000000,imu_link,-0.0013237169096,-0.35921971827,0.00262837243269,0.933248377142,0.0,0.0,0.0,0.0,0.0,0.0,0.0,0.0,0.0,-0.0021349351438,-0.0236307782478,0.00236626518395,0.0,0.0,0.0,0.0,0.0,0.0,0.0,0.0,0.0,5.46244041251,-0.0363602496071,7.77199659099,0.0,0.0,0.0,0.0,0.0,0.0,0.0,0.0,0.0
44400000000,335,44400000000,imu_link,-0.0013285474483,-0.359264410732,0.00263143413452,0.933231157697,0.0,0.0,0.0,0.0,0.0,0.0,0.0,0.0,0.0,-0.00177426542179,-0.0239430442403,0.002289325979,0.0,0.0,0.0,0.0,0.0,0.0,0.0,0.0,0.0,5.46637976441,-0.0361200922896,7.76193976594,0.0,0.0,0.0,0.0,0.0,0.0,0.0,0.0,0.0
44404000000,336,44404000000,imu_link,-0.00133281426214,-0.359309672517,0.00263458561225,0.933213717109,0.0,0.0,0.0,0.0,0.0,0.0,0.0,0.0,0.0,-0.00149599194177,-0.0242492249433,0.00222986645275,0.0,0.0,0.0,0.0,0.0,0.0,0.0,0.0,0.0,5.46973960458,-0.0360052712729,7.75444883494,0.0,0.0,0.0,0.0,0.0,0.0,0.0,0.0,0.0
44408000000,337,44408000000,imu_link,-0.00133645709167,-0.359355341504,0.00263780484156,0.933196117866,0.0,0.0,0.0,0.0,0.0,0.0,0.0,0.0,0.0,-0.00119330681883,-0.0244685980134,0.00214931563724,0.0,0.0,0.0,0.0,0.0,0.0,0.0,0.0,0.0,5.47396218452,-0.0359587263963,7.74729368031,0.0,0.0,0.0,0.0,0.0,0.0,0.0,0.0,0.0
44412000000,338,44412000000,imu_link,-0.00133905739941,-0.359401137672,0.0026411131525,0.933178468294,0.0,0.0,0.0,0.0,0.0,0.0,0.0,0.0,0.0,-0.000691063565832,-0.024538418502,0.00200354446544,0.0,0.0,0.0,0.0,0.0,0.0,0.0,0.0,0.0,5.47939191665,-0.0359901281635,7.74323990339,0.0,0.0,0.0,0.0,0.0,0.0,0.0,0.0,0.0
44416000000,339,44416000000,imu_link,-0.00134028943459,-0.359446831549,0.00264455033214,0.933160857123,0.0,0.0,0.0,0.0,0.0,0.0,0.0,0.0,0.0,-2.93237479458e-05,-0.0244856827197,0.00181781162455,0.0,0.0,0.0,0.0,0.0,0.0,0.0,0.0,0.0,5.4828064011,-0.0359301653497,7.73422672331,0.0,0.0,0.0,0.0,0.0,0.0,0.0,0.0,0.0
44420000000,340,44420000000,imu_link,-0.00134004353505,-0.359492243206,0.00264814081064,0.933143353782,0.0,0.0,0.0,0.0,0.0,0.0,0.0,0.0,0.0,0.000688248495622,-0.0243366819131,0.00162376494294,0.0,0.0,0.0,0.0,0.0,0.0,0.0,0.0,0.0,5.48635585729,-0.0357783021993,7.72604384848,0.0,0.0,0.0,0.0,0.0,0.0,0.0,0.0,0.0
44424000000,341,44424000000,imu_link,-0.001338340733,-0.3595371109,0.00265189920537,0.933126059094,0.0,0.0,0.0,0.0,0.0,0.0,0.0,0.0,0.0,0.00139904028194,-0.0240474212008,0.00144032552477,0.0,0.0,0.0,0.0,0.0,0.0,0.0,0.0,0.0,5.49082983538,-0.0356857509838,7.72004198353,0.0,0.0,0.0,0.0,0.0,0.0,0.0,0.0,0.0
44428000000,342,44428000000,imu_link,-0.00133537946239,-0.359581267915,0.00265582325063,0.933109037106,0.0,0.0,0.0,0.0,0.0,0.0,0.0,0.0,0.0,0.00201709874838,-0.0236686013857,0.00129149283559,0.0,0.0,0.0,0.0,0.0,0.0,0.0,0.0,0.0,5.49499372868,-0.0356362058878,7.71423728602,0.0,0.0,0.0,0.0,0.0,0.0,0.0,0.0,0.0
44432000000,343,44432000000,imu_link,-0.00133147907649,-0.359624720923,0.00265991578601,0.933092284885,0.0,0.0,0.0,0.0,0.0,0.0,0.0,0.0,0.0,0.00248665516028,-0.0232930014045,0.001201370362,0.0,0.0,0.0,0.0,0.0,0.0,0.0,0.0,0.0,5.49976600735,-0.0355119472184,7.71160394431,0.0,0.0,0.0,0.0,0.0,0.0,0.0,0.0,0.0
44436000000,344,44436000000,imu_link,-0.00132730906613,-0.359667604566,0.00266410188904,0.933075749892,0.0,0.0,0.0,0.0,0.0,0.0,0.0,0.0,0.0,0.00263017387654,-0.0229887274237,0.00119663232772,0.0,0.0,0.0,0.0,0.0,0.0,0.0,0.0,0.0,5.50373883165,-0.0352855574195,7.70811656349,0.0,0.0,0.0,0.0,0.0,0.0,0.0,0.0,0.0
44440000000,345,44440000000,imu_link,-0.00132356839484,-0.359710202934,0.0026682989588,0.933059321936,0.0,0.0,0.0,0.0,0.0,0.0,0.0,0.0,0.0,0.00243229416989,-0.0228358220199,0.00127900513811,0.0,0.0,0.0,0.0,0.0,0.0,0.0,0.0,0.0,5.50912971765,-0.035200738734,7.70972281512,0.0,0.0,0.0,0.0,0.0,0.0,0.0,0.0,0.0
44444000000,346,44444000000,imu_link,-0.00132054351547,-0.359752610378,0.00267250020567,0.933042964302,0.0,0.0,0.0,0.0,0.0,0.0,0.0,0.0,0.0,0.00209940853724,-0.0227331505731,0.00140972524865,0.0,0.0,0.0,0.0,0.0,0.0,0.0,0.0,0.0,5.51277981862,-0.035302280163,7.70537197985,0.0,0.0,0.0,0.0,0.0,0.0,0.0,0.0,0.0
44448000000,347,44448000000,imu_link,-0.00131812410734,-0.359794876532,0.00267672737451,0.93302665798,0.0,0.0,0.0,0.0,0.0,0.0,0.0,0.0,0.0,0.00182182862253,-0.0226572137311,0.00153075305781,0.0,0.0,0.0,0.0,0.0,0.0,0.0,0.0,0.0,5.51661460294,-0.0355626038419,7.70066150357,0.0,0.0,0.0,0.0,0.0,0.0,0.0,0.0,0.0
44452000000,348,44452000000,imu_link,-0.00131605006186,-0.359837031611,0.00268095305106,0.933010391788,0.0,0.0,0.0,0.0,0.0,0.0,0.0,0.0,0.0,0.00166061899659,-0.0225977130842,0.0015922062335,0.0,0.0,0.0,0.0,0.0,0.0,0.0,0.0,0.0,5.52147246182,-0.0358295064656,7.69852453617,0.0,0.0,0.0,0.0,0.0,0.0,0.0,0.0,0.0
44456000000,349,44456000000,imu_link,-0.00131415025154,-0.35987905731,0.00268511918459,0.932994173216,0.0,0.0,0.0,0.0,0.0,0.0,0.0,0.0,0.0,0.00156882925761,-0.0225285164496,0.00159579854013,0.0,0.0,0.0,0.0,0.0,0.0,0.0,0.0,0.0,5.52525935157,-0.0360106403919,7.69284805608,0.0,0.0,0.0,0.0,0.0,0.0,0.0,0.0,0.0
44460000000,350,44460000000,imu_link,-0.00131218965842,-0.359920960263,0.00268923914081,0.932978000016,0.0,0.0,0.0,0.0,0.0,0.0,0.0,0.0,0.0,0.00158906973909,-0.0224631429669,0.00156333946715,0.0,0.0,0.0,0.0,0.0,0.0,0.0,0.0,0.0,5.52993412996,-0.0361693847662,7.68967416861,0.0,0.0,0.0,0.0,0.0,0.0,0.0,0.0,0.0
44464000000,351,44464000000,imu_link,-0.00130987399573,-0.359963095547,0.00269339628715,0.932961735384,0.0,0.0,0.0,0.0,0.0,0.0,0.0,0.0,0.0,0.00176102615718,-0.0225884785938,0.00151676027324,0.0,0.0,0.0,0.0,0.0,0.0,0.0,0.0,0.0,5.53433013088,-0.0362750442733,7.68785290382,0.0,0.0,0.0,0.0,0.0,0.0,0.0,0.0,0.0
44468000000,352,44468000000,imu_link,-0.0013069461578,-0.360005981358,0.00269766730001,0.932945179456,0.0,0.0,0.0,0.0,0.0,0.0,0.0,0.0,0.0,0.00206588655177,-0.0229919121914,0.0014595973166,0.0,0.0,0.0,0.0,0.0,0.0,0.0,0.0,0.0,5.53943629139,-0.0363687938652,7.6885963297,0.0,0.0,0.0,0.0,0.0,0.0,0.0,0.0,0.0
44472000000,353,44472000000,imu_link,-0.00130337586993,-0.360049966284,0.00270203833493,0.932928197655,0.0,0.0,0.0,0.0,0.0,0.0,0.0,0.0,0.0,0.00238181529568,-0.0235822091742,0.0013904681463,0.0,0.0,0.0,0.0,0.0,0.0,0.0,0.0,0.0,5.5444044513,-0.0364405720661,7.68807082181,0.0,0.0,0.0,0.0,0.0,0.0,0.0,0.0,0.0
44476000000,354,44476000000,imu_link,-0.00129926245002,-0.360095180289,0.00270645169828,0.932910739658,0.0,0.0,0.0,0.0,0.0,0.0,0.0,0.0,0.0,0.00264081622126,-0.0242420194255,0.00131227787605,0.0,0.0,0.0,0.0,0.0,0.0,0.0,0.0,0.0,5.54746444131,-0.036488857789,7.68126199189,0.0,0.0,0.0,0.0,0.0,0.0,0.0,0.0,0.0
44480000000,355,44480000000,imu_link,-0.00129469272867,-0.360141576848,0.0027108866784,0.932892823153,0.0,0.0,0.0,0.0,0.0,0.0,0.0,0.0,0.0,0.00285565440577,-0.0248768125602,0.00124005740459,0.0,0.0,0.0,0.0,0.0,0.0,0.0,0.0,0.0,5.55052252965,-0.0365075499444,7.67381141581,0.0,0.0,0.0,0.0,0.0,0.0,0.0,0.0,0.0
44484000000,356,44484000000,imu_link,-0.00128979988566,-0.36018907701,0.00271532409133,0.932874478284,0.0,0.0,0.0,0.0,0.0,0.0,0.0,0.0,0.0,0.00300503825366,-0.025469159795,0.00118287361167,0.0,0.0,0.0,0.0,0.0,0.0,0.0,0.0,0.0,5.55381044989,-0.0365041476266,7.66708382489,0.0,0.0,0.0,0.0,0.0,0.0,0.0,0.0,0.0
44488000000,357,44488000000,imu_link,-0.00128474689381,-0.360237486134,0.00271975814745,0.93285577981,0.0,0.0,0.0,0.0,0.0,0.0,0.0,0.0,0.0,0.00307767098691,-0.0259570311765,0.00115235982727,0.0,0.0,0.0,0.0,0.0,0.0,0.0,0.0,0.0,5.55784349151,-0.0365219932659,7.66200254639,0.0,0.0,0.0,0.0,0.0,0.0,0.0,0.0,0.0
44492000000,358,44492000000,imu_link,-0.0012796595475,-0.360286500673,0.00272420026218,0.932836844597,0.0,0.0,0.0,0.0,0.0,0.0,0.0,0.0,0.0,0.00309417100598,-0.0262821062158,0.00114986373873,0.0,0.0,0.0,0.0,0.0,0.0,0.0,0.0,0.0,5.56112361664,-0.0365911093928,7.65375359748,0.0,0.0,0.0,0.0,0.0,0.0,0.0,0.0,0.0
44496000000,359,44496000000,imu_link,-0.00127468602427,-0.360335839711,0.00272864241563,0.932817780869,0.0,0.0,0.0,0.0,0.0,0.0,0.0,0.0,0.0,0.00304056457341,-0.0264564547051,0.00117035369023,0.0,0.0,0.0,0.0,0.0,0.0,0.0,0.0,0.0,5.56381260354,-0.036674103952,7.64458223567,0.0,0.0,0.0,0.0,0.0,0.0,0.0,0.0,0.0
44500000000,360,44500000000,imu_link,-0.00127009434034,-0.360385152826,0.00273302766704,0.932798723757,0.0,0.0,0.0,0.0,0.0,0.0,0.0,0.0,0.0,0.00285225898656,-0.0264426152586,0.00121261675741,0.0,0.0,0.0,0.0,0.0,0.0,0.0,0.0,0.0,5.56766964063,-0.0367500170916,7.63755346259,0.0,0.0,0.0,0.0,0.0,0.0,0.0,0.0,0.0
44504000000,361,44504000000,imu_link,-0.00126597517227,-0.360434134448,0.00273731318611,0.932779791349,0.0,0.0,0.0,0.0,0.0,0.0,0.0,0.0,0.0,0.00261443904959,-0.0262648268776,0.00125128560955,0.0,0.0,0.0,0.0,0.0,0.0,0.0,0.0,0.0,5.57149938736,-0.036905467906,7.63131549088,0.0,0.0,0.0,0.0,0.0,0.0,0.0,0.0,0.0
44508000000,362,44508000000,imu_link,-0.001262135576,-0.360482461519,0.00274151521583,0.932761108776,0.0,0.0,0.0,0.0,0.0,0.0,0.0,0.0,0.0,0.00247005737898,-0.0259140912939,0.00126280301533,0.0,0.0,0.0,0.0,0.0,0.0,0.0,0.0,0.0,5.57609443961,-0.0371050989616,7.62721174505,0.0,0.0,0.0,0.0,0.0,0.0,0.0,0.0,0.0
44512000000,363,44512000000,imu_link,-0.00125863117283,-0.360529997201,0.00274564050906,0.932742728958,0.0,0.0,0.0,0.0,0.0,0.0,0.0,0.0,0.0,0.00230117461845,-0.0254899255613,0.00128751464163,0.0,0.0,0.0,0.0,0.0,0.0,0.0,0.0,0.0,5.57909991563,-0.0372071138172,7.62049430897,0.0,0.0,0.0,0.0,0.0,0.0,0.0,0.0,0.0
44516000000,364,44516000000,imu_link,-0.00125574532812,-0.360576603381,0.00274966846052,0.932724705109,0.0,0.0,0.0,0.0,0.0,0.0,0.0,0.0,0.0,0.00199664940583,-0.0249913537133,0.00135371793865,0.0,0.0,0.0,0.0,0.0,0.0,0.0,0.0,0.0,5.58194389929,-0.0373683361144,7.61346093378,0.0,0.0,0.0,0.0,0.0,0.0,0.0,0.0,0.0
44520000000,365,44520000000,imu_link,-0.00125362504989,-0.36062217618,0.00275361130252,0.932707077327,0.0,0.0,0.0,0.0,0.0,0.0,0.0,0.0,0.0,0.00162594318565,-0.0244369108944,0.00145215307637,0.0,0.0,0.0,0.0,0.0,0.0,0.0,0.0,0.0,5.58519112715,-0.0376706450865,7.60750115399,0.0,0.0,0.0,0.0,0.0,0.0,0.0,0.0,0.0
44524000000,366,44524000000,imu_link,-0.00125203207745,-0.360666688454,0.00275754363671,0.932689856388,0.0,0.0,0.0,0.0,0.0,0.0,0.0,0.0,0.0,0.00137985274348,-0.0238682411092,0.00154243640585,0.0,0.0,0.0,0.0,0.0,0.0,0.0,0.0,0.0,5.58945389058,-0.0379491500556,7.60493322168,0.0,0.0,0.0,0.0,0.0,0.0,0.0,0.0,0.0
44528000000,367,44528000000,imu_link,-0.00125020646429,-0.360710284186,0.00276157503229,0.932672987477,0.0,0.0,0.0,0.0,0.0,0.0,0.0,0.0,0.0,0.0015076917063,-0.0233777166989,0.00154676870808,0.0,0.0,0.0,0.0,0.0,0.0,0.0,0.0,0.0,5.59518166379,-0.0382097517183,7.60732724468,0.0,0.0,0.0,0.0,0.0,0.0,0.0,0.0,0.0
44532000000,368,44532000000,imu_link,-0.00124739143498,-0.360753325829,0.0027657940404,0.932656331293,0.0,0.0,0.0,0.0,0.0,0.0,0.0,0.0,0.0,0.00200382751089,-0.0230824410934,0.00145586562219,0.0,0.0,0.0,0.0,0.0,0.0,0.0,0.0,0.0,5.60122946682,-0.0383552647398,7.612186304,0.0,0.0,0.0,0.0,0.0,0.0,0.0,0.0,0.0
44536000000,369,44536000000,imu_link,-0.00124320204691,-0.360796021834,0.00277023136771,0.932639807694,0.0,0.0,0.0,0.0,0.0,0.0,0.0,0.0,0.0,0.00268467007361,-0.0228993827156,0.0013098039838,0.0,0.0,0.0,0.0,0.0,0.0,0.0,0.0,0.0,5.60478781443,-0.0383164034416,7.60959749471,0.0,0.0,0.0,0.0,0.0,0.0,0.0,0.0,0.0
44540000000,370,44540000000,imu_link,-0.00123778104918,-0.360838478313,0.00277483082773,0.932623375635,0.0,0.0,0.0,0.0,0.0,0.0,0.0,0.0,0.0,0.00328863126337,-0.022772979965,0.00116325185924,0.0,0.0,0.0,0.0,0.0,0.0,0.0,0.0,0.0,5.60815728909,-0.0381868930182,7.60515899384,0.0,0.0,0.0,0.0,0.0,0.0,0.0,0.0,0.0
44544000000,371,44544000000,imu_link,-0.0012315540057,-0.360880511488,0.0027794835457,0.932607106007,0.0,0.0,0.0,0.0,0.0,0.0,0.0,0.0,0.0,0.00367479640389,-0.0225474333663,0.00104269712287,0.0,0.0,0.0,0.0,0.0,0.0,0.0,0.0,0.0,5.61217276023,-0.038037041318,7.60021737167,0.0,0.0,0.0,0.0,0.0,0.0,0.0,0.0,0.0
44548000000,372,44548000000,imu_link,-0.00122509975834,-0.360921858388,0.00278408159352,0.932591100192,0.0,0.0,0.0,0.0,0.0,0.0,0.0,0.0,0.0,0.00377199387592,-0.0221801008731,0.000976263472482,0.0,0.0,0.0,0.0,0.0,0.0,0.0,0.0,0.0,5.61730261092,-0.0379204222749,7.59759740895,0.0,0.0,0.0,0.0,0.0,0.0,0.0,0.0,0.0
44552000000,373,44552000000,imu_link,-0.00121862607211,-0.360962445484,0.00278857386813,0.932575386635,0.0,0.0,0.0,0.0,0.0,0.0,0.0,0.0,0.0,0.00376320690582,-0.0217730288274,0.000923492522801,0.0,0.0,0.0,0.0,0.0,0.0,0.0,0.0,0.0,5.62139697378,-0.0379273247008,7.59387240435,0.0,0.0,0.0,0.0,0.0,0.0,0.0,0.0,0.0
44556000000,374,44556000000,imu_link,-0.0012120251988,-0.361002437488,0.00279300677604,0.932559901688,0.0,0.0,0.0,0.0,0.0,0.0,0.0,0.0,0.0,0.00381276712194,-0.021454425907,0.000872899530508,0.0,0.0,0.0,0.0,0.0,0.0,0.0,0.0,0.0,5.62444052997,-0.037988492612,7.58908730203,0.0,0.0,0.0,0.0,0.0,0.0,0.0,0.0,0.0
44560000000,375,44560000000,imu_link,-0.00120513782705,-0.361042071853,0.00279744536667,0.932544553517,0.0,0.0,0.0,0.0,0.0,0.0,0.0,0.0,0.0,0.00394796367385,-0.0212633816981,0.000823861671232,0.0,0.0,0.0,0.0,0.0,0.0,0.0,0.0,0.0,5.62810105627,-0.0380903276846,7.58642218223,0.0,0.0,0.0,0.0,0.0,0.0,0.0,0.0,0.0
44564000000,376,44564000000,imu_link,-0.00119783127288,-0.361081473786,0.00280194010984,0.932529293706,0.0,0.0,0.0,0.0,0.0,0.0,0.0,0.0,0.0,0.00415393187893,-0.021139673856,0.000774389267604,0.0,0.0,0.0,0.0,0.0,0.0,0.0,0.0,0.0,5.63185908209,-0.0382621913138,7.58358620525,0.0,0.0,0.0,0.0,0.0,0.0,0.0,0.0,0.0
44568000000,377,44568000000,imu_link,-0.00119032469448,-0.361120723484,0.00280651989993,0.932514090855,0.0,0.0,0.0,0.0,0.0,0.0,0.0,0.0,0.0,0.00426279793343,-0.0210587400113,0.000777942497602,0.0,0.0,0.0,0.0,0.0,0.0,0.0,0.0,0.0,5.63602129085,-0.0384006137615,7.58189555461,0.0,0.0,0.0,0.0,0.0,0.0,0.0,0.0,0.0
44572000000,378,44572000000,imu_link,-0.00118286300395,-0.361159983426,0.00281118073625,0.932498881753,0.0,0.0,0.0,0.0,0.0,0.0,0.0,0.0,0.0,0.00425648428856,-0.0210646302268,0.000823838516819,0.0,0.0,0.0,0.0,0.0,0.0,0.0,0.0,0.0,5.64023481818,-0.0385010115078,7.58126283285,0.0,0.0,0.0,0.0,0.0,0.0,0.0,0.0,0.0
44576000000,379,44576000000,imu_link,-0.00117555997043,-0.361199335036,0.00281589210398,0.932483634805,0.0,0.0,0.0,0.0,0.0,0.0,0.0,0.0,0.0,0.00419148427334,-0.0211140113441,0.000876048017683,0.0,0.0,0.0,0.0,0.0,0.0,0.0,0.0,0.0,5.64312707412,-0.0386150712812,7.57694565747,0.0,0.0,0.0,0.0,0.0,0.0,0.0,0.0,0.0
44580000000,380,44580000000,imu_link,-0.00116827789725,-0.361238712149,0.00282064439762,0.932468375837,0.0,0.0,0.0,0.0,0.0,0.0,0.0,0.0,0.0,0.00418905992168,-0.0211280675685,0.000898916753781,0.0,0.0,0.0,0.0,0.0,0.0,0.0,0.0,0.0,5.64588637276,-0.0387544880683,7.57112257858,0.0,0.0,0.0,0.0,0.0,0.0,0.0,0.0,0.0
44584000000,381,44584000000,imu_link,-0.00116091438776,-0.361278142361,0.00282541664747,0.932453094344,0.0,0.0,0.0,0.0,0.0,0.0,0.0,0.0,0.0,0.00423054474983,-0.0211570186897,0.000893512795945,0.0,0.0,0.0,0.0,0.0,0.0,0.0,0.0,0.0,5.64935784672,-0.0388780467848,7.56713988234,0.0,0.0,0.0,0.0,0.0,0.0,0.0,0.0,0.0
44588000000,382,44588000000,imu_link,-0.00115357616296,-0.361317755907,0.00283016638975,0.932437739844,0.0,0.0,0.0,0.0,0.0,0.0,0.0,0.0,0.0,0.00421438923006,-0.0212556334836,0.000887583295739,0.0,0.0,0.0,0.0,0.0,0.0,0.0,0.0,0.0,5.6534460508,-0.0389780664838,7.56516230329,0.0,0.0,0.0,0.0,0.0,0.0,0.0,0.0,0.0
44592000000,383,44592000000,imu_link,-0.0011465265645,-0.36135761476,0.00283484982568,0.932422288107,0.0,0.0,0.0,0.0,0.0,0.0,0.0,0.0,0.0,0.00406744414484,-0.0213871198387,0.00090880904367,0.0,0.0,0.0,0.0,0.0,0.0,0.0,0.0,0.0,5.65789554034,-0.0390344462771,7.56333132596,0.0,0.0,0.0,0.0,0.0,0.0,0.0,0.0,0.0
44596000000,384,44596000000,imu_link,-0.00113981865587,-0.361397717953,0.00283946570273,0.932406739415,0.0,0.0,0.0,0.0,0.0,0.0,0.0,0.0,0.0,0.00389553615801,-0.0215180289545,0.000939045806281,0.0,0.0,0.0,0.0,0.0,0.0,0.0,0.0,0.0,5.66070047736,-0.0391485041364,7.55720319384,0.0,0.0,0.0,0.0,0.0,0.0,0.0,0.0,0.0
44600000000,385,44600000000,imu_link,-0.00113363317072,-0.361438003678,0.00284401167645,0.932391117488,0.0,0.0,0.0,0.0,0.0,0.0,0.0,0.0,0.0,0.00363904823768,-0.0216155775908,0.00100085790991,0.0,0.0,0.0,0.0,0.0,0.0,0.0,0.0,0.0,5.66439622155,-0.0392329526442,7.55296208171,0.0,0.0,0.0,0.0,0.0,0.0,0.0,0.0,0.0
44604000000,386,44604000000,imu_link,-0.00112837298347,-0.361478497337,0.00284851635985,0.932375411887,0.0,0.0,0.0,0.0,0.0,0.0,0.0,0.0,0.0,0.00319987341046,-0.0217262979378,0.00114882858321,0.0,0.0,0.0,0.0,0.0,0.0,0.0,0.0,0.0,5.66877220692,-0.0393036808859,7.5511450994,0.0,0.0,0.0,0.0,0.0,0.0,0.0,0.0,0.0
