%time,field.header.seq,field.header.stamp,field.header.frame_id,field.orientation.x,field.orientation.y,field.orientation.z,field.orientation.w,field.orientation_covariance0,field.orientation_covariance1,field.orientation_covariance2,field.orientation_covariance3,field.orientation_covariance4,field.orientation_covariance5,field.orientation_covariance6,field.orientation_covariance7,field.orientation_covariance8,field.angular_velocity.x,field.angular_velocity.y,field.angular_velocity.z,field.angular_velocity_covariance0,field.angular_velocity_covariance1,field.angular_velocity_covariance2,field.angular_velocity_covariance3,field.angular_velocity_covariance4,field.angular_velocity_covariance5,field.angular_velocity_covariance6,field.angular_velocity_covariance7,field.angular_velocity_covariance8,field.linear_acceleration.x,field.linear_acceleration.y,field.linear_acceleration.z,field.linear_acceleration_covariance0,field.linear_acceleration_covariance1,field.linear_acceleration_covariance2,field.linear_acceleration_covariance3,field.linear_acceleration_covariance4,field.linear_acceleration_covariance5,field.linear_acceleration_covariance6,field.linear_acceleration_covariance7,field.linear_acceleration_covariance8
32436000000,0,32436000000,imu_link,0.000351071812562,-0.369232028657,0.000275163720648,0.929337134762,0.0,0.0,0.0,0.0,0.0,0.0,0.0,0.0,0.0,0.000590052036086,-0.012036266065,0.000121295859235,0.0,0.0,0.0,0.0,0.0,0.0,0.0,0.0,0.0,6.19853799271,-0.00778430418129,7.34236551764,0.0,0.0,0.0,0.0,0.0,0.0,0.0,0.0,0.0
32440000000,1,32440000000,imu_link,0.000352438193653,-0.369255120628,0.000276025310062,0.929327959058,0.0,0.0,0.0,0.0,0.0,0.0,0.0,0.0,0.0,0.000792411177147,-0.0124241318084,0.000153413568153,0.0,0.0,0.0,0.0,0.0,0.0,0.0,0.0,0.0,6.19913165706,-0.00764786232386,7.33919984224,0.0,0.0,0.0,0.0,0.0,0.0,0.0,0.0,0.0
32444000000,2,32444000000,imu_link,0.000353726481486,-0.369279051346,0.000277035063027,0.929318449384,0.0,0.0,0.0,0.0,0.0,0.0,0.0,0.0,0.0,0.00078342222216,-0.0128754902082,0.000236871896238,0.0,0.0,0.0,0.0,0.0,0.0,0.0,0.0,0.0,6.2003134222,-0.00747775884468,7.33696954339,0.0,0.0,0.0,0.0,0.0,0.0,0.0,0.0,0.0
32448000000,3,32448000000,imu_link,0.000354346934775,-0.369303880401,0.000278091290617,0.92930858224,0.0,0.0,0.0,0.0,0.0,0.0,0.0,0.0,0.0,0.000481626581367,-0.0133588136731,0.000381983812284,0.0,0.0,0.0,0.0,0.0,0.0,0.0,0.0,0.0,6.20319153217,-0.00733401948168,7.33815852916,0.0,0.0,0.0,0.0,0.0,0.0,0.0,0.0,0.0
32452000000,4,32452000000,imu_link,0.000354203537976,-0.369329534663,0.000279156896475,0.929298386654,0.0,0.0,0.0,0.0,0.0,0.0,0.0,0.0,0.0,0.000128375525081,-0.0138027887583,0.000527579738323,0.0,0.0,0.0,0.0,0.0,0.0,0.0,0.0,0.0,6.20405893275,-0.00737305004125,7.33353724125,0.0,0.0,0.0,0.0,0.0,0.0,0.0,0.0,0.0
32456000000,5,32456000000,imu_link,0.000353493767007,-0.369355665571,0.000280226972613,0.929288001012,0.0,0.0,0.0,0.0,0.0,0.0,0.0,0.0,0.0,-0.000133997143556,-0.0140592790453,0.000634357146892,0.0,0.0,0.0,0.0,0.0,0.0,0.0,0.0,0.0,6.20465536538,-0.00745201089741,7.32596922387,0.0,0.0,0.0,0.0,0.0,0.0,0.0,0.0,0.0
32460000000,6,32460000000,imu_link,0.000352618047781,-0.369381762801,0.000281344268891,0.929277627954,0.0,0.0,0.0,0.0,0.0,0.0,0.0,0.0,0.0,-0.000202380997262,-0.0140412750841,0.000686936951087,0.0,0.0,0.0,0.0,0.0,0.0,0.0,0.0,0.0,6.20624475115,-0.00754267190344,7.319598545,0.0,0.0,0.0,0.0,0.0,0.0,0.0,0.0,0.0
32464000000,7,32464000000,imu_link,0.000351936779457,-0.369407459386,0.000282564689485,0.929267413206,0.0,0.0,0.0,0.0,0.0,0.0,0.0,0.0,0.0,-9.29569922946e-05,-0.0138258905584,0.000698846295062,0.0,0.0,0.0,0.0,0.0,0.0,0.0,0.0,0.0,6.20807255633,-0.00756367341915,7.3150311431,0.0,0.0,0.0,0.0,0.0,0.0,0.0,0.0,0.0
32468000000,8,32468000000,imu_link,0.000351706209934,-0.369432744825,0.000283925058445,0.929257360875,0.0,0.0,0.0,0.0,0.0,0.0,0.0,0.0,0.0,0.000142331355157,-0.0136048983221,0.000680529978308,0.0,0.0,0.0,0.0,0.0,0.0,0.0,0.0,0.0,6.21000641059,-0.00751857606322,7.3136257234,0.0,0.0,0.0,0.0,0.0,0.0,0.0,0.0,0.0
32472000000,9,32472000000,imu_link,0.00035204988859,-0.369457785464,0.00028541821626,0.929247404816,0.0,0.0,0.0,0.0,0.0,0.0,0.0,0.0,0.0,0.00043368962729,-0.0134734319889,0.000636097732016,0.0,0.0,0.0,0.0,0.0,0.0,0.0,0.0,0.0,6.21172600689,-0.00740717991127,7.31276619996,0.0,0.0,0.0,0.0,0.0,0.0,0.0,0.0,0.0
32476000000,10,32476000000,imu_link,0.000353119786526,-0.369482607959,0.000287059070336,0.92923753439,0.0,0.0,0.0,0.0,0.0,0.0,0.0,0.0,0.0,0.00079840814208,-0.0133563366892,0.000570516613014,0.0,0.0,0.0,0.0,0.0,0.0,0.0,0.0,0.0,6.21296799795,-0.00733925735995,7.30985723494,0.0,0.0,0.0,0.0,0.0,0.0,0.0,0.0,0.0
32480000000,11,32480000000,imu_link,0.000354964157437,-0.369507127313,0.00028886060169,0.92922778339,0.0,0.0,0.0,0.0,0.0,0.0,0.0,0.0,0.0,0.00118794897483,-0.0131935110973,0.000502022480911,0.0,0.0,0.0,0.0,0.0,0.0,0.0,0.0,0.0,6.21475202011,-0.00723491563795,7.3072953842,0.0,0.0,0.0,0.0,0.0,0.0,0.0,0.0,0.0
32484000000,12,32484000000,imu_link,0.00035751330752,-0.369531200347,0.000290817677031,0.929218208808,0.0,0.0,0.0,0.0,0.0,0.0,0.0,0.0,0.0,0.00154416962601,-0.0129536246995,0.000443975220474,0.0,0.0,0.0,0.0,0.0,0.0,0.0,0.0,0.0,6.21656935629,-0.00705425216668,7.30469027697,0.0,0.0,0.0,0.0,0.0,0.0,0.0,0.0,0.0
32488000000,13,32488000000,imu_link,0.000360579373665,-0.369554802863,0.000292888200786,0.929208820384,0.0,0.0,0.0,0.0,0.0,0.0,0.0,0.0,0.0,0.00180533003905,-0.0127006774204,0.000401064902598,0.0,0.0,0.0,0.0,0.0,0.0,0.0,0.0,0.0,6.21889865621,-0.00686846404681,7.30421996689,0.0,0.0,0.0,0.0,0.0,0.0,0.0,0.0,0.0
32492000000,14,32492000000,imu_link,0.000363968426798,-0.369577979299,0.000295040043773,0.929199600568,0.0,0.0,0.0,0.0,0.0,0.0,0.0,0.0,0.0,0.00197044917375,-0.0124715965645,0.000379063970791,0.0,0.0,0.0,0.0,0.0,0.0,0.0,0.0,0.0,6.21990360121,-0.00671633351003,7.30157836472,0.0,0.0,0.0,0.0,0.0,0.0,0.0,0.0,0.0
32496000000,15,32496000000,imu_link,0.000367504539312,-0.3696010273,0.000297307541385,0.929190431057,0.0,0.0,0.0,0.0,0.0,0.0,0.0,0.0,0.0,0.00206015442568,-0.012402630125,0.000405591337811,0.0,0.0,0.0,0.0,0.0,0.0,0.0,0.0,0.0,6.2215573104,-0.00661700855481,7.30245815901,0.0,0.0,0.0,0.0,0.0,0.0,0.0,0.0,0.0
32500000000,16,32500000000,imu_link,0.000370919662157,-0.36962431421,0.000299683410695,0.929181165841,0.0,0.0,0.0,0.0,0.0,0.0,0.0,0.0,0.0,0.00202395242142,-0.0125312751008,0.000478357390465,0.0,0.0,0.0,0.0,0.0,0.0,0.0,0.0,0.0,6.22327962291,-0.00655156105091,7.3031836359,0.0,0.0,0.0,0.0,0.0,0.0,0.0,0.0,0.0
32504000000,17,32504000000,imu_link,0.00037396703692,-0.369648253975,0.00030212645997,0.929171640334,0.0,0.0,0.0,0.0,0.0,0.0,0.0,0.0,0.0,0.00186546624813,-0.0128826223494,0.000577692966269,0.0,0.0,0.0,0.0,0.0,0.0,0.0,0.0,0.0,6.22559807505,-0.00652628694009,7.30576519288,0.0,0.0,0.0,0.0,0.0,0.0,0.0,0.0,0.0
32508000000,18,32508000000,imu_link,0.000376528691602,-0.369673038824,0.000304581174156,0.929161778068,0.0,0.0,0.0,0.0,0.0,0.0,0.0,0.0,0.0,0.00164189885,-0.0133374020737,0.000673093997555,0.0,0.0,0.0,0.0,0.0,0.0,0.0,0.0,0.0,6.22734323278,-0.00654152641523,7.30522922702,0.0,0.0,0.0,0.0,0.0,0.0,0.0,0.0,0.0
32512000000,19,32512000000,imu_link,0.000378547460926,-0.369698564902,0.00030701881024,0.929151620324,0.0,0.0,0.0,0.0,0.0,0.0,0.0,0.0,0.0,0.00138647077709,-0.0137362982571,0.000765689423097,0.0,0.0,0.0,0.0,0.0,0.0,0.0,0.0,0.0,6.22875055618,-0.00657341044339,7.30166052348,0.0,0.0,0.0,0.0,0.0,0.0,0.0,0.0,0.0
32516000000,20,32516000000,imu_link,0.000379784297821,-0.369724703675,0.000309424288863,0.929141218283,0.0,0.0,0.0,0.0,0.0,0.0,0.0,0.0,0.0,0.00101721178591,-0.0140659860554,0.00089544296174,0.0,0.0,0.0,0.0,0.0,0.0,0.0,0.0,0.0,6.22961025543,-0.0065742291165,7.29673486424,0.0,0.0,0.0,0.0,0.0,0.0,0.0,0.0,0.0
32520000000,21,32520000000,imu_link,0.000379920122401,-0.369751228475,0.000311798467712,0.929130662223,0.0,0.0,0.0,0.0,0.0,0.0,0.0,0.0,0.0,0.000499897198182,-0.0142736308452,0.00108453486559,0.0,0.0,0.0,0.0,0.0,0.0,0.0,0.0,0.0,6.23119796716,-0.00663135637824,7.29260226733,0.0,0.0,0.0,0.0,0.0,0.0,0.0,0.0,0.0
32524000000,22,32524000000,imu_link,0.000378873381383,-0.369777861627,0.000314180836728,0.929120062638,0.0,0.0,0.0,0.0,0.0,0.0,0.0,0.0,0.0,-4.79762427679e-05,-0.0143318283992,0.00130699464212,0.0,0.0,0.0,0.0,0.0,0.0,0.0,0.0,0.0,6.23462907734,-0.00676889664316,7.29227560143,0.0,0.0,0.0,0.0,0.0,0.0,0.0,0.0,0.0
32528000000,23,32528000000,imu_link,0.000376737486358,-0.369804581407,0.000316587986118,0.929109428114,0.0,0.0,0.0,0.0,0.0,0.0,0.0,0.0,0.0,-0.000549379035593,-0.014378355905,0.00151990103297,0.0,0.0,0.0,0.0,0.0,0.0,0.0,0.0,0.0,6.23590167751,-0.00695163084149,7.28962278672,0.0,0.0,0.0,0.0,0.0,0.0,0.0,0.0,0.0
32532000000,24,32532000000,imu_link,0.000373807584061,-0.369831607916,0.000318981314301,0.92909867092,0.0,0.0,0.0,0.0,0.0,0.0,0.0,0.0,0.0,-0.00092081987536,-0.0145434070943,0.0016603712852,0.0,0.0,0.0,0.0,0.0,0.0,0.0,0.0,0.0,6.23863549491,-0.00713295507887,7.29223480696,0.0,0.0,0.0,0.0,0.0,0.0,0.0,0.0,0.0
32536000000,25,32536000000,imu_link,0.000370527819467,-0.369859125579,0.000321409404488,0.929087717404,0.0,0.0,0.0,0.0,0.0,0.0,0.0,0.0,0.0,-0.00107696177052,-0.0148078137118,0.0017413381292,0.0,0.0,0.0,0.0,0.0,0.0,0.0,0.0,0.0,6.23952225569,-0.00727445899102,7.29054959663,0.0,0.0,0.0,0.0,0.0,0.0,0.0,0.0,0.0
32540000000,26,32540000000,imu_link,0.000367491339555,-0.369887359474,0.00032399589506,0.929076477626,0.0,0.0,0.0,0.0,0.0,0.0,0.0,0.0,0.0,-0.000934714519714,-0.0151934826839,0.00177011022134,0.0,0.0,0.0,0.0,0.0,0.0,0.0,0.0,0.0,6.24229983342,-0.00737671104035,7.29296778187,0.0,0.0,0.0,0.0,0.0,0.0,0.0,0.0,0.0
32544000000,27,32544000000,imu_link,0.000365147915001,-0.36991649634,0.00032683403437,0.92906487695,0.0,0.0,0.0,0.0,0.0,0.0,0.0,0.0,0.0,-0.000566302926145,-0.0156797585264,0.00175905885608,0.0,0.0,0.0,0.0,0.0,0.0,0.0,0.0,0.0,6.24423623391,-0.00738412341544,7.29291419654,0.0,0.0,0.0,0.0,0.0,0.0,0.0,0.0,0.0
32548000000,28,32548000000,imu_link,0.000363645855194,-0.369946451012,0.000329921377881,0.929052949135,0.0,0.0,0.0,0.0,0.0,0.0,0.0,0.0,0.0,-0.000129443252375,-0.0161202557401,0.00171940771212,0.0,0.0,0.0,0.0,0.0,0.0,0.0,0.0,0.0,6.24600226723,-0.0072564107345,7.29021210112,0.0,0.0,0.0,0.0,0.0,0.0,0.0,0.0,0.0
32552000000,29,32552000000,imu_link,0.000362960525565,-0.369976904229,0.00033321086577,0.92904082126,0.0,0.0,0.0,0.0,0.0,0.0,0.0,0.0,0.0,0.000287294970705,-0.0163889466659,0.00166235956069,0.0,0.0,0.0,0.0,0.0,0.0,0.0,0.0,0.0,6.24843790277,-0.00709168809087,7.28711779941,0.0,0.0,0.0,0.0,0.0,0.0,0.0,0.0,0.0
32556000000,30,32556000000,imu_link,0.000362878515344,-0.370007420597,0.000336623668857,0.929028666784,0.0,0.0,0.0,0.0,0.0,0.0,0.0,0.0,0.0,0.000590355344008,-0.0164232805295,0.00160805075631,0.0,0.0,0.0,0.0,0.0,0.0,0.0,0.0,0.0,6.25001548282,-0.00690379232912,7.28139368904,0.0,0.0,0.0,0.0,0.0,0.0,0.0,0.0,0.0
32560000000,31,32560000000,imu_link,0.000363246759687,-0.370037743543,0.000340107935991,0.929016587974,0.0,0.0,0.0,0.0,0.0,0.0,0.0,0.0,0.0,0.000812744983248,-0.0163194974587,0.00155790023596,0.0,0.0,0.0,0.0,0.0,0.0,0.0,0.0,0.0,6.2513736569,-0.00676448254312,7.27694879231,0.0,0.0,0.0,0.0,0.0,0.0,0.0,0.0,0.0
32564000000,32,32564000000,imu_link,0.000363873624481,-0.370068012128,0.000343611391352,0.929004529551,0.0,0.0,0.0,0.0,0.0,0.0,0.0,0.0,0.0,0.000936432053254,-0.0162905148984,0.00151895032192,0.0,0.0,0.0,0.0,0.0,0.0,0.0,0.0,0.0,6.2525492834,-0.006653647953,7.27531959376,0.0,0.0,0.0,0.0,0.0,0.0,0.0,0.0,0.0
32568000000,33,32568000000,imu_link,0.000364651795385,-0.370098330996,0.000347110287918,0.928992449882,0.0,0.0,0.0,0.0,0.0,0.0,0.0,0.0,0.0,0.00100586577839,-0.0163178293748,0.00148884877418,0.0,0.0,0.0,0.0,0.0,0.0,0.0,0.0,0.0,6.25435269872,-0.00661934310351,7.27494684812,0.0,0.0,0.0,0.0,0.0,0.0,0.0,0.0,0.0
32572000000,34,32572000000,imu_link,0.000365241256047,-0.370128853563,0.000350552236322,0.928980287989,0.0,0.0,0.0,0.0,0.0,0.0,0.0,0.0,0.0,0.000907652012021,-0.016427640301,0.00149736865097,0.0,0.0,0.0,0.0,0.0,0.0,0.0,0.0,0.0,6.25731839006,-0.00657645352293,7.27770815811,0.0,0.0,0.0,0.0,0.0,0.0,0.0,0.0,0.0
32576000000,35,32576000000,imu_link,0.000365093522099,-0.370159643297,0.000353876334836,0.9289680188,0.0,0.0,0.0,0.0,0.0,0.0,0.0,0.0,0.0,0.000543395325544,-0.0165714853089,0.00157912463315,0.0,0.0,0.0,0.0,0.0,0.0,0.0,0.0,0.0,6.25928618513,-0.00649655047055,7.27782179259,0.0,0.0,0.0,0.0,0.0,0.0,0.0,0.0,0.0
32580000000,36,32580000000,imu_link,0.000363811956145,-0.370190585632,0.000357055308194,0.928955688105,0.0,0.0,0.0,0.0,0.0,0.0,0.0,0.0,0.0,-1.01270218769e-05,-0.0166535754865,0.00172160448388,0.0,0.0,0.0,0.0,0.0,0.0,0.0,0.0,0.0,6.26085454814,-0.00651335680303,7.27581639113,0.0,0.0,0.0,0.0,0.0,0.0,0.0,0.0,0.0
32584000000,37,32584000000,imu_link,0.000361369369958,-0.370221635265,0.000360084087976,0.92894331395,0.0,0.0,0.0,0.0,0.0,0.0,0.0,0.0,0.0,-0.000577206571387,-0.0167112774382,0.00186676955241,0.0,0.0,0.0,0.0,0.0,0.0,0.0,0.0,0.0,6.26173698085,-0.00664104356263,7.27307462051,0.0,0.0,0.0,0.0,0.0,0.0,0.0,0.0,0.0
32588000000,38,32588000000,imu_link,0.000358244242746,-0.370252613903,0.00036299672344,0.928930967183,0.0,0.0,0.0,0.0,0.0,0.0,0.0,0.0,0.0,-0.00091571926813,-0.0166731305304,0.00193915177692,0.0,0.0,0.0,0.0,0.0,0.0,0.0,0.0,0.0,6.26322053109,-0.0068610054148,7.27047401888,0.0,0.0,0.0,0.0,0.0,0.0,0.0,0.0,0.0
32592000000,39,32592000000,imu_link,0.000354993847807,-0.370283337653,0.000365826369047,0.928918720883,0.0,0.0,0.0,0.0,0.0,0.0,0.0,0.0,0.0,-0.000989237143558,-0.0165361369768,0.00192373231472,0.0,0.0,0.0,0.0,0.0,0.0,0.0,0.0,0.0,6.2653452533,-0.00701782796396,7.26853465782,0.0,0.0,0.0,0.0,0.0,0.0,0.0,0.0,0.0
32596000000,40,32596000000,imu_link,0.000352102219686,-0.370313521469,0.000368607859951,0.928906688516,0.0,0.0,0.0,0.0,0.0,0.0,0.0,0.0,0.0,-0.0008314591902,-0.0162458256877,0.00183480875632,0.0,0.0,0.0,0.0,0.0,0.0,0.0,0.0,0.0,6.26764367773,-0.00709897793646,7.26607546796,0.0,0.0,0.0,0.0,0.0,0.0,0.0,0.0,0.0
32600000000,41,32600000000,imu_link,0.000349801088139,-0.370342893434,0.000371381168693,0.928894978455,0.0,0.0,0.0,0.0,0.0,0.0,0.0,0.0,0.0,-0.000558623179078,-0.0158091920627,0.00172147176113,0.0,0.0,0.0,0.0,0.0,0.0,0.0,0.0,0.0,6.26879243967,-0.0070504866819,7.26122444312,0.0,0.0,0.0,0.0,0.0,0.0,0.0,0.0,0.0
32604000000,42,32604000000,imu_link,0.000348061275541,-0.370371354931,0.00037420223135,0.928883630103,0.0,0.0,0.0,0.0,0.0,0.0,0.0,0.0,0.0,-0.000288971538388,-0.0153194450462,0.001639484298,0.0,0.0,0.0,0.0,0.0,0.0,0.0,0.0,0.0,6.2703972428,-0.00693080870617,7.25882104755,0.0,0.0,0.0,0.0,0.0,0.0,0.0,0.0,0.0
32608000000,43,32608000000,imu_link,0.00034684342979,-0.370399163452,0.000377111165249,0.92887254088,0.0,0.0,0.0,0.0,0.0,0.0,0.0,0.0,0.0,-3.01987372267e-05,-0.0149682709601,0.00158347247157,0.0,0.0,0.0,0.0,0.0,0.0,0.0,0.0,0.0,6.27253737869,-0.00681383899972,7.26022193404,0.0,0.0,0.0,0.0,0.0,0.0,0.0,0.0,0.0
32612000000,44,32612000000,imu_link,0.000346256705594,-0.370426797264,0.0003801390563,0.928861520071,0.0,0.0,0.0,0.0,0.0,0.0,0.0,0.0,0.0,0.000284968896737,-0.0148745583799,0.00152179384174,0.0,0.0,0.0,0.0,0.0,0.0,0.0,0.0,0.0,6.27517340674,-0.00676021223031,7.26424205074,0.0,0.0,0.0,0.0,0.0,0.0,0.0,0.0,0.0
32616000000,45,32616000000,imu_link,0.000346298183352,-0.370454406967,0.000383279096537,0.928850507635,0.0,0.0,0.0,0.0,0.0,0.0,0.0,0.0,0.0,0.000597499872871,-0.0148619105016,0.00145752218908,0.0,0.0,0.0,0.0,0.0,0.0,0.0,0.0,0.0,6.27716572508,-0.00664224976556,7.26472764422,0.0,0.0,0.0,0.0,0.0,0.0,0.0,0.0,0.0
32620000000,46,32620000000,imu_link,0.000346969040258,-0.370481884692,0.000386528703489,0.928839546597,0.0,0.0,0.0,0.0,0.0,0.0,0.0,0.0,0.0,0.000910110572425,-0.014791197484,0.00139179689663,0.0,0.0,0.0,0.0,0.0,0.0,0.0,0.0,0.0,6.27860527078,-0.00651327750363,7.26215437641,0.0,0.0,0.0,0.0,0.0,0.0,0.0,0.0,0.0
32624000000,47,32624000000,imu_link,0.000348165749428,-0.370509092483,0.000389867770983,0.928828692048,0.0,0.0,0.0,0.0,0.0,0.0,0.0,0.0,0.0,0.00117093221126,-0.0146461949351,0.00133586736269,0.0,0.0,0.0,0.0,0.0,0.0,0.0,0.0,0.0,6.27915956733,-0.00639355239127,7.25763759679,0.0,0.0,0.0,0.0,0.0,0.0,0.0,0.0,0.0
32628000000,48,32628000000,imu_link,0.000349700790714,-0.370536080201,0.000393246496147,0.928817924211,0.0,0.0,0.0,0.0,0.0,0.0,0.0,0.0,0.0,0.00133543306794,-0.0145279852449,0.00129155217724,0.0,0.0,0.0,0.0,0.0,0.0,0.0,0.0,0.0,6.27964585837,-0.00628403343745,7.25474109814,0.0,0.0,0.0,0.0,0.0,0.0,0.0,0.0,0.0
32632000000,49,32632000000,imu_link,0.000351234570196,-0.37056298497,0.000396591776131,0.928807188559,0.0,0.0,0.0,0.0,0.0,0.0,0.0,0.0,0.0,0.00132866143411,-0.0144835055883,0.00127623287528,0.0,0.0,0.0,0.0,0.0,0.0,0.0,0.0,0.0,6.28139077412,-0.00617887651677,7.25550155708,0.0,0.0,0.0,0.0,0.0,0.0,0.0,0.0,0.0
32636000000,50,32636000000,imu_link,0.000352441229091,-0.37058988691,0.000399845413366,0.928796453282,0.0,0.0,0.0,0.0,0.0,0.0,0.0,0.0,0.0,0.00115976624724,-0.0144820739825,0.00129428247309,0.0,0.0,0.0,0.0,0.0,0.0,0.0,0.0,0.0,6.28288217232,-0.00612481805052,7.2543974,0.0,0.0,0.0,0.0,0.0,0.0,0.0,0.0,0.0
32640000000,51,32640000000,imu_link,0.000353306150969,-0.370616673741,0.000402996776918,0.928785763195,0.0,0.0,0.0,0.0,0.0,0.0,0.0,0.0,0.0,0.000982128436045,-0.0144201934131,0.0013100795783,0.0,0.0,0.0,0.0,0.0,0.0,0.0,0.0,0.0,6.28432906187,-0.00615406601778,7.25159714954,0.0,0.0,0.0,0.0,0.0,0.0,0.0,0.0,0.0
32644000000,52,32644000000,imu_link,0.000354224154364,-0.370643099821,0.000406061405472,0.928775216182,0.0,0.0,0.0,0.0,0.0,0.0,0.0,0.0,0.0,0.000990753812751,-0.01422617625,0.00125987145744,0.0,0.0,0.0,0.0,0.0,0.0,0.0,0.0,0.0,6.28689203942,-0.00625189695687,7.25026593823,0.0,0.0,0.0,0.0,0.0,0.0,0.0,0.0,0.0
32648000000,53,32648000000,imu_link,0.000355627672469,-0.370669019303,0.000409103187477,0.928764870294,0.0,0.0,0.0,0.0,0.0,0.0,0.0,0.0,0.0,0.00121205410276,-0.0139537484666,0.00115915490594,0.0,0.0,0.0,0.0,0.0,0.0,0.0,0.0,0.0,6.28882698925,-0.00629715450371,7.24844027819,0.0,0.0,0.0,0.0,0.0,0.0,0.0,0.0,0.0
32652000000,54,32652000000,imu_link,0.000357799599097,-0.370694432624,0.000412157582205,0.928754725279,0.0,0.0,0.0,0.0,0.0,0.0,0.0,0.0,0.0,0.00157129491485,-0.0136816226814,0.00102246832463,0.0,0.0,0.0,0.0,0.0,0.0,0.0,0.0,0.0,6.29027879479,-0.00625646046119,7.24686506779,0.0,0.0,0.0,0.0,0.0,0.0,0.0,0.0,0.0
32656000000,55,32656000000,imu_link,0.00036079844726,-0.370719580859,0.00041522855844,0.928744684925,0.0,0.0,0.0,0.0,0.0,0.0,0.0,0.0,0.0,0.00195840779733,-0.0135392912288,0.000876831803697,0.0,0.0,0.0,0.0,0.0,0.0,0.0,0.0,0.0,6.2902129697,-0.00614614778734,7.24372734709,0.0,0.0,0.0,0.0,0.0,0.0,0.0,0.0,0.0
32660000000,56,32660000000,imu_link,0.000364441998212,-0.370744722092,0.000418275568417,0.928734646317,0.0,0.0,0.0,0.0,0.0,0.0,0.0,0.0,0.0,0.00225334870047,-0.0135358541612,0.000746198937365,0.0,0.0,0.0,0.0,0.0,0.0,0.0,0.0,0.0,6.29103921728,-0.00599636401748,7.2426645297,0.0,0.0,0.0,0.0,0.0,0.0,0.0,0.0,0.0
32664000000,57,32664000000,imu_link,0.000368346449128,-0.37077015784,0.000421234516221,0.928724489253,0.0,0.0,0.0,0.0,0.0,0.0,0.0,0.0,0.0,0.00235813781629,-0.0136946467057,0.000657020540079,0.0,0.0,0.0,0.0,0.0,0.0,0.0,0.0,0.0,6.29297771214,-0.00587443658347,7.24438432356,0.0,0.0,0.0,0.0,0.0,0.0,0.0,0.0,0.0
32668000000,58,32668000000,imu_link,0.000372402265712,-0.370795844181,0.000424111911987,0.928714231281,0.0,0.0,0.0,0.0,0.0,0.0,0.0,0.0,0.0,0.00241327359174,-0.0138297664094,0.000591157321403,0.0,0.0,0.0,0.0,0.0,0.0,0.0,0.0,0.0,6.29461688968,-0.00582897087675,7.24285930836,0.0,0.0,0.0,0.0,0.0,0.0,0.0,0.0,0.0
32672000000,59,32672000000,imu_link,0.000376779387434,-0.370821570009,0.000426941004169,0.928703956584,0.0,0.0,0.0,0.0,0.0,0.0,0.0,0.0,0.0,0.00255351327594,-0.0138512798996,0.000509168802315,0.0,0.0,0.0,0.0,0.0,0.0,0.0,0.0,0.0,6.29705437426,-0.00583719136006,7.24167690867,0.0,0.0,0.0,0.0,0.0,0.0,0.0,0.0,0.0
32676000000,60,32676000000,imu_link,0.000381853277203,-0.370847056707,0.000429751967743,0.928693776243,0.0,0.0,0.0,0.0,0.0,0.0,0.0,0.0,0.0,0.00287373092874,-0.0137228970776,0.000371497245532,0.0,0.0,0.0,0.0,0.0,0.0,0.0,0.0,0.0,6.29820833616,-0.00584321848757,7.23757118197,0.0,0.0,0.0,0.0,0.0,0.0,0.0,0.0,0.0
32680000000,61,32680000000,imu_link,0.000387927247282,-0.370872264931,0.000432574505882,0.928683705842,0.0,0.0,0.0,0.0,0.0,0.0,0.0,0.0,0.0,0.00334030015256,-0.0135734161691,0.000191356646998,0.0,0.0,0.0,0.0,0.0,0.0,0.0,0.0,0.0,6.29923736479,-0.00578994377412,7.23509011428,0.0,0.0,0.0,0.0,0.0,0.0,0.0,0.0,0.0
32684000000,62,32684000000,imu_link,0.000395078160197,-0.37089713962,0.000435430366612,0.928673767335,0.0,0.0,0.0,0.0,0.0,0.0,0.0,0.0,0.0,0.00384659555432,-0.0133943102387,7.03238580568e-06,0.0,0.0,0.0,0.0,0.0,0.0,0.0,0.0,0.0,6.30029951931,-0.00566979176426,7.23207555796,0.0,0.0,0.0,0.0,0.0,0.0,0.0,0.0,0.0
32688000000,63,32688000000,imu_link,0.000403292005928,-0.370921736083,0.000438363118406,0.928663938621,0.0,0.0,0.0,0.0,0.0,0.0,0.0,0.0,0.0,0.00435445268884,-0.0132449749499,-0.000154462491754,0.0,0.0,0.0,0.0,0.0,0.0,0.0,0.0,0.0,6.30238224218,-0.00554479964816,7.2321738595,0.0,0.0,0.0,0.0,0.0,0.0,0.0,0.0,0.0
32692000000,64,32692000000,imu_link,0.000412624413644,-0.370945994299,0.000441381162738,0.928654243643,0.0,0.0,0.0,0.0,0.0,0.0,0.0,0.0,0.0,0.00488970237606,-0.0130633411575,-0.000322405435612,0.0,0.0,0.0,0.0,0.0,0.0,0.0,0.0,0.0,6.30349578794,-0.00542478531039,7.22939656606,0.0,0.0,0.0,0.0,0.0,0.0,0.0,0.0,0.0
32696000000,65,32696000000,imu_link,0.000422978942472,-0.370969859956,0.000444490568463,0.928644704137,0.0,0.0,0.0,0.0,0.0,0.0,0.0,0.0,0.0,0.0053813005612,-0.012852436196,-0.000469675029251,0.0,0.0,0.0,0.0,0.0,0.0,0.0,0.0,0.0,6.30486156542,-0.00526399726631,7.22728355478,0.0,0.0,0.0,0.0,0.0,0.0,0.0,0.0,0.0
32700000000,66,32700000000,imu_link,0.000434201299607,-0.370993438369,0.000447668902246,0.928635278109,0.0,0.0,0.0,0.0,0.0,0.0,0.0,0.0,0.0,0.00579707759636,-0.0126981922853,-0.000598725233448,0.0,0.0,0.0,0.0,0.0,0.0,0.0,0.0,0.0,6.30649175472,-0.00509864387857,7.22680656634,0.0,0.0,0.0,0.0,0.0,0.0,0.0,0.0,0.0
32704000000,67,32704000000,imu_link,0.000445814990213,-0.371016787223,0.000450833488839,0.928625942776,0.0,0.0,0.0,0.0,0.0,0.0,0.0,0.0,0.0,0.00597626226482,-0.0125748709177,-0.000677769509693,0.0,0.0,0.0,0.0,0.0,0.0,0.0,0.0,0.0,6.30922959949,-0.00496811611613,7.22842032454,0.0,0.0,0.0,0.0,0.0,0.0,0.0,0.0,0.0
32708000000,68,32708000000,imu_link,0.000457372933039,-0.371040041666,0.000453893569652,0.928616644408,0.0,0.0,0.0,0.0,0.0,0.0,0.0,0.0,0.0,0.00593100419014,-0.0125241878617,-0.000715980594883,0.0,0.0,0.0,0.0,0.0,0.0,0.0,0.0,0.0,6.3119276548,-0.00491892485627,7.23087804314,0.0,0.0,0.0,0.0,0.0,0.0,0.0,0.0,0.0
32712000000,69,32712000000,imu_link,0.000468448324904,-0.37106366232,0.000456812327007,0.928607199188,0.0,0.0,0.0,0.0,0.0,0.0,0.0,0.0,0.0,0.00568068390447,-0.0127213894843,-0.000691958313548,0.0,0.0,0.0,0.0,0.0,0.0,0.0,0.0,0.0,6.31568680789,-0.0049412151408,7.2380505984,0.0,0.0,0.0,0.0,0.0,0.0,0.0,0.0,0.0
32716000000,70,32716000000,imu_link,0.000479063806156,-0.371088045634,0.000459632800604,0.928597448641,0.0,0.0,0.0,0.0,0.0,0.0,0.0,0.0,0.0,0.00544880830452,-0.0131320617769,-0.000652015384985,0.0,0.0,0.0,0.0,0.0,0.0,0.0,0.0,0.0,6.31775253633,-0.00507042468012,7.24115260798,0.0,0.0,0.0,0.0,0.0,0.0,0.0,0.0,0.0
32720000000,71,32720000000,imu_link,0.000489453147829,-0.371113361718,0.000462417616608,0.928587324574,0.0,0.0,0.0,0.0,0.0,0.0,0.0,0.0,0.0,0.00533707103738,-0.0136344060924,-0.000626303044005,0.0,0.0,0.0,0.0,0.0,0.0,0.0,0.0,0.0,6.31934488291,-0.00521559342329,7.24149840673,0.0,0.0,0.0,0.0,0.0,0.0,0.0,0.0,0.0
32724000000,72,32724000000,imu_link,0.0004997666867,-0.371139372136,0.000465176413685,0.92857692212,0.0,0.0,0.0,0.0,0.0,0.0,0.0,0.0,0.0,0.00529695588403,-0.0140084263333,-0.000624083463787,0.0,0.0,0.0,0.0,0.0,0.0,0.0,0.0,0.0,6.32041132654,-0.00529222987783,7.23724282483,0.0,0.0,0.0,0.0,0.0,0.0,0.0,0.0,0.0
32732000000,73,32732000000,imu_link,0.000519455963357,-0.371192488244,0.000470562428901,0.928555677064,0.0,0.0,0.0,0.0,0.0,0.0,0.0,0.0,0.0,0.00493956097156,-0.0143846338524,-0.000531999656261,0.0,0.0,0.0,0.0,0.0,0.0,0.0,0.0,0.0,6.32340641334,-0.00521931177256,7.23281987917,0.0,0.0,0.0,0.0,0.0,0.0,0.0,0.0,0.0
32736000000,74,32736000000,imu_link,0.000528261927244,-0.371219505674,0.000473152042996,0.928544870038,0.0,0.0,0.0,0.0,0.0,0.0,0.0,0.0,0.0,0.00456548672501,-0.0145507367982,-0.000422493515859,0.0,0.0,0.0,0.0,0.0,0.0,0.0,0.0,0.0,6.32541443881,-0.00531751927996,7.23049088923,0.0,0.0,0.0,0.0,0.0,0.0,0.0,0.0,0.0
32740000000,75,32740000000,imu_link,0.000536106776258,-0.371247000428,0.000475621143183,0.928533871782,0.0,0.0,0.0,0.0,0.0,0.0,0.0,0.0,0.0,0.00409683661161,-0.0148076436479,-0.000299881191231,0.0,0.0,0.0,0.0,0.0,0.0,0.0,0.0,0.0,6.326157583,-0.00537643652889,7.22871905038,0.0,0.0,0.0,0.0,0.0,0.0,0.0,0.0,0.0
32744000000,76,32744000000,imu_link,0.000542856257216,-0.37127518867,0.000477899390055,0.928522595954,0.0,0.0,0.0,0.0,0.0,0.0,0.0,0.0,0.0,0.00355277606569,-0.0151809214076,-0.000184910120852,0.0,0.0,0.0,0.0,0.0,0.0,0.0,0.0,0.0,6.32799779605,-0.00546482412025,7.22954982422,0.0,0.0,0.0,0.0,0.0,0.0,0.0,0.0,0.0
32748000000,77,32748000000,imu_link,0.000548554595289,-0.371303911879,0.000479945106023,0.928511105892,0.0,0.0,0.0,0.0,0.0,0.0,0.0,0.0,0.0,0.00302153494704,-0.0154688683837,-9.75371870203e-05,0.0,0.0,0.0,0.0,0.0,0.0,0.0,0.0,0.0,6.33104779251,-0.00562980165966,7.22978322619,0.0,0.0,0.0,0.0,0.0,0.0,0.0,0.0,0.0
32752000000,78,32752000000,imu_link,0.000553409661603,-0.371332704555,0.000481755889089,0.928499587602,0.0,0.0,0.0,0.0,0.0,0.0,0.0,0.0,0.0,0.00258641666879,-0.0155062213731,-5.00252129357e-05,0.0,0.0,0.0,0.0,0.0,0.0,0.0,0.0,0.0,6.33334268778,-0.00585972552695,7.22615782718,0.0,0.0,0.0,0.0,0.0,0.0,0.0,0.0,0.0
32756000000,79,32756000000,imu_link,0.000557923646445,-0.371361064579,0.000483388100665,0.928488241591,0.0,0.0,0.0,0.0,0.0,0.0,0.0,0.0,0.0,0.00239497149424,-0.015273343383,-6.97608530794e-05,0.0,0.0,0.0,0.0,0.0,0.0,0.0,0.0,0.0,6.33588877412,-0.00614253880285,7.22317128803,0.0,0.0,0.0,0.0,0.0,0.0,0.0,0.0,0.0
32760000000,80,32760000000,imu_link,0.000562513755294,-0.371388889247,0.000484895109198,0.92847710871,0.0,0.0,0.0,0.0,0.0,0.0,0.0,0.0,0.0,0.00240713378675,-0.0149852865026,-0.000142221232144,0.0,0.0,0.0,0.0,0.0,0.0,0.0,0.0,0.0,6.33673951146,-0.0062766363782,7.2204445398,0.0,0.0,0.0,0.0,0.0,0.0,0.0,0.0,0.0
32764000000,81,32764000000,imu_link,0.000567469625143,-0.371416451939,0.000486309604722,0.928466079461,0.0,0.0,0.0,0.0,0.0,0.0,0.0,0.0,0.0,0.00255978936099,-0.0148445384626,-0.000253187930554,0.0,0.0,0.0,0.0,0.0,0.0,0.0,0.0,0.0,6.33773744223,-0.00629447126525,7.22126253401,0.0,0.0,0.0,0.0,0.0,0.0,0.0,0.0,0.0
32768000000,82,32768000000,imu_link,0.000572589063091,-0.371444151503,0.000487585061273,0.928454994449,0.0,0.0,0.0,0.0,0.0,0.0,0.0,0.0,0.0,0.00260988493663,-0.0149185138063,-0.000348057963328,0.0,0.0,0.0,0.0,0.0,0.0,0.0,0.0,0.0,6.34068482236,-0.00617009069956,7.22713644953,0.0,0.0,0.0,0.0,0.0,0.0,0.0,0.0,0.0
32772000000,83,32772000000,imu_link,0.000577497505349,-0.371471972592,0.00048869612693,0.928443860043,0.0,0.0,0.0,0.0,0.0,0.0,0.0,0.0,0.0,0.00248138843208,-0.014984098039,-0.000385139344957,0.0,0.0,0.0,0.0,0.0,0.0,0.0,0.0,0.0,6.34284635926,-0.006040449062,7.22748447619,0.0,0.0,0.0,0.0,0.0,0.0,0.0,0.0,0.0
32776000000,84,32776000000,imu_link,0.000582057941779,-0.371499529253,0.000489676827454,0.928432830737,0.0,0.0,0.0,0.0,0.0,0.0,0.0,0.0,0.0,0.00229565726277,-0.0148417762556,-0.00038112252752,0.0,0.0,0.0,0.0,0.0,0.0,0.0,0.0,0.0,6.34432036316,-0.00601315817435,7.22302550052,0.0,0.0,0.0,0.0,0.0,0.0,0.0,0.0,0.0
32780000000,85,32780000000,imu_link,0.000586622643523,-0.371526252983,0.000490607405848,0.928422133796,0.0,0.0,0.0,0.0,0.0,0.0,0.0,0.0,0.0,0.00228843432345,-0.0143933954242,-0.000405506106826,0.0,0.0,0.0,0.0,0.0,0.0,0.0,0.0,0.0,6.34617425657,-0.00607410466439,7.21803117156,0.0,0.0,0.0,0.0,0.0,0.0,0.0,0.0,0.0
32784000000,86,32784000000,imu_link,0.000591626924059,-0.371551904618,0.000491547532421,0.928411864709,0.0,0.0,0.0,0.0,0.0,0.0,0.0,0.0,0.0,0.00249440285761,-0.0138163423779,-0.000483150679035,0.0,0.0,0.0,0.0,0.0,0.0,0.0,0.0,0.0,6.34759672143,-0.00609106752046,7.21515772541,0.0,0.0,0.0,0.0,0.0,0.0,0.0,0.0,0.0
32788000000,87,32788000000,imu_link,0.0005972767315,-0.371576501197,0.000492552901549,0.928402016591,0.0,0.0,0.0,0.0,0.0,0.0,0.0,0.0,0.0,0.00280631555087,-0.0132485126807,-0.000573203635952,0.0,0.0,0.0,0.0,0.0,0.0,0.0,0.0,0.0,6.34933497567,-0.0059993072529,7.2147441202,0.0,0.0,0.0,0.0,0.0,0.0,0.0,0.0,0.0
32792000000,88,32792000000,imu_link,0.000603481669876,-0.371600016569,0.000493630345612,0.928392600048,0.0,0.0,0.0,0.0,0.0,0.0,0.0,0.0,0.0,0.00307753595799,-0.0126665486642,-0.000643312360986,0.0,0.0,0.0,0.0,0.0,0.0,0.0,0.0,0.0,6.35009651546,-0.00582613927934,7.21168778169,0.0,0.0,0.0,0.0,0.0,0.0,0.0,0.0,0.0
32796000000,89,32796000000,imu_link,0.000609928944082,-0.371622457533,0.000494762087482,0.928383612659,0.0,0.0,0.0,0.0,0.0,0.0,0.0,0.0,0.0,0.00320025157355,-0.0120881194365,-0.0006635636328,0.0,0.0,0.0,0.0,0.0,0.0,0.0,0.0,0.0,6.3515312116,-0.00565960172204,7.21072046344,0.0,0.0,0.0,0.0,0.0,0.0,0.0,0.0,0.0
32800000000,90,32800000000,imu_link,0.000616384769904,-0.371644004989,0.000495963434508,0.928374982238,0.0,0.0,0.0,0.0,0.0,0.0,0.0,0.0,0.0,0.0032172667569,-0.0116070122251,-0.000633203271866,0.0,0.0,0.0,0.0,0.0,0.0,0.0,0.0,0.0,6.35218563758,-0.00558804462304,7.20969133307,0.0,0.0,0.0,0.0,0.0,0.0,0.0,0.0,0.0
32804000000,91,32804000000,imu_link,0.000622651216011,-0.371664809894,0.000497242957443,0.928366648551,0.0,0.0,0.0,0.0,0.0,0.0,0.0,0.0,0.0,0.00314397855477,-0.0112071185324,-0.000562026507989,0.0,0.0,0.0,0.0,0.0,0.0,0.0,0.0,0.0,6.35275649512,-0.00555285921381,7.20833996392,0.0,0.0,0.0,0.0,0.0,0.0,0.0,0.0,0.0
32808000000,92,32808000000,imu_link,0.000628705382931,-0.371684911878,0.000498629532044,0.928358595792,0.0,0.0,0.0,0.0,0.0,0.0,0.0,0.0,0.0,0.00306542306527,-0.0108285427106,-0.000473175240041,0.0,0.0,0.0,0.0,0.0,0.0,0.0,0.0,0.0,6.35336902391,-0.00556378850305,7.20636898752,0.0,0.0,0.0,0.0,0.0,0.0,0.0,0.0,0.0
32812000000,93,32812000000,imu_link,0.000634661743885,-0.371704195011,0.000500165435591,0.928350870334,0.0,0.0,0.0,0.0,0.0,0.0,0.0,0.0,0.0,0.00304787648192,-0.0103875515292,-0.000386022342662,0.0,0.0,0.0,0.0,0.0,0.0,0.0,0.0,0.0,6.35412859018,-0.0056056248465,7.20328600746,0.0,0.0,0.0,0.0,0.0,0.0,0.0,0.0,0.0
32816000000,94,32816000000,imu_link,0.000640937366936,-0.371722536858,0.000501888373898,0.928343520955,0.0,0.0,0.0,0.0,0.0,0.0,0.0,0.0,0.0,0.00323094696578,-0.00988075503218,-0.000358933681731,0.0,0.0,0.0,0.0,0.0,0.0,0.0,0.0,0.0,6.35552948117,-0.00567970791116,7.2015661527,0.0,0.0,0.0,0.0,0.0,0.0,0.0,0.0,0.0
32820000000,95,32820000000,imu_link,0.000648008947739,-0.371739952237,0.00050381630365,0.928336541435,0.0,0.0,0.0,0.0,0.0,0.0,0.0,0.0,0.0,0.00363862201005,-0.00938210649498,-0.000412109877291,0.0,0.0,0.0,0.0,0.0,0.0,0.0,0.0,0.0,6.356849695,-0.00570568090311,7.20044577245,0.0,0.0,0.0,0.0,0.0,0.0,0.0,0.0,0.0
32824000000,96,32824000000,imu_link,0.000656420771343,-0.371756746534,0.000506025940937,0.928329809096,0.0,0.0,0.0,0.0,0.0,0.0,0.0,0.0,0.0,0.0043131575341,-0.00904812244653,-0.000530724575947,0.0,0.0,0.0,0.0,0.0,0.0,0.0,0.0,0.0,6.35865852338,-0.0056603394562,7.20280245223,0.0,0.0,0.0,0.0,0.0,0.0,0.0,0.0,0.0
32828000000,97,32828000000,imu_link,0.000666443219226,-0.371773470338,0.000508543161265,0.92832310323,0.0,0.0,0.0,0.0,0.0,0.0,0.0,0.0,0.0,0.00511793498156,-0.00901078795567,-0.000687365378069,0.0,0.0,0.0,0.0,0.0,0.0,0.0,0.0,0.0,6.36261787935,-0.00549171179757,7.21140280442,0.0,0.0,0.0,0.0,0.0,0.0,0.0,0.0,0.0
32832000000,98,32832000000,imu_link,0.000677846850251,-0.371790594919,0.000511314741078,0.92831623524,0.0,0.0,0.0,0.0,0.0,0.0,0.0,0.0,0.0,0.00580626126245,-0.00922721643894,-0.000825870338952,0.0,0.0,0.0,0.0,0.0,0.0,0.0,0.0,0.0,6.36451932747,-0.00519597975504,7.21491694275,0.0,0.0,0.0,0.0,0.0,0.0,0.0,0.0,0.0
32836000000,99,32836000000,imu_link,0.000689987000311,-0.371808288363,0.000514259915364,0.92830913825,0.0,0.0,0.0,0.0,0.0,0.0,0.0,0.0,0.0,0.00618032512809,-0.00953395813959,-0.000881959134104,0.0,0.0,0.0,0.0,0.0,0.0,0.0,0.0,0.0,6.36629831329,-0.00486464878306,7.21562497116,0.0,0.0,0.0,0.0,0.0,0.0,0.0,0.0,0.0
32840000000,100,32840000000,imu_link,0.000702446779381,-0.371826531506,0.000517348669029,0.9283018202,0.0,0.0,0.0,0.0,0.0,0.0,0.0,0.0,0.0,0.00635530931546,-0.00983023211444,-0.000874489982585,0.0,0.0,0.0,0.0,0.0,0.0,0.0,0.0,0.0,6.36744342147,-0.00469290215945,7.21330136503,0.0,0.0,0.0,0.0,0.0,0.0,0.0,0.0,0.0
32844000000,101,32844000000,imu_link,0.000715213541509,-0.371845250148,0.000520604907172,0.928294310756,0.0,0.0,0.0,0.0,0.0,0.0,0.0,0.0,0.0,0.00652887758979,-0.0100865387311,-0.000853607617485,0.0,0.0,0.0,0.0,0.0,0.0,0.0,0.0,0.0,6.36810162545,-0.00468732128135,7.20990557095,0.0,0.0,0.0,0.0,0.0,0.0,0.0,0.0,0.0
32848000000,102,32848000000,imu_link,0.000728345711889,-0.371864551827,0.000524023259812,0.928286566749,0.0,0.0,0.0,0.0,0.0,0.0,0.0,0.0,0.0,0.00672855365927,-0.0104008013517,-0.000846030741374,0.0,0.0,0.0,0.0,0.0,0.0,0.0,0.0,0.0,6.36849632394,-0.00475147838318,7.20748846881,0.0,0.0,0.0,0.0,0.0,0.0,0.0,0.0,0.0
32852000000,103,32852000000,imu_link,0.000741654402708,-0.371884527267,0.000527542507899,0.928278551959,0.0,0.0,0.0,0.0,0.0,0.0,0.0,0.0,0.0,0.00682916623387,-0.0107638798819,-0.000831705330463,0.0,0.0,0.0,0.0,0.0,0.0,0.0,0.0,0.0,6.36962490013,-0.00472447843108,7.20627430323,0.0,0.0,0.0,0.0,0.0,0.0,0.0,0.0,0.0
32856000000,104,32856000000,imu_link,0.00075494546737,-0.371905067995,0.000531127161644,0.928270309964,0.0,0.0,0.0,0.0,0.0,0.0,0.0,0.0,0.0,0.0068330820655,-0.0110684703769,-0.000797800993425,0.0,0.0,0.0,0.0,0.0,0.0,0.0,0.0,0.0,6.37004670119,-0.0046974955906,7.20227135185,0.0,0.0,0.0,0.0,0.0,0.0,0.0,0.0,0.0
32860000000,105,32860000000,imu_link,0.000768083987606,-0.371925903432,0.00053476175723,0.928261949254,0.0,0.0,0.0,0.0,0.0,0.0,0.0,0.0,0.0,0.00677153419435,-0.0112272711793,-0.000746112436169,0.0,0.0,0.0,0.0,0.0,0.0,0.0,0.0,0.0,6.37150867925,-0.00469764304309,7.19908652668,0.0,0.0,0.0,0.0,0.0,0.0,0.0,0.0,0.0
32864000000,106,32864000000,imu_link,0.000781046136765,-0.371946674657,0.000538459120218,0.928253613643,0.0,0.0,0.0,0.0,0.0,0.0,0.0,0.0,0.0,0.0067013548562,-0.0111927297759,-0.00068421302547,0.0,0.0,0.0,0.0,0.0,0.0,0.0,0.0,0.0,6.37339741891,-0.00473355927755,7.19560680701,0.0,0.0,0.0,0.0,0.0,0.0,0.0,0.0,0.0
32868000000,107,32868000000,imu_link,0.000793797235639,-0.371967081905,0.000542222406844,0.928245423291,0.0,0.0,0.0,0.0,0.0,0.0,0.0,0.0,0.0,0.00661570206636,-0.0109967013504,-0.000614547621375,0.0,0.0,0.0,0.0,0.0,0.0,0.0,0.0,0.0,6.37504267981,-0.0047881606042,7.19240675805,0.0,0.0,0.0,0.0,0.0,0.0,0.0,0.0,0.0
32872000000,108,32872000000,imu_link,0.000806246985207,-0.371987093469,0.000546055848712,0.928237391017,0.0,0.0,0.0,0.0,0.0,0.0,0.0,0.0,0.0,0.00648893126243,-0.010783545832,-0.000526140872915,0.0,0.0,0.0,0.0,0.0,0.0,0.0,0.0,0.0,6.37572155822,-0.0048149781859,7.18968725442,0.0,0.0,0.0,0.0,0.0,0.0,0.0,0.0,0.0
32876000000,109,32876000000,imu_link,0.000817894539696,-0.372007112682,0.000549932278383,0.928229355675,0.0,0.0,0.0,0.0,0.0,0.0,0.0,0.0,0.0,0.006124612131,-0.0107874304391,-0.000356982399791,0.0,0.0,0.0,0.0,0.0,0.0,0.0,0.0,0.0,6.3778469375,-0.00480355200645,7.19373775084,0.0,0.0,0.0,0.0,0.0,0.0,0.0,0.0,0.0
32880000000,110,32880000000,imu_link,0.000828062519748,-0.372027636648,0.000553792733562,0.928221118697,0.0,0.0,0.0,0.0,0.0,0.0,0.0,0.0,0.0,0.00543489227376,-0.0110587979866,-8.89284293681e-05,0.0,0.0,0.0,0.0,0.0,0.0,0.0,0.0,0.0,6.37974684634,-0.00483010803766,7.19804208593,0.0,0.0,0.0,0.0,0.0,0.0,0.0,0.0,0.0
32884000000,111,32884000000,imu_link,0.000836370204737,-0.37204898154,0.000557570790855,0.928212553748,0.0,0.0,0.0,0.0,0.0,0.0,0.0,0.0,0.0,0.00455609102553,-0.0115003249927,0.000219301133261,0.0,0.0,0.0,0.0,0.0,0.0,0.0,0.0,0.0,6.38052432024,-0.00500000782037,7.19796765606,0.0,0.0,0.0,0.0,0.0,0.0,0.0,0.0,0.0
32888000000,112,32888000000,imu_link,0.000842622603407,-0.372070912062,0.000561206275149,0.928203755343,0.0,0.0,0.0,0.0,0.0,0.0,0.0,0.0,0.0,0.00357563203676,-0.0118150343927,0.000535775686494,0.0,0.0,0.0,0.0,0.0,0.0,0.0,0.0,0.0,6.38186654183,-0.00529794374083,7.19456018383,0.0,0.0,0.0,0.0,0.0,0.0,0.0,0.0,0.0
32892000000,113,32892000000,imu_link,0.000846724858282,-0.372092906592,0.000564652473499,0.928194932699,0.0,0.0,0.0,0.0,0.0,0.0,0.0,0.0,0.0,0.0025425246175,-0.0118487263524,0.000847964474238,0.0,0.0,0.0,0.0,0.0,0.0,0.0,0.0,0.0,6.3820112228,-0.00567837164272,7.18659126054,0.0,0.0,0.0,0.0,0.0,0.0,0.0,0.0,0.0
32896000000,114,32896000000,imu_link,0.000848747211822,-0.372114540067,0.00056791315705,0.928186256187,0.0,0.0,0.0,0.0,0.0,0.0,0.0,0.0,0.0,0.00154277337651,-0.0116534658232,0.00114863167899,0.0,0.0,0.0,0.0,0.0,0.0,0.0,0.0,0.0,6.38204769209,-0.0060219670626,7.17949502165,0.0,0.0,0.0,0.0,0.0,0.0,0.0,0.0,0.0
32900000000,115,32900000000,imu_link,0.00084899803264,-0.372135799118,0.000571049702656,0.92817773089,0.0,0.0,0.0,0.0,0.0,0.0,0.0,0.0,0.0,0.000697562594409,-0.0114511130824,0.0014204248197,0.0,0.0,0.0,0.0,0.0,0.0,0.0,0.0,0.0,6.38385630661,-0.0063550919027,7.17963622773,0.0,0.0,0.0,0.0,0.0,0.0,0.0,0.0,0.0
32904000000,116,32904000000,imu_link,0.000847930352698,-0.372157116191,0.000574163800497,0.928169182972,0.0,0.0,0.0,0.0,0.0,0.0,0.0,0.0,0.0,8.14773002599e-05,-0.0114818823759,0.00165536881819,0.0,0.0,0.0,0.0,0.0,0.0,0.0,0.0,0.0,6.38493138563,-0.00664692505236,7.18199883165,0.0,0.0,0.0,0.0,0.0,0.0,0.0,0.0,0.0
32908000000,117,32908000000,imu_link,0.000845876086463,-0.372179040122,0.000577328365262,0.928160392001,0.0,0.0,0.0,0.0,0.0,0.0,0.0,0.0,0.0,-0.000367062556271,-0.0118084383347,0.00186269935741,0.0,0.0,0.0,0.0,0.0,0.0,0.0,0.0,0.0,6.38719360752,-0.00684079462783,7.18741882061,0.0,0.0,0.0,0.0,0.0,0.0,0.0,0.0,0.0
32912000000,118,32912000000,imu_link,0.000842981070906,-0.372201636902,0.000580550803377,0.92815133132,0.0,0.0,0.0,0.0,0.0,0.0,0.0,0.0,0.0,-0.000746548199749,-0.0121706172845,0.00204637430001,0.0,0.0,0.0,0.0,0.0,0.0,0.0,0.0,0.0,6.38733804666,-0.00694544911687,7.18405634891,0.0,0.0,0.0,0.0,0.0,0.0,0.0,0.0,0.0
32916000000,119,32916000000,imu_link,0.000839366027235,-0.372224536594,0.000583834552173,0.928142149113,0.0,0.0,0.0,0.0,0.0,0.0,0.0,0.0,0.0,-0.0010693224632,-0.0123335727433,0.0022089878675,0.0,0.0,0.0,0.0,0.0,0.0,0.0,0.0,0.0,6.38817710951,-0.00701729624857,7.17848551333,0.0,0.0,0.0,0.0,0.0,0.0,0.0,0.0,0.0
32920000000,120,32920000000,imu_link,0.000835239155811,-0.372247027843,0.000587163499885,0.92813313047,0.0,0.0,0.0,0.0,0.0,0.0,0.0,0.0,0.0,-0.00129838426024,-0.0121134165119,0.00232500163703,0.0,0.0,0.0,0.0,0.0,0.0,0.0,0.0,0.0,6.39070719779,-0.00707588668569,7.17359257783,0.0,0.0,0.0,0.0,0.0,0.0,0.0,0.0,0.0
32924000000,121,32924000000,imu_link,0.000830763268719,-0.372268550042,0.000590524448878,0.928124500142,0.0,0.0,0.0,0.0,0.0,0.0,0.0,0.0,0.0,-0.0014542722437,-0.0115913221478,0.00240429368788,0.0,0.0,0.0,0.0,0.0,0.0,0.0,0.0,0.0,6.39245178734,-0.00709738457928,7.16869325771,0.0,0.0,0.0,0.0,0.0,0.0,0.0,0.0,0.0
32928000000,122,32928000000,imu_link,0.000826127516096,-0.372289051106,0.000593925653654,0.928116278918,0.0,0.0,0.0,0.0,0.0,0.0,0.0,0.0,0.0,-0.00152083525253,-0.011041239872,0.00245218637779,0.0,0.0,0.0,0.0,0.0,0.0,0.0,0.0,0.0,6.39281630435,-0.00710596760206,7.16524047844,0.0,0.0,0.0,0.0,0.0,0.0,0.0,0.0,0.0
32932000000,123,32932000000,imu_link,0.000821768594858,-0.372308796072,0.000597415978005,0.928108360138,0.0,0.0,0.0,0.0,0.0,0.0,0.0,0.0,0.0,-0.0013756806697,-0.0106341137806,0.0024416102642,0.0,0.0,0.0,0.0,0.0,0.0,0.0,0.0,0.0,6.39435637224,-0.00709653102449,7.16694508187,0.0,0.0,0.0,0.0,0.0,0.0,0.0,0.0,0.0
32936000000,124,32936000000,imu_link,0.000818097541248,-0.37232811845,0.000600998874752,0.928100609701,0.0,0.0,0.0,0.0,0.0,0.0,0.0,0.0,0.0,-0.00103918300207,-0.0104068393,0.00235629536658,0.0,0.0,0.0,0.0,0.0,0.0,0.0,0.0,0.0,6.39595240167,-0.00703539681566,7.16975152109,0.0,0.0,0.0,0.0,0.0,0.0,0.0,0.0,0.0
32940000000,125,32940000000,imu_link,0.000815021357037,-0.372347231136,0.000604594608313,0.928092942367,0.0,0.0,0.0,0.0,0.0,0.0,0.0,0.0,0.0,-0.000760714903215,-0.0102942346783,0.00225139824578,0.0,0.0,0.0,0.0,0.0,0.0,0.0,0.0,0.0,6.39674708166,-0.00687946354984,7.16975325456,0.0,0.0,0.0,0.0,0.0,0.0,0.0,0.0,0.0
32944000000,126,32944000000,imu_link,0.000812047524725,-0.372366328435,0.000608093598762,0.928085280698,0.0,0.0,0.0,0.0,0.0,0.0,0.0,0.0,0.0,-0.000731227538052,-0.010286110163,0.00218744173973,0.0,0.0,0.0,0.0,0.0,0.0,0.0,0.0,0.0,6.39800589469,-0.00666193289601,7.17058519562,0.0,0.0,0.0,0.0,0.0,0.0,0.0,0.0,0.0
32948000000,127,32948000000,imu_link,0.000808740453839,-0.372385441515,0.00061145935018,0.928077612597,0.0,0.0,0.0,0.0,0.0,0.0,0.0,0.0,0.0,-0.000910673496408,-0.0102945830783,0.002187664923,0.0,0.0,0.0,0.0,0.0,0.0,0.0,0.0,0.0,6.39948945191,-0.00652052321388,7.1706331973,0.0,0.0,0.0,0.0,0.0,0.0,0.0,0.0,0.0
32952000000,128,32952000000,imu_link,0.000805001281104,-0.372404479037,0.000614686194906,0.928069974801,0.0,0.0,0.0,0.0,0.0,0.0,0.0,0.0,0.0,-0.00113703809189,-0.0102538029231,0.00220362122831,0.0,0.0,0.0,0.0,0.0,0.0,0.0,0.0,0.0,6.40019732879,-0.00648119349357,7.16796450433,0.0,0.0,0.0,0.0,0.0,0.0,0.0,0.0,0.0
32956000000,129,32956000000,imu_link,0.000800900376255,-0.372423342006,0.000617755293966,0.928062406989,0.0,0.0,0.0,0.0,0.0,0.0,0.0,0.0,0.0,-0.0013342415659,-0.0101597258571,0.00219768528349,0.0,0.0,0.0,0.0,0.0,0.0,0.0,0.0,0.0,6.39987444039,-0.00647878222493,7.16270386434,0.0,0.0,0.0,0.0,0.0,0.0,0.0,0.0,0.0
32960000000,130,32960000000,imu_link,0.000796410803565,-0.372442068354,0.000620619413261,0.928054894002,0.0,0.0,0.0,0.0,0.0,0.0,0.0,0.0,0.0,-0.0015527449526,-0.0100860818708,0.00217487111944,0.0,0.0,0.0,0.0,0.0,0.0,0.0,0.0,0.0,6.39999618738,-0.00644938352791,7.15970630734,0.0,0.0,0.0,0.0,0.0,0.0,0.0,0.0,0.0
32964000000,131,32964000000,imu_link,0.000791656258319,-0.372460857788,0.000623233738577,0.928047355622,0.0,0.0,0.0,0.0,0.0,0.0,0.0,0.0,0.0,-0.00172222584801,-0.0101201013174,0.00210833632192,0.0,0.0,0.0,0.0,0.0,0.0,0.0,0.0,0.0,6.40160717642,-0.00644484059594,7.16100418795,0.0,0.0,0.0,0.0,0.0,0.0,0.0,0.0,0.0
32968000000,132,32968000000,imu_link,0.000786964741448,-0.372480015152,0.000625602657811,0.928039669206,0.0,0.0,0.0,0.0,0.0,0.0,0.0,0.0,0.0,-0.00173873732699,-0.0103185156435,0.00198291605549,0.0,0.0,0.0,0.0,0.0,0.0,0.0,0.0,0.0,6.40372825069,-0.00646039069505,7.16437106631,0.0,0.0,0.0,0.0,0.0,0.0,0.0,0.0,0.0
32972000000,133,32972000000,imu_link,0.000782737594993,-0.372499667552,0.000627762894474,0.928031783351,0.0,0.0,0.0,0.0,0.0,0.0,0.0,0.0,0.0,-0.00156220165873,-0.0105855929576,0.00179985602627,0.0,0.0,0.0,0.0,0.0,0.0,0.0,0.0,0.0,6.40467562623,-0.00645095493985,7.16356773625,0.0,0.0,0.0,0.0,0.0,0.0,0.0,0.0,0.0
32976000000,134,32976000000,imu_link,0.000779024385019,-0.372519701252,0.000629729945787,0.928023743629,0.0,0.0,0.0,0.0,0.0,0.0,0.0,0.0,0.0,-0.00135976716775,-0.0107914165275,0.00161469189427,0.0,0.0,0.0,0.0,0.0,0.0,0.0,0.0,0.0,6.40568876308,-0.00629927638788,7.16049589462,0.0,0.0,0.0,0.0,0.0,0.0,0.0,0.0,0.0
32980000000,135,32980000000,imu_link,0.000775455608241,-0.372539709762,0.000631511678997,0.928015713505,0.0,0.0,0.0,0.0,0.0,0.0,0.0,0.0,0.0,-0.00132726157933,-0.0107780583029,0.00150178715518,0.0,0.0,0.0,0.0,0.0,0.0,0.0,0.0,0.0,6.40779277183,-0.00607137506076,7.15751747171,0.0,0.0,0.0,0.0,0.0,0.0,0.0,0.0,0.0
32984000000,136,32984000000,imu_link,0.000771808903713,-0.372559497245,0.000633134742292,0.928007771769,0.0,0.0,0.0,0.0,0.0,0.0,0.0,0.0,0.0,-0.00139294056959,-0.0106590725473,0.00144256505106,0.0,0.0,0.0,0.0,0.0,0.0,0.0,0.0,0.0,6.40909197454,-0.00591929273276,7.15492737908,0.0,0.0,0.0,0.0,0.0,0.0,0.0,0.0,0.0
32988000000,137,32988000000,imu_link,0.000768107017818,-0.372579159407,0.000634633387779,0.927999879972,0.0,0.0,0.0,0.0,0.0,0.0,0.0,0.0,0.0,-0.00144170105535,-0.0105916512613,0.00139504970493,0.0,0.0,0.0,0.0,0.0,0.0,0.0,0.0,0.0,6.4098204944,-0.00584464040113,7.1537647822,0.0,0.0,0.0,0.0,0.0,0.0,0.0,0.0,0.0
32992000000,138,32992000000,imu_link,0.000764435497422,-0.372598847648,0.00063601237549,0.92799197726,0.0,0.0,0.0,0.0,0.0,0.0,0.0,0.0,0.0,-0.00144990654572,-0.0106058410732,0.00133388520778,0.0,0.0,0.0,0.0,0.0,0.0,0.0,0.0,0.0,6.41128733268,-0.0057773386017,7.15456677898,0.0,0.0,0.0,0.0,0.0,0.0,0.0,0.0,0.0
32996000000,139,32996000000,imu_link,0.000760907996186,-0.37261859187,0.000637294589355,0.927984051516,0.0,0.0,0.0,0.0,0.0,0.0,0.0,0.0,0.0,-0.00140112014445,-0.0106361897228,0.00126218056597,0.0,0.0,0.0,0.0,0.0,0.0,0.0,0.0,0.0,6.41203255769,-0.00570454536278,7.15299979641,0.0,0.0,0.0,0.0,0.0,0.0,0.0,0.0,0.0
33000000000,140,33000000000,imu_link,0.00075746678698,-0.372638385101,0.000638495150085,0.927976105575,0.0,0.0,0.0,0.0,0.0,0.0,0.0,0.0,0.0,-0.00137630200074,-0.0106627504796,0.00120824223581,0.0,0.0,0.0,0.0,0.0,0.0,0.0,0.0,0.0,6.4131574704,-0.00557448107055,7.15163288128,0.0,0.0,0.0,0.0,0.0,0.0,0.0,0.0,0.0
33004000000,141,33004000000,imu_link,0.000753945333289,-0.372658114373,0.000639604395826,0.927968184942,0.0,0.0,0.0,0.0,0.0,0.0,0.0,0.0,0.0,-0.00143053738476,-0.0106283681727,0.00118079195723,0.0,0.0,0.0,0.0,0.0,0.0,0.0,0.0,0.0,6.41391056094,-0.0054741138705,7.14843265261,0.0,0.0,0.0,0.0,0.0,0.0,0.0,0.0,0.0
33008000000,142,33008000000,imu_link,0.00075027267654,-0.372677666796,0.000640616648175,0.927960335021,0.0,0.0,0.0,0.0,0.0,0.0,0.0,0.0,0.0,-0.00151873598571,-0.0105331256573,0.00116387280807,0.0,0.0,0.0,0.0,0.0,0.0,0.0,0.0,0.0,6.415229524,-0.00539586725812,7.14659778592,0.0,0.0,0.0,0.0,0.0,0.0,0.0,0.0,0.0
33012000000,143,33012000000,imu_link,0.000746652642775,-0.372696796916,0.000641507321687,0.927952654259,0.0,0.0,0.0,0.0,0.0,0.0,0.0,0.0,0.0,-0.00151690301351,-0.0103057263523,0.0010974443291,0.0,0.0,0.0,0.0,0.0,0.0,0.0,0.0,0.0,6.41755359061,-0.00537180469883,7.14589637957,0.0,0.0,0.0,0.0,0.0,0.0,0.0,0.0,0.0
33016000000,144,33016000000,imu_link,0.000743220675694,-0.37271546169,0.00064222715512,0.927945159902,0.0,0.0,0.0,0.0,0.0,0.0,0.0,0.0,0.0,-0.00146140062749,-0.0100552053005,0.000982899135605,0.0,0.0,0.0,0.0,0.0,0.0,0.0,0.0,0.0,6.4192348532,-0.00530495839468,7.14549495689,0.0,0.0,0.0,0.0,0.0,0.0,0.0,0.0,0.0
33020000000,145,33020000000,imu_link,0.000739984130388,-0.372733771696,0.00064275768975,0.927937807573,0.0,0.0,0.0,0.0,0.0,0.0,0.0,0.0,0.0,-0.00140594643623,-0.00986426766338,0.000858473880533,0.0,0.0,0.0,0.0,0.0,0.0,0.0,0.0,0.0,6.42003368624,-0.00519530345099,7.14435344607,0.0,0.0,0.0,0.0,0.0,0.0,0.0,0.0,0.0
33024000000,146,33024000000,imu_link,0.000736790913874,-0.372751874697,0.000643113430476,0.927930538054,0.0,0.0,0.0,0.0,0.0,0.0,0.0,0.0,0.0,-0.00141838313218,-0.00975286950472,0.000769196689021,0.0,0.0,0.0,0.0,0.0,0.0,0.0,0.0,0.0,6.42220706237,-0.00501149558383,7.14665376457,0.0,0.0,0.0,0.0,0.0,0.0,0.0,0.0,0.0
33028000000,147,33028000000,imu_link,0.000733710931449,-0.372770148424,0.000643375190589,0.927923199506,0.0,0.0,0.0,0.0,0.0,0.0,0.0,0.0,0.0,-0.00138339163968,-0.00984501642317,0.000704573930009,0.0,0.0,0.0,0.0,0.0,0.0,0.0,0.0,0.0,6.42483490913,-0.00487783375262,7.15176390962,0.0,0.0,0.0,0.0,0.0,0.0,0.0,0.0,0.0
33032000000,148,33032000000,imu_link,0.000730887655416,-0.372788904228,0.000643605374459,0.927915666674,0.0,0.0,0.0,0.0,0.0,0.0,0.0,0.0,0.0,-0.00127025887674,-0.0101049877961,0.000642316877274,0.0,0.0,0.0,0.0,0.0,0.0,0.0,0.0,0.0,6.42621369561,-0.00479912132846,7.15367648411,0.0,0.0,0.0,0.0,0.0,0.0,0.0,0.0,0.0
33036000000,149,33036000000,imu_link,0.000728432147049,-0.372808156664,0.000643800813854,0.927907933597,0.0,0.0,0.0,0.0,0.0,0.0,0.0,0.0,0.0,-0.00110619300306,-0.0103728593234,0.000557892984038,0.0,0.0,0.0,0.0,0.0,0.0,0.0,0.0,0.0,6.42654055361,-0.00470069312974,7.15114636832,0.0,0.0,0.0,0.0,0.0,0.0,0.0,0.0,0.0
33040000000,150,33040000000,imu_link,0.000726466612536,-0.372827831077,0.000643933025035,0.92790003016,0.0,0.0,0.0,0.0,0.0,0.0,0.0,0.0,0.0,-0.000890727473986,-0.0106005743032,0.000437433408495,0.0,0.0,0.0,0.0,0.0,0.0,0.0,0.0,0.0,6.42750193792,-0.00458817393538,7.14930462368,0.0,0.0,0.0,0.0,0.0,0.0,0.0,0.0,0.0
33044000000,151,33044000000,imu_link,0.000725107228968,-0.372847861337,0.000643988296604,0.927891982827,0.0,0.0,0.0,0.0,0.0,0.0,0.0,0.0,0.0,-0.000623908650962,-0.0107927162238,0.000288917888353,0.0,0.0,0.0,0.0,0.0,0.0,0.0,0.0,0.0,6.42948451791,-0.00444798706089,7.14928913377,0.0,0.0,0.0,0.0,0.0,0.0,0.0,0.0,0.0
33048000000,152,33048000000,imu_link,0.000724268360409,-0.372868172816,0.000644010149067,0.9278838216,0.0,0.0,0.0,0.0,0.0,0.0,0.0,0.0,0.0,-0.000388697178518,-0.0109445994067,0.000176515404358,0.0,0.0,0.0,0.0,0.0,0.0,0.0,0.0,0.0,6.4322966966,-0.00427301956231,7.15051874321,0.0,0.0,0.0,0.0,0.0,0.0,0.0,0.0,0.0
33052000000,153,33052000000,imu_link,0.00072362728027,-0.372888567785,0.000644004596762,0.927875626168,0.0,0.0,0.0,0.0,0.0,0.0,0.0,0.0,0.0,-0.000302058521138,-0.0109897845083,0.000126967928833,0.0,0.0,0.0,0.0,0.0,0.0,0.0,0.0,0.0,6.43480917962,-0.00407649399228,7.15045588146,0.0,0.0,0.0,0.0,0.0,0.0,0.0,0.0,0.0
33056000000,154,33056000000,imu_link,0.000722839914215,-0.372908821662,0.000643953160076,0.927867487066,0.0,0.0,0.0,0.0,0.0,0.0,0.0,0.0,0.0,-0.000378455918247,-0.0109137934557,0.000132885415518,0.0,0.0,0.0,0.0,0.0,0.0,0.0,0.0,0.0,6.43664928931,-0.0039149948053,7.14886357571,0.0,0.0,0.0,0.0,0.0,0.0,0.0,0.0,0.0
33060000000,155,33060000000,imu_link,0.000721662267805,-0.372928592767,0.000643843207272,0.927859541831,0.0,0.0,0.0,0.0,0.0,0.0,0.0,0.0,0.0,-0.000570345359392,-0.0106535673767,0.000178270402778,0.0,0.0,0.0,0.0,0.0,0.0,0.0,0.0,0.0,6.43790941843,-0.00382263181193,7.14519435463,0.0,0.0,0.0,0.0,0.0,0.0,0.0,0.0,0.0
33064000000,156,33064000000,imu_link,0.000719973169732,-0.372947605103,0.000643683675275,0.927851901522,0.0,0.0,0.0,0.0,0.0,0.0,0.0,0.0,0.0,-0.000816733524004,-0.0102445474951,0.000250264664456,0.0,0.0,0.0,0.0,0.0,0.0,0.0,0.0,0.0,6.44028301485,-0.00379536303192,7.14408900481,0.0,0.0,0.0,0.0,0.0,0.0,0.0,0.0,0.0
33068000000,157,33068000000,imu_link,0.000717753438781,-0.372965938233,0.000643486121546,0.927844534215,0.0,0.0,0.0,0.0,0.0,0.0,0.0,0.0,0.0,-0.0010698776241,-0.00987838116246,0.000331242158181,0.0,0.0,0.0,0.0,0.0,0.0,0.0,0.0,0.0,6.44055711749,-0.0037422875686,7.14191411811,0.0,0.0,0.0,0.0,0.0,0.0,0.0,0.0,0.0
33072000000,158,33072000000,imu_link,0.000714908195355,-0.372983782648,0.000643177802809,0.927837363502,0.0,0.0,0.0,0.0,0.0,0.0,0.0,0.0,0.0,-0.00138063588912,-0.00961483264693,0.00039626458662,0.0,0.0,0.0,0.0,0.0,0.0,0.0,0.0,0.0,6.44171292474,-0.00369653851221,7.14271219387,0.0,0.0,0.0,0.0,0.0,0.0,0.0,0.0,0.0
33076000000,159,33076000000,imu_link,0.000711292194651,-0.373001211545,0.000642681821023,0.927830360146,0.0,0.0,0.0,0.0,0.0,0.0,0.0,0.0,0.0,-0.00177312842308,-0.0093906740121,0.000452741826054,0.0,0.0,0.0,0.0,0.0,0.0,0.0,0.0,0.0,6.44239783276,-0.00368133931691,7.14177442694,0.0,0.0,0.0,0.0,0.0,0.0,0.0,0.0,0.0
33080000000,160,33080000000,imu_link,0.000706726313054,-0.373018142407,0.000641918798551,0.927823557533,0.0,0.0,0.0,0.0,0.0,0.0,0.0,0.0,0.0,-0.00226350719254,-0.00912197945123,0.000505769329298,0.0,0.0,0.0,0.0,0.0,0.0,0.0,0.0,0.0,6.44340287721,-0.00366719999617,7.14022413013,0.0,0.0,0.0,0.0,0.0,0.0,0.0,0.0,0.0
33084000000,161,33084000000,imu_link,0.000701158086239,-0.373034375025,0.000640856040851,0.927817036237,0.0,0.0,0.0,0.0,0.0,0.0,0.0,0.0,0.0,-0.00278428558365,-0.00874537201613,0.000553328076848,0.0,0.0,0.0,0.0,0.0,0.0,0.0,0.0,0.0,6.4438924305,-0.00369434659364,7.13679877279,0.0,0.0,0.0,0.0,0.0,0.0,0.0,0.0,0.0
33088000000,162,33088000000,imu_link,0.000694639769237,-0.373049802876,0.000639498339636,0.927810839068,0.0,0.0,0.0,0.0,0.0,0.0,0.0,0.0,0.0,-0.00327990831199,-0.00831137739672,0.000593323423671,0.0,0.0,0.0,0.0,0.0,0.0,0.0,0.0,0.0,6.44362143355,-0.00373756119183,7.1327591826,0.0,0.0,0.0,0.0,0.0,0.0,0.0,0.0,0.0
33092000000,163,33092000000,imu_link,0.000687584634561,-0.37306450375,0.000637915484474,0.927804934419,0.0,0.0,0.0,0.0,0.0,0.0,0.0,0.0,0.0,-0.00357080690604,-0.00791947322772,0.000588657124774,0.0,0.0,0.0,0.0,0.0,0.0,0.0,0.0,0.0,6.44536405027,-0.00382462120349,7.13385253911,0.0,0.0,0.0,0.0,0.0,0.0,0.0,0.0,0.0
33096000000,164,33096000000,imu_link,0.000680428999637,-0.373078835822,0.000636176412737,0.927799177924,0.0,0.0,0.0,0.0,0.0,0.0,0.0,0.0,0.0,-0.00364650195006,-0.00772077112875,0.000534760361568,0.0,0.0,0.0,0.0,0.0,0.0,0.0,0.0,0.0,6.44609841338,-0.00387022070026,7.13519993762,0.0,0.0,0.0,0.0,0.0,0.0,0.0,0.0,0.0
33100000000,165,33100000000,imu_link,0.000673672989457,-0.373093188214,0.000634356855802,0.927793412708,0.0,0.0,0.0,0.0,0.0,0.0,0.0,0.0,0.0,-0.00347613335379,-0.00773197886731,0.000422887231645,0.0,0.0,0.0,0.0,0.0,0.0,0.0,0.0,0.0,6.44802613578,-0.00386451153893,7.13919960154,0.0,0.0,0.0,0.0,0.0,0.0,0.0,0.0,0.0
33104000000,166,33104000000,imu_link,0.000667566867145,-0.373107884499,0.000632504943486,0.92778750844,0.0,0.0,0.0,0.0,0.0,0.0,0.0,0.0,0.0,-0.00318075053613,-0.00791766598981,0.000286803247928,0.0,0.0,0.0,0.0,0.0,0.0,0.0,0.0,0.0,6.44869694705,-0.00374181038229,7.13964175205,0.0,0.0,0.0,0.0,0.0,0.0,0.0,0.0,0.0
33108000000,167,33108000000,imu_link,0.000662093490339,-0.373123326225,0.000630625071945,0.927781303633,0.0,0.0,0.0,0.0,0.0,0.0,0.0,0.0,0.0,-0.00289257518454,-0.00831974817122,0.000156135832091,0.0,0.0,0.0,0.0,0.0,0.0,0.0,0.0,0.0,6.44973351728,-0.00355458459523,7.14125058337,0.0,0.0,0.0,0.0,0.0,0.0,0.0,0.0,0.0
33112000000,168,33112000000,imu_link,0.000656906240582,-0.373139882253,0.000628698275,0.927774650163,0.0,0.0,0.0,0.0,0.0,0.0,0.0,0.0,0.0,-0.00276880082755,-0.00892047117968,8.1497592445e-05,0.0,0.0,0.0,0.0,0.0,0.0,0.0,0.0,0.0,6.45271432436,-0.00328204083832,7.14660670537,0.0,0.0,0.0,0.0,0.0,0.0,0.0,0.0,0.0
33116000000,169,33116000000,imu_link,0.000651350420497,-0.373157651673,0.000626659666646,0.927767508613,0.0,0.0,0.0,0.0,0.0,0.0,0.0,0.0,0.0,-0.00296085769657,-0.00957433054692,9.89458116683e-05,0.0,0.0,0.0,0.0,0.0,0.0,0.0,0.0,0.0,6.45381184755,-0.00299116215659,7.14633315744,0.0,0.0,0.0,0.0,0.0,0.0,0.0,0.0,0.0
33120000000,170,33120000000,imu_link,0.00064506949292,-0.373176318946,0.000624454481336,0.927760006101,0.0,0.0,0.0,0.0,0.0,0.0,0.0,0.0,0.0,-0.00332846678262,-0.0100580048381,0.000157368680707,0.0,0.0,0.0,0.0,0.0,0.0,0.0,0.0,0.0,6.45487154356,-0.0028177097239,7.14225672297,0.0,0.0,0.0,0.0,0.0,0.0,0.0,0.0,0.0
33124000000,171,33124000000,imu_link,0.000638103145362,-0.373195325602,0.000622053893035,0.927752367188,0.0,0.0,0.0,0.0,0.0,0.0,0.0,0.0,0.0,-0.00368294126091,-0.0102407373189,0.000194768444198,0.0,0.0,0.0,0.0,0.0,0.0,0.0,0.0,0.0,6.45600123391,-0.00278043765178,7.13637837007,0.0,0.0,0.0,0.0,0.0,0.0,0.0,0.0,0.0
33128000000,172,33128000000,imu_link,0.000630921990153,-0.373214337533,0.000619457934632,0.927744725918,0.0,0.0,0.0,0.0,0.0,0.0,0.0,0.0,0.0,-0.00381904190781,-0.0102436199832,0.000144225929073,0.0,0.0,0.0,0.0,0.0,0.0,0.0,0.0,0.0,6.45711807006,-0.00282034301268,7.13285901857,0.0,0.0,0.0,0.0,0.0,0.0,0.0,0.0,0.0
33132000000,173,33132000000,imu_link,0.000624309898986,-0.37323337732,0.000616689433615,0.927737072659,0.0,0.0,0.0,0.0,0.0,0.0,0.0,0.0,0.0,-0.00358727135973,-0.0102590092753,-4.19907503857e-05,0.0,0.0,0.0,0.0,0.0,0.0,0.0,0.0,0.0,6.45840587004,-0.00285055645475,7.13304315072,0.0,0.0,0.0,0.0,0.0,0.0,0.0,0.0,0.0
33136000000,174,33136000000,imu_link,0.000618634979349,-0.373252620903,0.00061378944624,0.92772933636,0.0,0.0,0.0,0.0,0.0,0.0,0.0,0.0,0.0,-0.00317712144084,-0.0103693708857,-0.000277785760765,0.0,0.0,0.0,0.0,0.0,0.0,0.0,0.0,0.0,6.45850759435,-0.00268092045364,7.13156003245,0.0,0.0,0.0,0.0,0.0,0.0,0.0,0.0,0.0
33140000000,175,33140000000,imu_link,0.000613909845231,-0.373272056933,0.000610761764593,0.927721521577,0.0,0.0,0.0,0.0,0.0,0.0,0.0,0.0,0.0,-0.0027604153914,-0.0104736177894,-0.000514189976597,0.0,0.0,0.0,0.0,0.0,0.0,0.0,0.0,0.0,6.45868520558,-0.00241658220762,7.12864270332,0.0,0.0,0.0,0.0,0.0,0.0,0.0,0.0,0.0
33144000000,176,33144000000,imu_link,0.00060993236353,-0.373291682669,0.000607609323435,0.927713629545,0.0,0.0,0.0,0.0,0.0,0.0,0.0,0.0,0.0,-0.0024369276127,-0.0105762996411,-0.000711518074004,0.0,0.0,0.0,0.0,0.0,0.0,0.0,0.0,0.0,6.45875248558,-0.0021255093702,7.12551671511,0.0,0.0,0.0,0.0,0.0,0.0,0.0,0.0,0.0
33148000000,177,33148000000,imu_link,0.000606334711184,-0.373311600629,0.000604303201247,0.927705619263,0.0,0.0,0.0,0.0,0.0,0.0,0.0,0.0,0.0,-0.00228947781982,-0.0107340824778,-0.000853572593233,0.0,0.0,0.0,0.0,0.0,0.0,0.0,0.0,0.0,6.46016854549,-0.00185034950384,7.12616275667,0.0,0.0,0.0,0.0,0.0,0.0,0.0,0.0,0.0
33152000000,178,33152000000,imu_link,0.000602937067005,-0.373332085586,0.000600793170731,0.927697380284,0.0,0.0,0.0,0.0,0.0,0.0,0.0,0.0,0.0,-0.00223486612699,-0.0110398953067,-0.00098524773299,0.0,0.0,0.0,0.0,0.0,0.0,0.0,0.0,0.0,6.46088721813,-0.00166610385293,7.12676854553,0.0,0.0,0.0,0.0,0.0,0.0,0.0,0.0,0.0
33156000000,179,33156000000,imu_link,0.000599735651635,-0.373353217772,0.000597081197361,0.927688880278,0.0,0.0,0.0,0.0,0.0,0.0,0.0,0.0,0.0,-0.00218165725875,-0.0113889566883,-0.00111527438517,0.0,0.0,0.0,0.0,0.0,0.0,0.0,0.0,0.0,6.46078642913,-0.00153583109967,7.12386020909,0.0,0.0,0.0,0.0,0.0,0.0,0.0,0.0,0.0
33160000000,180,33160000000,imu_link,0.000596755548761,-0.373374995726,0.000593179924404,0.927680119754,0.0,0.0,0.0,0.0,0.0,0.0,0.0,0.0,0.0,-0.00211445516035,-0.0117372481888,-0.00124412239278,0.0,0.0,0.0,0.0,0.0,0.0,0.0,0.0,0.0,6.46146140942,-0.00133090986612,7.12188667313,0.0,0.0,0.0,0.0,0.0,0.0,0.0,0.0,0.0
33164000000,181,33164000000,imu_link,0.000594156149501,-0.373397375592,0.000589114124982,0.927671116196,0.0,0.0,0.0,0.0,0.0,0.0,0.0,0.0,0.0,-0.00196869061143,-0.0120619722299,-0.00139125728445,0.0,0.0,0.0,0.0,0.0,0.0,0.0,0.0,0.0,6.46196264226,-0.00113421188687,7.11952875181,0.0,0.0,0.0,0.0,0.0,0.0,0.0,0.0,0.0
33168000000,182,33168000000,imu_link,0.000592330502797,-0.373420346638,0.000584930866186,0.927661873593,0.0,0.0,0.0,0.0,0.0,0.0,0.0,0.0,0.0,-0.00163182929512,-0.0123810746708,-0.00158995166642,0.0,0.0,0.0,0.0,0.0,0.0,0.0,0.0,0.0,6.46458085394,-0.00100549573487,7.12148778259,0.0,0.0,0.0,0.0,0.0,0.0,0.0,0.0,0.0
33172000000,183,33172000000,imu_link,0.000591584554623,-0.373443898681,0.000580668061485,0.927652395777,0.0,0.0,0.0,0.0,0.0,0.0,0.0,0.0,0.0,-0.00114598400403,-0.0126948151182,-0.00182819735551,0.0,0.0,0.0,0.0,0.0,0.0,0.0,0.0,0.0,6.46668385154,-0.000817842599377,7.122451207,0.0,0.0,0.0,0.0,0.0,0.0,0.0,0.0,0.0
33176000000,184,33176000000,imu_link,0.000592089809106,-0.373467724801,0.000576368452928,0.927642806128,0.0,0.0,0.0,0.0,0.0,0.0,0.0,0.0,0.0,-0.000572562015171,-0.0128431952994,-0.00207878140846,0.0,0.0,0.0,0.0,0.0,0.0,0.0,0.0,0.0,6.46748086732,-0.000574909852285,7.11831225774,0.0,0.0,0.0,0.0,0.0,0.0,0.0,0.0,0.0
33180000000,185,33180000000,imu_link,0.000593910855718,-0.373491479341,0.000572078039018,0.927633243721,0.0,0.0,0.0,0.0,0.0,0.0,0.0,0.0,0.0,3.94600521744e-05,-0.0128052841838,-0.00232024872196,0.0,0.0,0.0,0.0,0.0,0.0,0.0,0.0,0.0,6.46812570059,-0.000286649984526,7.11360431902,0.0,0.0,0.0,0.0,0.0,0.0,0.0,0.0,0.0
33184000000,186,33184000000,imu_link,0.000597244206161,-0.373514946348,0.000567869859775,0.927623795338,0.0,0.0,0.0,0.0,0.0,0.0,0.0,0.0,0.0,0.000756297065492,-0.0126510364277,-0.00256464121462,0.0,0.0,0.0,0.0,0.0,0.0,0.0,0.0,0.0,6.46995921104,-1.2807456927e-05,7.11233847949,0.0,0.0,0.0,0.0,0.0,0.0,0.0,0.0,0.0
33188000000,187,33188000000,imu_link,0.000602227685115,-0.373538043061,0.000563789005632,0.9276144942,0.0,0.0,0.0,0.0,0.0,0.0,0.0,0.0,0.0,0.00154548638466,-0.0124522209758,-0.00281391253482,0.0,0.0,0.0,0.0,0.0,0.0,0.0,0.0,0.0,6.47146953293,0.000268525506717,7.11163957968,0.0,0.0,0.0,0.0,0.0,0.0,0.0,0.0,0.0
33192000000,188,33192000000,imu_link,0.000608738729497,-0.373560714319,0.000559864705522,0.92760536259,0.0,0.0,0.0,0.0,0.0,0.0,0.0,0.0,0.0,0.00228329063084,-0.0122236126704,-0.00302677943994,0.0,0.0,0.0,0.0,0.0,0.0,0.0,0.0,0.0,6.47287838301,0.000599607579149,7.11119704988,0.0,0.0,0.0,0.0,0.0,0.0,0.0,0.0,0.0
33196000000,189,33196000000,imu_link,0.000616399032434,-0.373583052405,0.000556102182891,0.927596363597,0.0,0.0,0.0,0.0,0.0,0.0,0.0,0.0,0.0,0.00284658958684,-0.0120445885848,-0.0031665440661,0.0,0.0,0.0,0.0,0.0,0.0,0.0,0.0,0.0,6.47355080022,0.000934282626092,7.11058684988,0.0,0.0,0.0,0.0,0.0,0.0,0.0,0.0,0.0
33200000000,190,33200000000,imu_link,0.000624822672989,-0.37360528612,0.000552473356399,0.927587405344,0.0,0.0,0.0,0.0,0.0,0.0,0.0,0.0,0.0,0.00322561395619,-0.0119887428889,-0.00324716453371,0.0,0.0,0.0,0.0,0.0,0.0,0.0,0.0,0.0,6.47449755803,0.00121102376488,7.11152736442,0.0,0.0,0.0,0.0,0.0,0.0,0.0,0.0,0.0
33204000000,191,33204000000,imu_link,0.000633883890573,-0.373627887224,0.000548960888021,0.927578297893,0.0,0.0,0.0,0.0,0.0,0.0,0.0,0.0,0.0,0.00354299929589,-0.0121871463359,-0.00331214345621,0.0,0.0,0.0,0.0,0.0,0.0,0.0,0.0,0.0,6.4756958679,0.00145498501732,7.11476020109,0.0,0.0,0.0,0.0,0.0,0.0,0.0,0.0,0.0
33208000000,192,33208000000,imu_link,0.00064359543913,-0.373651181254,0.00054554434077,0.927568910062,0.0,0.0,0.0,0.0,0.0,0.0,0.0,0.0,0.0,0.00386243381771,-0.0125610441946,-0.00338885059665,0.0,0.0,0.0,0.0,0.0,0.0,0.0,0.0,0.0,6.47673875495,0.00161535761804,7.11662762605,0.0,0.0,0.0,0.0,0.0,0.0,0.0,0.0,0.0
33212000000,193,33212000000,imu_link,0.000654344934921,-0.373675133906,0.00054221426193,0.927559255324,0.0,0.0,0.0,0.0,0.0,0.0,0.0,0.0,0.0,0.00435987835879,-0.01291662384,-0.00354237824889,0.0,0.0,0.0,0.0,0.0,0.0,0.0,0.0,0.0,6.47782032631,0.00166390352014,7.11589840019,0.0,0.0,0.0,0.0,0.0,0.0,0.0,0.0,0.0
33216000000,194,33216000000,imu_link,0.000666398564419,-0.373699429084,0.000538943690855,0.927549460759,0.0,0.0,0.0,0.0,0.0,0.0,0.0,0.0,0.0,0.0049757801762,-0.0131019390563,-0.00375829095553,0.0,0.0,0.0,0.0,0.0,0.0,0.0,0.0,0.0,6.47842513744,0.00179323243401,7.11178101865,0.0,0.0,0.0,0.0,0.0,0.0,0.0,0.0,0.0
33220000000,195,33220000000,imu_link,0.000679570177335,-0.373723871733,0.000535704104619,0.927539605032,0.0,0.0,0.0,0.0,0.0,0.0,0.0,0.0,0.0,0.00550004278334,-0.0131820515998,-0.00395275023389,0.0,0.0,0.0,0.0,0.0,0.0,0.0,0.0,0.0,6.47930159842,0.00203419707564,7.1092493791,0.0,0.0,0.0,0.0,0.0,0.0,0.0,0.0,0.0
33224000000,196,33224000000,imu_link,0.000693330353681,-0.373748318644,0.000532471382678,0.927529746196,0.0,0.0,0.0,0.0,0.0,0.0,0.0,0.0,0.0,0.0057742833192,-0.0131847644054,-0.00405954460272,0.0,0.0,0.0,0.0,0.0,0.0,0.0,0.0,0.0,6.4803882692,0.00230563504312,7.10794948377,0.0,0.0,0.0,0.0,0.0,0.0,0.0,0.0,0.0
33228000000,197,33228000000,imu_link,0.000706817928921,-0.373772716976,0.000529187878634,0.927519906209,0.0,0.0,0.0,0.0,0.0,0.0,0.0,0.0,0.0,0.00563837703879,-0.0131586578292,-0.00403217531451,0.0,0.0,0.0,0.0,0.0,0.0,0.0,0.0,0.0,6.48305196815,0.0025634320223,7.11032000672,0.0,0.0,0.0,0.0,0.0,0.0,0.0,0.0,0.0
33232000000,198,33232000000,imu_link,0.000719631957046,-0.373797073053,0.00052589487197,0.927510082825,0.0,0.0,0.0,0.0,0.0,0.0,0.0,0.0,0.0,0.00532424226211,-0.0131357840805,-0.00391072480775,0.0,0.0,0.0,0.0,0.0,0.0,0.0,0.0,0.0,6.48445773822,0.00260486959286,7.11022891549,0.0,0.0,0.0,0.0,0.0,0.0,0.0,0.0,0.0
33236000000,199,33236000000,imu_link,0.000731887417692,-0.373821535609,0.000522662272668,0.927500216,0.0,0.0,0.0,0.0,0.0,0.0,0.0,0.0,0.0,0.00507648145777,-0.0131931142661,-0.00377826540913,0.0,0.0,0.0,0.0,0.0,0.0,0.0,0.0,0.0,6.48499399016,0.00252983443661,7.10918603767,0.0,0.0,0.0,0.0,0.0,0.0,0.0,0.0,0.0
33240000000,200,33240000000,imu_link,0.000743833182192,-0.373846377029,0.000519569348826,0.927490195712,0.0,0.0,0.0,0.0,0.0,0.0,0.0,0.0,0.0,0.00495892383345,-0.0133973644954,-0.0036554266078,0.0,0.0,0.0,0.0,0.0,0.0,0.0,0.0,0.0,6.48552878855,0.00245740685124,7.10931233223,0.0,0.0,0.0,0.0,0.0,0.0,0.0,0.0,0.0
33244000000,201,33244000000,imu_link,0.000755322323844,-0.37387169458,0.000516597407554,0.927479982861,0.0,0.0,0.0,0.0,0.0,0.0,0.0,0.0,0.0,0.00476972960042,-0.013653998935,-0.00351374102864,0.0,0.0,0.0,0.0,0.0,0.0,0.0,0.0,0.0,6.48498462436,0.00248931236182,7.10592963436,0.0,0.0,0.0,0.0,0.0,0.0,0.0,0.0,0.0
33248000000,202,33248000000,imu_link,0.000765630249601,-0.37389733014,0.000513691313911,0.927469641792,0.0,0.0,0.0,0.0,0.0,0.0,0.0,0.0,0.0,0.00423422811473,-0.0138251107963,-0.00326224003768,0.0,0.0,0.0,0.0,0.0,0.0,0.0,0.0,0.0,6.486837521,0.00259658329191,7.10522356494,0.0,0.0,0.0,0.0,0.0,0.0,0.0,0.0,0.0
33252000000,203,33252000000,imu_link,0.000774108382954,-0.373922913007,0.000510799611802,0.927459322541,0.0,0.0,0.0,0.0,0.0,0.0,0.0,0.0,0.0,0.0033883853212,-0.013796121323,-0.00291351471033,0.0,0.0,0.0,0.0,0.0,0.0,0.0,0.0,0.0,6.48814554964,0.00259242542946,7.10162208406,0.0,0.0,0.0,0.0,0.0,0.0,0.0,0.0,0.0
33256000000,204,33256000000,imu_link,0.000780633693003,-0.373948059515,0.000507898135829,0.927449179975,0.0,0.0,0.0,0.0,0.0,0.0,0.0,0.0,0.0,0.00248101895568,-0.0135602398941,-0.0025531584716,0.0,0.0,0.0,0.0,0.0,0.0,0.0,0.0,0.0,6.48783023573,0.00236704582214,7.09519607459,0.0,0.0,0.0,0.0,0.0,0.0,0.0,0.0,0.0
33260000000,205,33260000000,imu_link,0.000785478979584,-0.373972618735,0.000504987916495,0.927439274803,0.0,0.0,0.0,0.0,0.0,0.0,0.0,0.0,0.0,0.00170037246171,-0.0132430908101,-0.00224338173875,0.0,0.0,0.0,0.0,0.0,0.0,0.0,0.0,0.0,6.48737420757,0.0019851707624,7.09064715684,0.0,0.0,0.0,0.0,0.0,0.0,0.0,0.0,0.0
33264000000,206,33264000000,imu_link,0.00078926155898,-0.373996693671,0.000502123922377,0.927429565013,0.0,0.0,0.0,0.0,0.0,0.0,0.0,0.0,0.0,0.00121626329822,-0.0129816980814,-0.00202347403478,0.0,0.0,0.0,0.0,0.0,0.0,0.0,0.0,0.0,6.48729111224,0.00164512836147,7.08909789972,0.0,0.0,0.0,0.0,0.0,0.0,0.0,0.0,0.0
33268000000,207,33268000000,imu_link,0.000792460930187,-0.374020535119,0.000499365388207,0.927419949079,0.0,0.0,0.0,0.0,0.0,0.0,0.0,0.0,0.0,0.000965563456967,-0.0128556877427,-0.00186562743489,0.0,0.0,0.0,0.0,0.0,0.0,0.0,0.0,0.0,6.4884485455,0.00144771351359,7.09134684523,0.0,0.0,0.0,0.0,0.0,0.0,0.0,0.0,0.0
33272000000,208,33272000000,imu_link,0.000795324011049,-0.374044370625,0.000496687385926,0.927410335054,0.0,0.0,0.0,0.0,0.0,0.0,0.0,0.0,0.0,0.000824683287029,-0.0128524590075,-0.00176539707893,0.0,0.0,0.0,0.0,0.0,0.0,0.0,0.0,0.0,6.48847122008,0.00140305133933,7.09082646116,0.0,0.0,0.0,0.0,0.0,0.0,0.0,0.0,0.0
33276000000,209,33276000000,imu_link,0.000798217000922,-0.374068356983,0.000494070579279,0.927400659396,0.0,0.0,0.0,0.0,0.0,0.0,0.0,0.0,0.0,0.000849984237441,-0.0129339201306,-0.00174253870133,0.0,0.0,0.0,0.0,0.0,0.0,0.0,0.0,0.0,6.48904778345,0.00136697947394,7.09060630504,0.0,0.0,0.0,0.0,0.0,0.0,0.0,0.0,0.0
33280000000,210,33280000000,imu_link,0.000801799544282,-0.374092467792,0.000491529208922,0.927390932163,0.0,0.0,0.0,0.0,0.0,0.0,0.0,0.0,0.0,0.00118382942115,-0.013001414476,-0.00183646652853,0.0,0.0,0.0,0.0,0.0,0.0,0.0,0.0,0.0,6.49065232748,0.00135337801455,7.09101398157,0.0,0.0,0.0,0.0,0.0,0.0,0.0,0.0,0.0
33284000000,211,33284000000,imu_link,0.000806506747412,-0.374116393782,0.000489104206996,0.927381277699,0.0,0.0,0.0,0.0,0.0,0.0,0.0,0.0,0.0,0.00172711158331,-0.0129023329058,-0.0019929623678,0.0,0.0,0.0,0.0,0.0,0.0,0.0,0.0,0.0,6.49162067618,0.0014683633597,7.08746100494,0.0,0.0,0.0,0.0,0.0,0.0,0.0,0.0,0.0
33288000000,212,33288000000,imu_link,0.000812370936564,-0.374139738637,0.000486850343943,0.927371855839,0.0,0.0,0.0,0.0,0.0,0.0,0.0,0.0,0.0,0.00229565641983,-0.0125895696481,-0.00213032182179,0.0,0.0,0.0,0.0,0.0,0.0,0.0,0.0,0.0,6.49244945863,0.00169501226835,7.08265009752,0.0,0.0,0.0,0.0,0.0,0.0,0.0,0.0,0.0
33292000000,213,33292000000,imu_link,0.000818826773929,-0.37416211736,0.00048478918743,0.927362822435,0.0,0.0,0.0,0.0,0.0,0.0,0.0,0.0,0.0,0.00260612235346,-0.0120689857939,-0.00215213305263,0.0,0.0,0.0,0.0,0.0,0.0,0.0,0.0,0.0,6.49382370378,0.00201213040678,7.079235355,0.0,0.0,0.0,0.0,0.0,0.0,0.0,0.0,0.0
33296000000,214,33296000000,imu_link,0.000824989082588,-0.37418332696,0.000482913391041,0.927354260255,0.0,0.0,0.0,0.0,0.0,0.0,0.0,0.0,0.0,0.00250478638053,-0.0114385806735,-0.00201186422494,0.0,0.0,0.0,0.0,0.0,0.0,0.0,0.0,0.0,6.4950536051,0.00236424601442,7.07740071161,0.0,0.0,0.0,0.0,0.0,0.0,0.0,0.0,0.0
33300000000,215,33300000000,imu_link,0.00083020533803,-0.374203412785,0.000481162556717,0.927346151715,0.0,0.0,0.0,0.0,0.0,0.0,0.0,0.0,0.0,0.00208958671876,-0.0108323596006,-0.00177749658857,0.0,0.0,0.0,0.0,0.0,0.0,0.0,0.0,0.0,6.49569762383,0.00251587031429,7.07670427511,0.0,0.0,0.0,0.0,0.0,0.0,0.0,0.0,0.0
33304000000,216,33304000000,imu_link,0.000834214847297,-0.374222576416,0.0004794601117,0.927338415846,0.0,0.0,0.0,0.0,0.0,0.0,0.0,0.0,0.0,0.00153917189655,-0.0103347249454,-0.00152974796441,0.0,0.0,0.0,0.0,0.0,0.0,0.0,0.0,0.0,6.49578105583,0.00243105435494,7.07613448616,0.0,0.0,0.0,0.0,0.0,0.0,0.0,0.0,0.0
33308000000,217,33308000000,imu_link,0.000837183001829,-0.374241071912,0.000477833070754,0.927330950036,0.0,0.0,0.0,0.0,0.0,0.0,0.0,0.0,0.0,0.00107048425233,-0.00997411996665,-0.00130027961688,0.0,0.0,0.0,0.0,0.0,0.0,0.0,0.0,0.0,6.49583251702,0.00226649594681,7.07595554349,0.0,0.0,0.0,0.0,0.0,0.0,0.0,0.0,0.0
33312000000,218,33312000000,imu_link,0.000839096764099,-0.374258857909,0.000476293422126,0.927323771041,0.0,0.0,0.0,0.0,0.0,0.0,0.0,0.0,0.0,0.000598001312849,-0.00959119160053,-0.00106282588619,0.0,0.0,0.0,0.0,0.0,0.0,0.0,0.0,0.0,6.49558767475,0.00216438305196,7.07270039148,0.0,0.0,0.0,0.0,0.0,0.0,0.0,0.0,0.0
33316000000,219,33316000000,imu_link,0.000839646571736,-0.37427570377,0.000474807116455,0.927316972302,0.0,0.0,0.0,0.0,0.0,0.0,0.0,0.0,0.0,-2.43660721278e-05,-0.0090837824013,-0.000783341728195,0.0,0.0,0.0,0.0,0.0,0.0,0.0,0.0,0.0,6.49576434955,0.00212257169114,7.06865561917,0.0,0.0,0.0,0.0,0.0,0.0,0.0,0.0,0.0
33320000000,220,33320000000,imu_link,0.000838347581103,-0.374291269991,0.000473329821581,0.927310691376,0.0,0.0,0.0,0.0,0.0,0.0,0.0,0.0,0.0,-0.000879804417159,-0.00839312123495,-0.00043384381233,0.0,0.0,0.0,0.0,0.0,0.0,0.0,0.0,0.0,6.49687921447,0.00206226915545,7.06552455456,0.0,0.0,0.0,0.0,0.0,0.0,0.0,0.0,0.0
33324000000,221,33324000000,imu_link,0.000835115591602,-0.374305227765,0.000471859042821,0.927305061131,0.0,0.0,0.0,0.0,0.0,0.0,0.0,0.0,0.0,-0.00177472229865,-0.00752512408426,-6.98984923739e-05,0.0,0.0,0.0,0.0,0.0,0.0,0.0,0.0,0.0,6.49819176811,0.00184944592428,7.06251506404,0.0,0.0,0.0,0.0,0.0,0.0,0.0,0.0,0.0
33328000000,222,33328000000,imu_link,0.000830361988047,-0.374317632418,0.000470435496819,0.927300058908,0.0,0.0,0.0,0.0,0.0,0.0,0.0,0.0,0.0,-0.00247127857965,-0.00668710050601,0.000235978456002,0.0,0.0,0.0,0.0,0.0,0.0,0.0,0.0,0.0,6.49817563773,0.00156616149285,7.06052912462,0.0,0.0,0.0,0.0,0.0,0.0,0.0,0.0,0.0
33332000000,223,33332000000,imu_link,0.000824764631578,-0.374328963255,0.000469107096597,0.927295490645,0.0,0.0,0.0,0.0,0.0,0.0,0.0,0.0,0.0,-0.002844604863,-0.00610776858084,0.00043746069317,0.0,0.0,0.0,0.0,0.0,0.0,0.0,0.0,0.0,6.5011035487,0.00131925040509,7.06797162899,0.0,0.0,0.0,0.0,0.0,0.0,0.0,0.0,0.0
33336000000,224,33336000000,imu_link,0.000818758757629,-0.374339829873,0.000467877975269,0.927291109897,0.0,0.0,0.0,0.0,0.0,0.0,0.0,0.0,0.0,-0.00301540003274,-0.00585730159139,0.000559715673203,0.0,0.0,0.0,0.0,0.0,0.0,0.0,0.0,0.0,6.50257935621,0.00120495781132,7.07344572965,0.0,0.0,0.0,0.0,0.0,0.0,0.0,0.0,0.0
33340000000,225,33340000000,imu_link,0.000812552400895,-0.374350660549,0.0004667536436,0.927286743595,0.0,0.0,0.0,0.0,0.0,0.0,0.0,0.0,0.0,-0.00308873701814,-0.00583784365149,0.000645807185535,0.0,0.0,0.0,0.0,0.0,0.0,0.0,0.0,0.0,6.50318561176,0.00126379519607,7.07535455402,0.0,0.0,0.0,0.0,0.0,0.0,0.0,0.0,0.0
33344000000,226,33344000000,imu_link,0.000806357643276,-0.374361404168,0.000465751604937,0.927282412177,0.0,0.0,0.0,0.0,0.0,0.0,0.0,0.0,0.0,-0.00306046278779,-0.00579090355758,0.000700292947964,0.0,0.0,0.0,0.0,0.0,0.0,0.0,0.0,0.0,6.50295929839,0.00136564166758,7.07158976705,0.0,0.0,0.0,0.0,0.0,0.0,0.0,0.0,0.0
33348000000,227,33348000000,imu_link,0.000800570667091,-0.374371921223,0.00046489474567,0.927278171618,0.0,0.0,0.0,0.0,0.0,0.0,0.0,0.0,0.0,-0.00284420760148,-0.00566888884806,0.000691162778929,0.0,0.0,0.0,0.0,0.0,0.0,0.0,0.0,0.0,6.50419987279,0.00142275519414,7.07008752911,0.0,0.0,0.0,0.0,0.0,0.0,0.0,0.0,0.0
33352000000,228,33352000000,imu_link,0.00079544155074,-0.374382239813,0.000464183807437,0.927274010376,0.0,0.0,0.0,0.0,0.0,0.0,0.0,0.0,0.0,-0.00251186931739,-0.00556212020549,0.000635577469269,0.0,0.0,0.0,0.0,0.0,0.0,0.0,0.0,0.0,6.50496902697,0.00151711634807,7.06918193568,0.0,0.0,0.0,0.0,0.0,0.0,0.0,0.0,0.0
33356000000,229,33356000000,imu_link,0.000790914264023,-0.374392605083,0.000463584472833,0.927269829555,0.0,0.0,0.0,0.0,0.0,0.0,0.0,0.0,0.0,-0.00221195066691,-0.00558752248174,0.000574686987256,0.0,0.0,0.0,0.0,0.0,0.0,0.0,0.0,0.0,6.50491003828,0.00169693758803,7.06843445359,0.0,0.0,0.0,0.0,0.0,0.0,0.0,0.0,0.0
33360000000,230,33360000000,imu_link,0.000786934102409,-0.374403201997,0.000463066167215,0.927265554541,0.0,0.0,0.0,0.0,0.0,0.0,0.0,0.0,0.0,-0.00194313248375,-0.00571264853813,0.000509948496817,0.0,0.0,0.0,0.0,0.0,0.0,0.0,0.0,0.0,6.50506078094,0.00187300370334,7.06740856639,0.0,0.0,0.0,0.0,0.0,0.0,0.0,0.0,0.0
33364000000,231,33364000000,imu_link,0.000783597645344,-0.374413943451,0.000462651345158,0.927261220411,0.0,0.0,0.0,0.0,0.0,0.0,0.0,0.0,0.0,-0.00162532787293,-0.0057908373963,0.000437494904784,0.0,0.0,0.0,0.0,0.0,0.0,0.0,0.0,0.0,6.50531757872,0.00201134398147,7.06410906004,0.0,0.0,0.0,0.0,0.0,0.0,0.0,0.0,0.0
33368000000,232,33368000000,imu_link,0.000781141327484,-0.374424489349,0.000462400894042,0.927256964266,0.0,0.0,0.0,0.0,0.0,0.0,0.0,0.0,0.0,-0.00118648232761,-0.00568571104023,0.000348839450744,0.0,0.0,0.0,0.0,0.0,0.0,0.0,0.0,0.0,6.50662598393,0.00212474341352,7.06062536478,0.0,0.0,0.0,0.0,0.0,0.0,0.0,0.0,0.0
33372000000,233,33372000000,imu_link,0.000779697419083,-0.374434467894,0.00046234874542,0.927252936128,0.0,0.0,0.0,0.0,0.0,0.0,0.0,0.0,0.0,-0.000679933692974,-0.00538014072602,0.000250968380399,0.0,0.0,0.0,0.0,0.0,0.0,0.0,0.0,0.0,6.50775035947,0.00228365257131,7.05672615689,0.0,0.0,0.0,0.0,0.0,0.0,0.0,0.0,0.0
33380000000,234,33380000000,imu_link,0.000780295542667,-0.374452812896,0.000462766680829,0.927245527301,0.0,0.0,0.0,0.0,0.0,0.0,0.0,0.0,0.0,0.000461259880379,-0.00485924318815,-3.07236324741e-05,0.0,0.0,0.0,0.0,0.0,0.0,0.0,0.0,0.0,6.50926118679,0.0025634886061,7.05625243441,0.0,0.0,0.0,0.0,0.0,0.0,0.0,0.0,0.0
33384000000,235,33384000000,imu_link,0.000782212652335,-0.374462100327,0.00046316212069,0.927241774859,0.0,0.0,0.0,0.0,0.0,0.0,0.0,0.0,0.0,0.000962167516704,-0.005008709881,-0.00017110690933,0.0,0.0,0.0,0.0,0.0,0.0,0.0,0.0,0.0,6.51073686533,0.0029119284329,7.0617354568,0.0,0.0,0.0,0.0,0.0,0.0,0.0,0.0,0.0
33388000000,236,33388000000,imu_link,0.000784961966162,-0.374472164413,0.000463679544844,0.927237707881,0.0,0.0,0.0,0.0,0.0,0.0,0.0,0.0,0.0,0.00137077715338,-0.00542781963638,-0.000269990306574,0.0,0.0,0.0,0.0,0.0,0.0,0.0,0.0,0.0,6.51315711764,0.00318056024426,7.06783449971,0.0,0.0,0.0,0.0,0.0,0.0,0.0,0.0,0.0
33392000000,237,33392000000,imu_link,0.000788250903061,-0.374483077484,0.000464299050493,0.927233297377,0.0,0.0,0.0,0.0,0.0,0.0,0.0,0.0,0.0,0.00164000792159,-0.00588582995827,-0.000323287457958,0.0,0.0,0.0,0.0,0.0,0.0,0.0,0.0,0.0,6.51260934679,0.00340288675764,7.06455894301,0.0,0.0,0.0,0.0,0.0,0.0,0.0,0.0,0.0
33396000000,238,33396000000,imu_link,0.000791805285761,-0.374494766487,0.000464988326635,0.927228573063,0.0,0.0,0.0,0.0,0.0,0.0,0.0,0.0,0.0,0.00177608049722,-0.00630435812524,-0.000340264509804,0.0,0.0,0.0,0.0,0.0,0.0,0.0,0.0,0.0,6.51279924739,0.00352875568241,7.06142001194,0.0,0.0,0.0,0.0,0.0,0.0,0.0,0.0,0.0
33400000000,239,33400000000,imu_link,0.000795450144455,-0.374507192717,0.000465719894863,0.927223550697,0.0,0.0,0.0,0.0,0.0,0.0,0.0,0.0,0.0,0.00182589214094,-0.00670196010555,-0.000337237523097,0.0,0.0,0.0,0.0,0.0,0.0,0.0,0.0,0.0,6.51306195425,0.00360284230223,7.05897809099,0.0,0.0,0.0,0.0,0.0,0.0,0.0,0.0,0.0
33404000000,240,33404000000,imu_link,0.000798978665589,-0.374520329682,0.000466470057308,0.927218241135,0.0,0.0,0.0,0.0,0.0,0.0,0.0,0.0,0.0,0.00177538723635,-0.0070852095791,-0.000306482844564,0.0,0.0,0.0,0.0,0.0,0.0,0.0,0.0,0.0,6.5129308381,0.00365728580757,7.05582058054,0.0,0.0,0.0,0.0,0.0,0.0,0.0,0.0,0.0
33408000000,241,33408000000,imu_link,0.000801953630907,-0.374534089795,0.000467168432549,0.927212680136,0.0,0.0,0.0,0.0,0.0,0.0,0.0,0.0,0.0,0.00150901113678,-0.00742108259196,-0.000226525326289,0.0,0.0,0.0,0.0,0.0,0.0,0.0,0.0,0.0,6.51528696981,0.00373236920533,7.05699550001,0.0,0.0,0.0,0.0,0.0,0.0,0.0,0.0,0.0
33412000000,242,33412000000,imu_link,0.000803988533169,-0.374548403443,0.000467764534053,0.927206896155,0.0,0.0,0.0,0.0,0.0,0.0,0.0,0.0,0.0,0.00105399955753,-0.00771928293697,-9.76232092444e-05,0.0,0.0,0.0,0.0,0.0,0.0,0.0,0.0,0.0,6.5166399756,0.00372531959344,7.05629686893,0.0,0.0,0.0,0.0,0.0,0.0,0.0,0.0,0.0
33416000000,243,33416000000,imu_link,0.000804596197771,-0.374563235528,0.000468222051198,0.927200903787,0.0,0.0,0.0,0.0,0.0,0.0,0.0,0.0,0.0,0.000366336498858,-0.00799837982162,0.000105670544641,0.0,0.0,0.0,0.0,0.0,0.0,0.0,0.0,0.0,6.51771327807,0.00367802302298,7.05541395556,0.0,0.0,0.0,0.0,0.0,0.0,0.0,0.0,0.0
33420000000,244,33420000000,imu_link,0.000803290413735,-0.374578689723,0.000468472064679,0.927194661581,0.0,0.0,0.0,0.0,0.0,0.0,0.0,0.0,0.0,-0.000559645909776,-0.00833321608878,0.00036813427216,0.0,0.0,0.0,0.0,0.0,0.0,0.0,0.0,0.0,6.51895319456,0.00357600900749,7.0559880391,0.0,0.0,0.0,0.0,0.0,0.0,0.0,0.0,0.0
33424000000,245,33424000000,imu_link,0.00079989464375,-0.374594905287,0.000468472457716,0.927188113403,0.0,0.0,0.0,0.0,0.0,0.0,0.0,0.0,0.0,-0.00157536451479,-0.00874310086307,0.000644220469546,0.0,0.0,0.0,0.0,0.0,0.0,0.0,0.0,0.0,6.52002519791,0.00336204864802,7.0563330065,0.0,0.0,0.0,0.0,0.0,0.0,0.0,0.0,0.0
33428000000,246,33428000000,imu_link,0.000794642215256,-0.374611851501,0.000468222836847,0.927181271395,0.0,0.0,0.0,0.0,0.0,0.0,0.0,0.0,0.0,-0.002482980961,-0.00913652390423,0.00087642396465,0.0,0.0,0.0,0.0,0.0,0.0,0.0,0.0,0.0,6.52166908772,0.00304597729779,7.05633081985,0.0,0.0,0.0,0.0,0.0,0.0,0.0,0.0,0.0
33432000000,247,33432000000,imu_link,0.000788143557676,-0.37462917686,0.000467782850618,0.927174276959,0.0,0.0,0.0,0.0,0.0,0.0,0.0,0.0,0.0,-0.00309640585434,-0.00934062728127,0.0010217847874,0.0,0.0,0.0,0.0,0.0,0.0,0.0,0.0,0.0,6.52350221228,0.00277464658705,7.05387675479,0.0,0.0,0.0,0.0,0.0,0.0,0.0,0.0,0.0
33436000000,248,33436000000,imu_link,0.000781303373002,-0.374646445356,0.000467219073752,0.927167305427,0.0,0.0,0.0,0.0,0.0,0.0,0.0,0.0,0.0,-0.00327791694123,-0.0093099443996,0.00102834228118,0.0,0.0,0.0,0.0,0.0,0.0,0.0,0.0,0.0,6.52601867007,0.00255999212874,7.05245504857,0.0,0.0,0.0,0.0,0.0,0.0,0.0,0.0,0.0
33440000000,249,33440000000,imu_link,0.000774762466939,-0.374663447241,0.000466569452965,0.927160441001,0.0,0.0,0.0,0.0,0.0,0.0,0.0,0.0,0.0,-0.00315523638766,-0.0091663882247,0.000932355436662,0.0,0.0,0.0,0.0,0.0,0.0,0.0,0.0,0.0,6.52713449539,0.00249403877555,7.05056955336,0.0,0.0,0.0,0.0,0.0,0.0,0.0,0.0,0.0
33444000000,250,33444000000,imu_link,0.00076857345121,-0.374680297686,0.00046583082444,0.927153637119,0.0,0.0,0.0,0.0,0.0,0.0,0.0,0.0,0.0,-0.00300876908677,-0.00908495813383,0.000825100197382,0.0,0.0,0.0,0.0,0.0,0.0,0.0,0.0,0.0,6.52636585629,0.00260847300756,7.04782911543,0.0,0.0,0.0,0.0,0.0,0.0,0.0,0.0,0.0
33448000000,251,33448000000,imu_link,0.000762293821562,-0.374697319806,0.000464939492934,0.927146763608,0.0,0.0,0.0,0.0,0.0,0.0,0.0,0.0,0.0,-0.00307939622654,-0.00917762495341,0.00077136845091,0.0,0.0,0.0,0.0,0.0,0.0,0.0,0.0,0.0,6.52755999835,0.0028088557388,7.05065156013,0.0,0.0,0.0,0.0,0.0,0.0,0.0,0.0,0.0
33452000000,252,33452000000,imu_link,0.000755633530065,-0.374714409792,0.000463878013162,0.927139862658,0.0,0.0,0.0,0.0,0.0,0.0,0.0,0.0,0.0,-0.00328774329513,-0.00921420261646,0.000763840976659,0.0,0.0,0.0,0.0,0.0,0.0,0.0,0.0,0.0,6.52786046077,0.00292729324027,7.04785080205,0.0,0.0,0.0,0.0,0.0,0.0,0.0,0.0,0.0
33456000000,253,33456000000,imu_link,0.000748589830668,-0.374731072865,0.000462651546171,0.927133134235,0.0,0.0,0.0,0.0,0.0,0.0,0.0,0.0,0.0,-0.00349635737941,-0.00898394784455,0.00075899078464,0.0,0.0,0.0,0.0,0.0,0.0,0.0,0.0,0.0,6.52955302903,0.00296596325733,7.0442065456,0.0,0.0,0.0,0.0,0.0,0.0,0.0,0.0,0.0
33460000000,254,33460000000,imu_link,0.000741529148685,-0.374746665583,0.000461305277806,0.927126838122,0.0,0.0,0.0,0.0,0.0,0.0,0.0,0.0,0.0,-0.00352659079797,-0.00840680788778,0.00070613619114,0.0,0.0,0.0,0.0,0.0,0.0,0.0,0.0,0.0,6.53140307085,0.00293910792069,7.03950098109,0.0,0.0,0.0,0.0,0.0,0.0,0.0,0.0,0.0
33464000000,255,33464000000,imu_link,0.000735058983634,-0.374760944901,0.000459879481051,0.927121072124,0.0,0.0,0.0,0.0,0.0,0.0,0.0,0.0,0.0,-0.00326764385802,-0.00769879997052,0.000558013378522,0.0,0.0,0.0,0.0,0.0,0.0,0.0,0.0,0.0,6.53249794618,0.00292392023653,7.03760847546,0.0,0.0,0.0,0.0,0.0,0.0,0.0,0.0,0.0
33468000000,256,33468000000,imu_link,0.000729491345336,-0.374774184654,0.000458424333843,0.927115725358,0.0,0.0,0.0,0.0,0.0,0.0,0.0,0.0,0.0,-0.002854682817,-0.0071385608841,0.000374813308418,0.0,0.0,0.0,0.0,0.0,0.0,0.0,0.0,0.0,6.53345958845,0.00302787831915,7.03972371954,0.0,0.0,0.0,0.0,0.0,0.0,0.0,0.0,0.0
33472000000,257,33472000000,imu_link,0.000724651954364,-0.374786785622,0.000456946311218,0.92711063601,0.0,0.0,0.0,0.0,0.0,0.0,0.0,0.0,0.0,-0.00252133207503,-0.0067943857119,0.000227453082709,0.0,0.0,0.0,0.0,0.0,0.0,0.0,0.0,0.0,6.53414637358,0.00324509639787,7.04219450126,0.0,0.0,0.0,0.0,0.0,0.0,0.0,0.0,0.0
33476000000,258,33476000000,imu_link,0.000720082662657,-0.374799158703,0.000455429457321,0.927105638371,0.0,0.0,0.0,0.0,0.0,0.0,0.0,0.0,0.0,-0.00240338401174,-0.00667163797155,0.000158734300661,0.0,0.0,0.0,0.0,0.0,0.0,0.0,0.0,0.0,6.53507964267,0.00355161696888,7.0452472146,0.0,0.0,0.0,0.0,0.0,0.0,0.0,0.0,0.0
33480000000,259,33480000000,imu_link,0.000715439732283,-0.374811593563,0.000453865608606,0.92710061562,0.0,0.0,0.0,0.0,0.0,0.0,0.0,0.0,0.0,-0.00244633125829,-0.00670498170901,0.00015077753641,0.0,0.0,0.0,0.0,0.0,0.0,0.0,0.0,0.0,6.53611883586,0.00381891354489,7.04728132496,0.0,0.0,0.0,0.0,0.0,0.0,0.0,0.0,0.0
33484000000,260,33484000000,imu_link,0.000710750161409,-0.374824152063,0.000452289070143,0.927095542703,0.0,0.0,0.0,0.0,0.0,0.0,0.0,0.0,0.0,-0.00247033972109,-0.00677169016924,0.000153691512728,0.0,0.0,0.0,0.0,0.0,0.0,0.0,0.0,0.0,6.53531152293,0.00390567682944,7.04381939444,0.0,0.0,0.0,0.0,0.0,0.0,0.0,0.0,0.0
33488000000,261,33488000000,imu_link,0.000706460073095,-0.374836866429,0.000450773083164,0.927090406208,0.0,0.0,0.0,0.0,0.0,0.0,0.0,0.0,0.0,-0.00227382504682,-0.00685592572771,0.000106961930527,0.0,0.0,0.0,0.0,0.0,0.0,0.0,0.0,0.0,6.53620085552,0.003889396721,7.04328976886,0.0,0.0,0.0,0.0,0.0,0.0,0.0,0.0,0.0
33492000000,262,33492000000,imu_link,0.000703181292343,-0.374849613728,0.000449398326577,0.927085255338,0.0,0.0,0.0,0.0,0.0,0.0,0.0,0.0,0.0,-0.00177857144271,-0.0068740636697,-1.70942042596e-05,0.0,0.0,0.0,0.0,0.0,0.0,0.0,0.0,0.0,6.53773540201,0.00391552964324,7.04266711217,0.0,0.0,0.0,0.0,0.0,0.0,0.0,0.0,0.0
33496000000,263,33496000000,imu_link,0.00070112806295,-0.374862423856,0.000448206428362,0.927080077831,0.0,0.0,0.0,0.0,0.0,0.0,0.0,0.0,0.0,-0.0011762087027,-0.00690839178224,-0.000162002205018,0.0,0.0,0.0,0.0,0.0,0.0,0.0,0.0,0.0,6.53796173958,0.00409013489263,7.04084344409,0.0,0.0,0.0,0.0,0.0,0.0,0.0,0.0,0.0
33500000000,264,33500000000,imu_link,0.000700104406769,-0.374875481539,0.000447182777622,0.927074799152,0.0,0.0,0.0,0.0,0.0,0.0,0.0,0.0,0.0,-0.000667445478558,-0.00704227741169,-0.000276877462467,0.0,0.0,0.0,0.0,0.0,0.0,0.0,0.0,0.0,6.53987284155,0.00436344139086,7.04369306894,0.0,0.0,0.0,0.0,0.0,0.0,0.0,0.0,0.0
33504000000,265,33504000000,imu_link,0.000699636856698,-0.374889015774,0.000446264576881,0.927069327078,0.0,0.0,0.0,0.0,0.0,0.0,0.0,0.0,0.0,-0.000389943043339,-0.00729951431133,-0.000332022657346,0.0,0.0,0.0,0.0,0.0,0.0,0.0,0.0,0.0,6.54117317312,0.00464136976225,7.04591255432,0.0,0.0,0.0,0.0,0.0,0.0,0.0,0.0,0.0
33508000000,266,33508000000,imu_link,0.000699328504234,-0.374903412153,0.000445395455389,0.927063505979,0.0,0.0,0.0,0.0,0.0,0.0,0.0,0.0,0.0,-0.000307020075957,-0.00776458874794,-0.000338733969044,0.0,0.0,0.0,0.0,0.0,0.0,0.0,0.0,0.0,6.54326500029,0.00482832759875,7.05074002439,0.0,0.0,0.0,0.0,0.0,0.0,0.0,0.0,0.0
33512000000,267,33512000000,imu_link,0.000699142038733,-0.374918987073,0.00044453733879,0.9270572079,0.0,0.0,0.0,0.0,0.0,0.0,0.0,0.0,0.0,-0.000248554387015,-0.00840031412229,-0.000355962454299,0.0,0.0,0.0,0.0,0.0,0.0,0.0,0.0,0.0,6.54401904165,0.00489487363896,7.05211367574,0.0,0.0,0.0,0.0,0.0,0.0,0.0,0.0,0.0
33516000000,268,33516000000,imu_link,0.000699400734248,-0.374935980145,0.000443724997704,0.927050335602,0.0,0.0,0.0,0.0,0.0,0.0,0.0,0.0,0.0,-3.37429488382e-05,-0.00916539404716,-0.000417570477714,0.0,0.0,0.0,0.0,0.0,0.0,0.0,0.0,0.0,6.54502188893,0.00488226602951,7.05324141085,0.0,0.0,0.0,0.0,0.0,0.0,0.0,0.0,0.0
33520000000,269,33520000000,imu_link,0.000700591756709,-0.374954578344,0.000443034403808,0.927042812965,0.0,0.0,0.0,0.0,0.0,0.0,0.0,0.0,0.0,0.000421109062574,-0.0100314926109,-0.000535213450571,0.0,0.0,0.0,0.0,0.0,0.0,0.0,0.0,0.0,6.54717027691,0.00490109645195,7.05631989018,0.0,0.0,0.0,0.0,0.0,0.0,0.0,0.0,0.0
33524000000,270,33524000000,imu_link,0.000702959443018,-0.374974733308,0.000442512961108,0.927034659228,0.0,0.0,0.0,0.0,0.0,0.0,0.0,0.0,0.0,0.000998106173183,-0.010871605052,-0.000676720870754,0.0,0.0,0.0,0.0,0.0,0.0,0.0,0.0,0.0,6.54723759993,0.00506559225605,7.05314950866,0.0,0.0,0.0,0.0,0.0,0.0,0.0,0.0,0.0
33528000000,271,33528000000,imu_link,0.000706604749969,-0.374995962413,0.00044217713643,0.927026069409,0.0,0.0,0.0,0.0,0.0,0.0,0.0,0.0,0.0,0.00162502213044,-0.0114514648524,-0.00082974740623,0.0,0.0,0.0,0.0,0.0,0.0,0.0,0.0,0.0,6.54934996176,0.00527154428676,7.05020016398,0.0,0.0,0.0,0.0,0.0,0.0,0.0,0.0,0.0
33532000000,272,33532000000,imu_link,0.000711396735426,-0.375017432711,0.000442035173422,0.927017380464,0.0,0.0,0.0,0.0,0.0,0.0,0.0,0.0,0.0,0.0021928529316,-0.0115820323245,-0.000954782770172,0.0,0.0,0.0,0.0,0.0,0.0,0.0,0.0,0.0,6.55200136559,0.00548311536998,7.04561244815,0.0,0.0,0.0,0.0,0.0,0.0,0.0,0.0,0.0
33536000000,273,33536000000,imu_link,0.000717237081034,-0.375038484644,0.000442095539881,0.927008859266,0.0,0.0,0.0,0.0,0.0,0.0,0.0,0.0,0.0,0.00271674830996,-0.0113568223769,-0.00105776385722,0.0,0.0,0.0,0.0,0.0,0.0,0.0,0.0,0.0,6.5535499729,0.0056565940572,7.04095397433,0.0,0.0,0.0,0.0,0.0,0.0,0.0,0.0,0.0
33540000000,274,33540000000,imu_link,0.000724056901181,-0.375058893751,0.000442353909533,0.9270005967,0.0,0.0,0.0,0.0,0.0,0.0,0.0,0.0,0.0,0.0032079178513,-0.0110105161059,-0.0011499465233,0.0,0.0,0.0,0.0,0.0,0.0,0.0,0.0,0.0,6.553614094,0.00580180396167,7.03737769198,0.0,0.0,0.0,0.0,0.0,0.0,0.0,0.0,0.0
33544000000,275,33544000000,imu_link,0.000731893631367,-0.375078834971,0.000442777178599,0.926992521996,0.0,0.0,0.0,0.0,0.0,0.0,0.0,0.0,0.0,0.00371021492852,-0.0107585863794,-0.00126442711139,0.0,0.0,0.0,0.0,0.0,0.0,0.0,0.0,0.0,6.55392834186,0.00592971520022,7.03777851488,0.0,0.0,0.0,0.0,0.0,0.0,0.0,0.0,0.0
33548000000,276,33548000000,imu_link,0.00074091677995,-0.375098387555,0.000443388665648,0.926984602948,0.0,0.0,0.0,0.0,0.0,0.0,0.0,0.0,0.0,0.00429544278827,-0.010549456925,-0.00139986567593,0.0,0.0,0.0,0.0,0.0,0.0,0.0,0.0,0.0,6.5547085373,0.00602894658639,7.03807060488,0.0,0.0,0.0,0.0,0.0,0.0,0.0,0.0,0.0
33552000000,277,33552000000,imu_link,0.000751161541075,-0.375117303666,0.000444217116119,0.926976939798,0.0,0.0,0.0,0.0,0.0,0.0,0.0,0.0,0.0,0.00490238841443,-0.0102066537847,-0.0015287097654,0.0,0.0,0.0,0.0,0.0,0.0,0.0,0.0,0.0,6.55529945301,0.00616219669622,7.03466630156,0.0,0.0,0.0,0.0,0.0,0.0,0.0,0.0,0.0
33556000000,278,33556000000,imu_link,0.000762507142827,-0.375135309168,0.000445272397005,0.926969643587,0.0,0.0,0.0,0.0,0.0,0.0,0.0,0.0,0.0,0.00545522379861,-0.00971593387486,-0.00163047217496,0.0,0.0,0.0,0.0,0.0,0.0,0.0,0.0,0.0,6.55621958569,0.00632818992635,7.0320107364,0.0,0.0,0.0,0.0,0.0,0.0,0.0,0.0,0.0
33560000000,279,33560000000,imu_link,0.00077466625281,-0.375152422044,0.000446520397035,0.926962707312,0.0,0.0,0.0,0.0,0.0,0.0,0.0,0.0,0.0,0.00586848189776,-0.00923481037509,-0.00169415805906,0.0,0.0,0.0,0.0,0.0,0.0,0.0,0.0,0.0,6.5563964322,0.00650130342626,7.03043365543,0.0,0.0,0.0,0.0,0.0,0.0,0.0,0.0,0.0
33564000000,280,33564000000,imu_link,0.000787234361158,-0.375168949207,0.000447872152079,0.926956007167,0.0,0.0,0.0,0.0,0.0,0.0,0.0,0.0,0.0,0.00607754629101,-0.00891910213466,-0.00172306749333,0.0,0.0,0.0,0.0,0.0,0.0,0.0,0.0,0.0,6.5573574294,0.00665367263882,7.03269130245,0.0,0.0,0.0,0.0,0.0,0.0,0.0,0.0,0.0
33568000000,281,33568000000,imu_link,0.000799778819183,-0.375185104014,0.000449262165952,0.926949457222,0.0,0.0,0.0,0.0,0.0,0.0,0.0,0.0,0.0,0.00607378591203,-0.00871832776968,-0.00170107913429,0.0,0.0,0.0,0.0,0.0,0.0,0.0,0.0,0.0,6.5590105931,0.00680411180825,7.03550737085,0.0,0.0,0.0,0.0,0.0,0.0,0.0,0.0,0.0
33572000000,282,33572000000,imu_link,0.000812069540886,-0.375201050126,0.000450633322061,0.926942991482,0.0,0.0,0.0,0.0,0.0,0.0,0.0,0.0,0.0,0.00595266116923,-0.00860575701046,-0.00166232255789,0.0,0.0,0.0,0.0,0.0,0.0,0.0,0.0,0.0,6.55939646463,0.00682556735481,7.03530184923,0.0,0.0,0.0,0.0,0.0,0.0,0.0,0.0,0.0
33576000000,283,33576000000,imu_link,0.000823932961289,-0.375216851676,0.000451943882873,0.926936584184,0.0,0.0,0.0,0.0,0.0,0.0,0.0,0.0,0.0,0.00574326032912,-0.00852772142757,-0.00161031666748,0.0,0.0,0.0,0.0,0.0,0.0,0.0,0.0,0.0,6.55979174682,0.00675073720654,7.03473642796,0.0,0.0,0.0,0.0,0.0,0.0,0.0,0.0,0.0
33580000000,284,33580000000,imu_link,0.000835381906777,-0.375232587266,0.000453212270925,0.926930203515,0.0,0.0,0.0,0.0,0.0,0.0,0.0,0.0,0.0,0.00554325631854,-0.00849207903649,-0.00155213660872,0.0,0.0,0.0,0.0,0.0,0.0,0.0,0.0,0.0,6.55996676684,0.0065344999705,7.03377104934,0.0,0.0,0.0,0.0,0.0,0.0,0.0,0.0,0.0
33584000000,285,33584000000,imu_link,0.000846424551459,-0.375248096407,0.000454452448257,0.926923914451,0.0,0.0,0.0,0.0,0.0,0.0,0.0,0.0,0.0,0.00534967033567,-0.00836986046877,-0.00148909798634,0.0,0.0,0.0,0.0,0.0,0.0,0.0,0.0,0.0,6.56032284077,0.00636671823445,7.03108239641,0.0,0.0,0.0,0.0,0.0,0.0,0.0,0.0,0.0
33588000000,286,33588000000,imu_link,0.000856871527256,-0.375263224444,0.000455671388612,0.926917779803,0.0,0.0,0.0,0.0,0.0,0.0,0.0,0.0,0.0,0.00506963714648,-0.00816413552922,-0.00138737508372,0.0,0.0,0.0,0.0,0.0,0.0,0.0,0.0,0.0,6.56120922637,0.00626734795002,7.02951838922,0.0,0.0,0.0,0.0,0.0,0.0,0.0,0.0,0.0
33592000000,287,33592000000,imu_link,0.000866332683503,-0.375277933197,0.000456853937818,0.926911815443,0.0,0.0,0.0,0.0,0.0,0.0,0.0,0.0,0.0,0.00460594475254,-0.00793765351699,-0.00121948840822,0.0,0.0,0.0,0.0,0.0,0.0,0.0,0.0,0.0,6.56230601261,0.006198411773,7.02952469859,0.0,0.0,0.0,0.0,0.0,0.0,0.0,0.0,0.0
33596000000,288,33596000000,imu_link,0.000874166787694,-0.375292452993,0.000457928830561,0.926905928808,0.0,0.0,0.0,0.0,0.0,0.0,0.0,0.0,0.0,0.003831686812,-0.00783517122891,-0.000964183669524,0.0,0.0,0.0,0.0,0.0,0.0,0.0,0.0,0.0,6.56457655586,0.00611954801617,7.03380610474,0.0,0.0,0.0,0.0,0.0,0.0,0.0,0.0,0.0
33600000000,289,33600000000,imu_link,0.000880046540575,-0.375307229701,0.00045883705256,0.926899939756,0.0,0.0,0.0,0.0,0.0,0.0,0.0,0.0,0.0,0.00289464770876,-0.0079730815937,-0.000674565330034,0.0,0.0,0.0,0.0,0.0,0.0,0.0,0.0,0.0,6.56639235673,0.00591995235213,7.03894841609,0.0,0.0,0.0,0.0,0.0,0.0,0.0,0.0,0.0
33604000000,290,33604000000,imu_link,0.000884293700761,-0.375322488135,0.000459569454421,0.926893756976,0.0,0.0,0.0,0.0,0.0,0.0,0.0,0.0,0.0,0.00210500411754,-0.00823239358507,-0.000449430831282,0.0,0.0,0.0,0.0,0.0,0.0,0.0,0.0,0.0,6.56735449141,0.0055887461621,7.04066708982,0.0,0.0,0.0,0.0,0.0,0.0,0.0,0.0,0.0
33608000000,291,33608000000,imu_link,0.000887682059929,-0.375338126789,0.000460167930419,0.926887420804,0.0,0.0,0.0,0.0,0.0,0.0,0.0,0.0,0.0,0.00168184322454,-0.00843725372084,-0.000350131326121,0.0,0.0,0.0,0.0,0.0,0.0,0.0,0.0,0.0,6.56940364088,0.00522886596729,7.04150156657,0.0,0.0,0.0,0.0,0.0,0.0,0.0,0.0,0.0
33612000000,292,33612000000,imu_link,0.000891215234868,-0.375353932505,0.000460732599373,0.926881016536,0.0,0.0,0.0,0.0,0.0,0.0,0.0,0.0,0.0,0.00174260443276,-0.00852750471662,-0.000392886611966,0.0,0.0,0.0,0.0,0.0,0.0,0.0,0.0,0.0,6.5726189294,0.00498530829336,7.04333963776,0.0,0.0,0.0,0.0,0.0,0.0,0.0,0.0,0.0
33616000000,293,33616000000,imu_link,0.000895731808721,-0.375369617151,0.000461357963974,0.926874659991,0.0,0.0,0.0,0.0,0.0,0.0,0.0,0.0,0.0,0.00220974912437,-0.00846263935056,-0.000549384058614,0.0,0.0,0.0,0.0,0.0,0.0,0.0,0.0,0.0,6.57516843955,0.00493304850244,7.04312869455,0.0,0.0,0.0,0.0,0.0,0.0,0.0,0.0,0.0
33620000000,294,33620000000,imu_link,0.000901491018994,-0.375385058961,0.000462054945222,0.926868400221,0.0,0.0,0.0,0.0,0.0,0.0,0.0,0.0,0.0,0.00279908726099,-0.00833219103779,-0.000749549291616,0.0,0.0,0.0,0.0,0.0,0.0,0.0,0.0,0.0,6.57523668814,0.00504674567015,7.04008776006,0.0,0.0,0.0,0.0,0.0,0.0,0.0,0.0,0.0
33624000000,295,33624000000,imu_link,0.000908298054425,-0.375400147561,0.000462799055445,0.926862282123,0.0,0.0,0.0,0.0,0.0,0.0,0.0,0.0,0.0,0.00329354877405,-0.0081421318174,-0.000924569005204,0.0,0.0,0.0,0.0,0.0,0.0,0.0,0.0,0.0,6.5754042414,0.00520336571654,7.03734948712,0.0,0.0,0.0,0.0,0.0,0.0,0.0,0.0,0.0
33628000000,296,33628000000,imu_link,0.000915927858914,-0.375414668955,0.000463555115854,0.926856392612,0.0,0.0,0.0,0.0,0.0,0.0,0.0,0.0,0.0,0.00367711606747,-0.00783655010224,-0.00107377522042,0.0,0.0,0.0,0.0,0.0,0.0,0.0,0.0,0.0,6.57599084035,0.00537052717038,7.0346168365,0.0,0.0,0.0,0.0,0.0,0.0,0.0,0.0,0.0
33632000000,297,33632000000,imu_link,0.000924280328961,-0.375428276032,0.000464313422605,0.926850872403,0.0,0.0,0.0,0.0,0.0,0.0,0.0,0.0,0.0,0.00401248410979,-0.00734367549345,-0.00120888814807,0.0,0.0,0.0,0.0,0.0,0.0,0.0,0.0,0.0,6.57750916575,0.00550287840742,7.03242796047,0.0,0.0,0.0,0.0,0.0,0.0,0.0,0.0,0.0
33636000000,298,33636000000,imu_link,0.0009333548122,-0.37544050209,0.000465058583032,0.92684591058,0.0,0.0,0.0,0.0,0.0,0.0,0.0,0.0,0.0,0.00434467819717,-0.0065990328885,-0.00135128043062,0.0,0.0,0.0,0.0,0.0,0.0,0.0,0.0,0.0,6.57865456656,0.00561080056987,7.02869106473,0.0,0.0,0.0,0.0,0.0,0.0,0.0,0.0,0.0
33640000000,299,33640000000,imu_link,0.000943121337782,-0.37545137407,0.000465760283344,0.926841496319,0.0,0.0,0.0,0.0,0.0,0.0,0.0,0.0,0.0,0.00465728748976,-0.00586891460832,-0.00150209044965,0.0,0.0,0.0,0.0,0.0,0.0,0.0,0.0,0.0,6.57817230443,0.00571738425504,7.02648098743,0.0,0.0,0.0,0.0,0.0,0.0,0.0,0.0,0.0
33644000000,300,33644000000,imu_link,0.000953582059044,-0.375461285118,0.000466407970062,0.926837470392,0.0,0.0,0.0,0.0,0.0,0.0,0.0,0.0,0.0,0.00496889309113,-0.00535088634843,-0.00165798340303,0.0,0.0,0.0,0.0,0.0,0.0,0.0,0.0,0.0,6.57873501301,0.00578781277602,7.02912359379,0.0,0.0,0.0,0.0,0.0,0.0,0.0,0.0,0.0
33648000000,301,33648000000,imu_link,0.000964936265038,-0.375470764776,0.000466996738925,0.926833618084,0.0,0.0,0.0,0.0,0.0,0.0,0.0,0.0,0.0,0.00537190779,-0.00511861445119,-0.00185326767614,0.0,0.0,0.0,0.0,0.0,0.0,0.0,0.0,0.0,6.58081396365,0.0058546016196,7.03590109664,0.0,0.0,0.0,0.0,0.0,0.0,0.0,0.0,0.0
33652000000,302,33652000000,imu_link,0.000977341752266,-0.375480232988,0.000467583119808,0.926829769054,0.0,0.0,0.0,0.0,0.0,0.0,0.0,0.0,0.0,0.00585864196803,-0.00511294134009,-0.0020517432785,0.0,0.0,0.0,0.0,0.0,0.0,0.0,0.0,0.0,6.58193270224,0.00595732676344,7.03961572102,0.0,0.0,0.0,0.0,0.0,0.0,0.0,0.0,0.0
33656000000,303,33656000000,imu_link,0.000990820086191,-0.375489897782,0.000468231774966,0.926825838925,0.0,0.0,0.0,0.0,0.0,0.0,0.0,0.0,0.0,0.00636750014787,-0.0052194863005,-0.00222418579205,0.0,0.0,0.0,0.0,0.0,0.0,0.0,0.0,0.0,6.58301632598,0.00611046062832,7.04130515227,0.0,0.0,0.0,0.0,0.0,0.0,0.0,0.0,0.0
33660000000,304,33660000000,imu_link,0.00100518407376,-0.375499963217,0.000468989607557,0.926821745147,0.0,0.0,0.0,0.0,0.0,0.0,0.0,0.0,0.0,0.00679840827708,-0.00543602614568,-0.00233963176311,0.0,0.0,0.0,0.0,0.0,0.0,0.0,0.0,0.0,6.58381792421,0.00632692748075,7.04231309555,0.0,0.0,0.0,0.0,0.0,0.0,0.0,0.0,0.0
33664000000,305,33664000000,imu_link,0.00102001215934,-0.37551058292,0.000469787088551,0.926817425921,0.0,0.0,0.0,0.0,0.0,0.0,0.0,0.0,0.0,0.00702090366534,-0.00573529690415,-0.00240806121796,0.0,0.0,0.0,0.0,0.0,0.0,0.0,0.0,0.0,6.58474312595,0.00649266310747,7.04319240252,0.0,0.0,0.0,0.0,0.0,0.0,0.0,0.0,0.0
33668000000,306,33668000000,imu_link,0.00103481925809,-0.375521802635,0.00047052888525,0.926812863257,0.0,0.0,0.0,0.0,0.0,0.0,0.0,0.0,0.0,0.00700070637848,-0.00605907748724,-0.00242956222559,0.0,0.0,0.0,0.0,0.0,0.0,0.0,0.0,0.0,6.58692118279,0.00657330782201,7.04555849803,0.0,0.0,0.0,0.0,0.0,0.0,0.0,0.0,0.0
33672000000,307,33672000000,imu_link,0.00104920458453,-0.375533619836,0.000471133002465,0.926808058649,0.0,0.0,0.0,0.0,0.0,0.0,0.0,0.0,0.0,0.00677938816947,-0.00638135623,-0.00241380536813,0.0,0.0,0.0,0.0,0.0,0.0,0.0,0.0,0.0,6.58785498062,0.00655288867906,7.04527173665,0.0,0.0,0.0,0.0,0.0,0.0,0.0,0.0,0.0
33676000000,308,33676000000,imu_link,0.00106280228837,-0.375546046685,0.000471599521932,0.926803007583,0.0,0.0,0.0,0.0,0.0,0.0,0.0,0.0,0.0,0.00638855007576,-0.00671003316082,-0.00232930145714,0.0,0.0,0.0,0.0,0.0,0.0,0.0,0.0,0.0,6.58817359613,0.0065002928968,7.0439846082,0.0,0.0,0.0,0.0,0.0,0.0,0.0,0.0,0.0
33680000000,309,33680000000,imu_link,0.00107524262975,-0.375559212436,0.000471999479037,0.926797658081,0.0,0.0,0.0,0.0,0.0,0.0,0.0,0.0,0.0,0.0058397123084,-0.0071082417329,-0.0021423620816,0.0,0.0,0.0,0.0,0.0,0.0,0.0,0.0,0.0,6.59062924858,0.00642140779282,7.04787965726,0.0,0.0,0.0,0.0,0.0,0.0,0.0,0.0,0.0
33684000000,310,33684000000,imu_link,0.0010864335994,-0.375573259864,0.000472382659174,0.926791952378,0.0,0.0,0.0,0.0,0.0,0.0,0.0,0.0,0.0,0.00525758796525,-0.00758341127822,-0.00191497190661,0.0,0.0,0.0,0.0,0.0,0.0,0.0,0.0,0.0,6.59143681839,0.00626210593793,7.04854573459,0.0,0.0,0.0,0.0,0.0,0.0,0.0,0.0,0.0
33688000000,311,33688000000,imu_link,0.00109664387754,-0.375588202047,0.000472802144376,0.926785884827,0.0,0.0,0.0,0.0,0.0,0.0,0.0,0.0,0.0,0.00480994230137,-0.00806573620548,-0.00171341602065,0.0,0.0,0.0,0.0,0.0,0.0,0.0,0.0,0.0,6.59191476762,0.00604338064663,7.04702986201,0.0,0.0,0.0,0.0,0.0,0.0,0.0,0.0,0.0
33692000000,312,33692000000,imu_link,0.00110646974047,-0.375603694191,0.000473294534553,0.926779594417,0.0,0.0,0.0,0.0,0.0,0.0,0.0,0.0,0.0,0.00464549031492,-0.00836230495337,-0.00160708722023,0.0,0.0,0.0,0.0,0.0,0.0,0.0,0.0,0.0,6.59427750251,0.00583316019433,7.04609595365,0.0,0.0,0.0,0.0,0.0,0.0,0.0,0.0,0.0
33696000000,313,33696000000,imu_link,0.00111625583252,-0.375619387031,0.000473889792104,0.926773222255,0.0,0.0,0.0,0.0,0.0,0.0,0.0,0.0,0.0,0.00464637731554,-0.00847059232157,-0.00155182010688,0.0,0.0,0.0,0.0,0.0,0.0,0.0,0.0,0.0,6.59398254099,0.00574899855649,7.0401182573,0.0,0.0,0.0,0.0,0.0,0.0,0.0,0.0,0.0
33700000000,314,33700000000,imu_link,0.00112585504725,-0.375634881616,0.000474555019936,0.926766930226,0.0,0.0,0.0,0.0,0.0,0.0,0.0,0.0,0.0,0.00457292421216,-0.00836359064629,-0.00148442908115,0.0,0.0,0.0,0.0,0.0,0.0,0.0,0.0,0.0,6.59426454261,0.00576874305692,7.03496601026,0.0,0.0,0.0,0.0,0.0,0.0,0.0,0.0,0.0
33704000000,315,33704000000,imu_link,0.00113473068533,-0.375649908874,0.000475205538159,0.926760828115,0.0,0.0,0.0,0.0,0.0,0.0,0.0,0.0,0.0,0.0042348720154,-0.00811120544851,-0.00135565309145,0.0,0.0,0.0,0.0,0.0,0.0,0.0,0.0,0.0,6.59540868665,0.00587588251211,7.03264820224,0.0,0.0,0.0,0.0,0.0,0.0,0.0,0.0,0.0
33708000000,316,33708000000,imu_link,0.00114235924476,-0.375664406456,0.000475736506157,0.926754941941,0.0,0.0,0.0,0.0,0.0,0.0,0.0,0.0,0.0,0.00363454901193,-0.00782497721912,-0.00117716965966,0.0,0.0,0.0,0.0,0.0,0.0,0.0,0.0,0.0,6.59645912582,0.0058712894157,7.03196913999,0.0,0.0,0.0,0.0,0.0,0.0,0.0,0.0,0.0
33712000000,317,33712000000,imu_link,0.00114847855743,-0.375678297603,0.000476113624845,0.926749303222,0.0,0.0,0.0,0.0,0.0,0.0,0.0,0.0,0.0,0.00290630312364,-0.00749721774322,-0.000965380065715,0.0,0.0,0.0,0.0,0.0,0.0,0.0,0.0,0.0,6.59572883398,0.00570859633106,7.02837623615,0.0,0.0,0.0,0.0,0.0,0.0,0.0,0.0,0.0
33716000000,318,33716000000,imu_link,0.00115294336797,-0.375691643764,0.000476327554599,0.926743887295,0.0,0.0,0.0,0.0,0.0,0.0,0.0,0.0,0.0,0.00210899730082,-0.00720253592785,-0.000730583396286,0.0,0.0,0.0,0.0,0.0,0.0,0.0,0.0,0.0,6.59495771786,0.00544654629253,7.02592503895,0.0,0.0,0.0,0.0,0.0,0.0,0.0,0.0,0.0
33720000000,319,33720000000,imu_link,0.00115577305204,-0.375704272059,0.000476411611297,0.926738764257,0.0,0.0,0.0,0.0,0.0,0.0,0.0,0.0,0.0,0.00132693159385,-0.00681456442691,-0.00048409483881,0.0,0.0,0.0,0.0,0.0,0.0,0.0,0.0,0.0,6.59479090784,0.00519621113536,7.02252594664,0.0,0.0,0.0,0.0,0.0,0.0,0.0,0.0,0.0
33724000000,320,33724000000,imu_link,0.00115718951261,-0.37571594617,0.000476409022783,0.926734029666,0.0,0.0,0.0,0.0,0.0,0.0,0.0,0.0,0.0,0.00065581341457,-0.00629916722947,-0.000259410462348,0.0,0.0,0.0,0.0,0.0,0.0,0.0,0.0,0.0,6.59461045334,0.00496024269292,7.01840391973,0.0,0.0,0.0,0.0,0.0,0.0,0.0,0.0,0.0
33728000000,321,33728000000,imu_link,0.00115760616576,-0.375726554878,0.00047637911025,0.926729728114,0.0,0.0,0.0,0.0,0.0,0.0,0.0,0.0,0.0,0.000187405834583,-0.00572392308586,-8.49693066328e-05,0.0,0.0,0.0,0.0,0.0,0.0,0.0,0.0,0.0,6.59553704272,0.00474623573048,7.01764137282,0.0,0.0,0.0,0.0,0.0,0.0,0.0,0.0,0.0
33732000000,322,33732000000,imu_link,0.00115751086219,-0.375736348103,0.000476370848549,0.926725757683,0.0,0.0,0.0,0.0,0.0,0.0,0.0,0.0,0.0,-4.57469446299e-05,-0.0052837165725,2.06899240012e-05,0.0,0.0,0.0,0.0,0.0,0.0,0.0,0.0,0.0,6.5966744962,0.00458672911853,7.02038696275,0.0,0.0,0.0,0.0,0.0,0.0,0.0,0.0,0.0
33736000000,323,33736000000,imu_link,0.00115717426779,-0.375745702406,0.000476388169267,0.926721965384,0.0,0.0,0.0,0.0,0.0,0.0,0.0,0.0,0.0,-0.000152744583748,-0.00504679845637,7.75782770341e-05,0.0,0.0,0.0,0.0,0.0,0.0,0.0,0.0,0.0,6.59736602743,0.00453255342672,7.02327185119,0.0,0.0,0.0,0.0,0.0,0.0,0.0,0.0,0.0
33740000000,324,33740000000,imu_link,0.00115690674058,-0.375755000642,0.000476400972024,0.926718195625,0.0,0.0,0.0,0.0,0.0,0.0,0.0,0.0,0.0,-0.000121590029887,-0.00501660423023,6.24711718239e-05,0.0,0.0,0.0,0.0,0.0,0.0,0.0,0.0,0.0,6.5990974177,0.00452166217071,7.02810038852,0.0,0.0,0.0,0.0,0.0,0.0,0.0,0.0,0.0
33744000000,325,33744000000,imu_link,0.00115701871399,-0.37576430446,0.000476388750108,0.926714423032,0.0,0.0,0.0,0.0,0.0,0.0,0.0,0.0,0.0,4.95537724131e-05,-0.00501982766532,-2.04199631221e-05,0.0,0.0,0.0,0.0,0.0,0.0,0.0,0.0,0.0,6.59918761686,0.00454966060405,7.02658211823,0.0,0.0,0.0,0.0,0.0,0.0,0.0,0.0,0.0
33748000000,326,33748000000,imu_link,0.00115771938974,-0.375773471594,0.000476343473871,0.926710705036,0.0,0.0,0.0,0.0,0.0,0.0,0.0,0.0,0.0,0.000316123896303,-0.00494639610192,-0.000146434658808,0.0,0.0,0.0,0.0,0.0,0.0,0.0,0.0,0.0,6.59927886542,0.00469220076199,7.02345457924,0.0,0.0,0.0,0.0,0.0,0.0,0.0,0.0,0.0
33752000000,327,33752000000,imu_link,0.0011588323846,-0.375782566329,0.000476254676102,0.926707015799,0.0,0.0,0.0,0.0,0.0,0.0,0.0,0.0,0.0,0.000498997647008,-0.00490756928801,-0.000244118645996,0.0,0.0,0.0,0.0,0.0,0.0,0.0,0.0,0.0,6.59980252976,0.0049525667885,7.02284205281,0.0,0.0,0.0,0.0,0.0,0.0,0.0,0.0,0.0
33756000000,328,33756000000,imu_link,0.00115992490928,-0.375791759723,0.000476140350844,0.926703286489,0.0,0.0,0.0,0.0,0.0,0.0,0.0,0.0,0.0,0.000484716047607,-0.0049608225708,-0.000252034021428,0.0,0.0,0.0,0.0,0.0,0.0,0.0,0.0,0.0,6.60106033262,0.00516329944539,7.02496860265,0.0,0.0,0.0,0.0,0.0,0.0,0.0,0.0,0.0
33760000000,329,33760000000,imu_link,0.00116058777239,-0.375801069221,0.000475988092559,0.926699510545,0.0,0.0,0.0,0.0,0.0,0.0,0.0,0.0,0.0,0.000278503600132,-0.00502330173632,-0.000188800274965,0.0,0.0,0.0,0.0,0.0,0.0,0.0,0.0,0.0,6.60162471602,0.00525999124506,7.02443078077,0.0,0.0,0.0,0.0,0.0,0.0,0.0,0.0,0.0
33764000000,330,33764000000,imu_link,0.00116063001717,-0.375810353746,0.000475771663355,0.926695745429,0.0,0.0,0.0,0.0,0.0,0.0,0.0,0.0,0.0,-2.11178447371e-05,-0.0050095852509,-0.000101936406808,0.0,0.0,0.0,0.0,0.0,0.0,0.0,0.0,0.0,6.60255123735,0.0052761442349,7.02297075284,0.0,0.0,0.0,0.0,0.0,0.0,0.0,0.0,0.0
33768000000,331,33768000000,imu_link,0.00116006132786,-0.375819435695,0.000475482911874,0.926692063162,0.0,0.0,0.0,0.0,0.0,0.0,0.0,0.0,0.0,-0.000317782473588,-0.00490005075251,-2.07863682614e-05,0.0,0.0,0.0,0.0,0.0,0.0,0.0,0.0,0.0,6.60279471345,0.00524527499338,7.01992749615,0.0,0.0,0.0,0.0,0.0,0.0,0.0,0.0,0.0
33772000000,332,33772000000,imu_link,0.00115901048469,-0.375828373268,0.000475167248207,0.926688439961,0.0,0.0,0.0,0.0,0.0,0.0,0.0,0.0,0.0,-0.00054624354572,-0.00482195724724,5.72475875516e-05,0.0,0.0,0.0,0.0,0.0,0.0,0.0,0.0,0.0,6.60357319004,0.00519741653981,7.01971955859,0.0,0.0,0.0,0.0,0.0,0.0,0.0,0.0,0.0
33776000000,333,33776000000,imu_link,0.00115737369632,-0.375837370873,0.000474886451542,0.926684793025,0.0,0.0,0.0,0.0,0.0,0.0,0.0,0.0,0.0,-0.00081118637129,-0.0048540729244,0.000183550853994,0.0,0.0,0.0,0.0,0.0,0.0,0.0,0.0,0.0,6.60491870288,0.005207918006,7.02233289607,0.0,0.0,0.0,0.0,0.0,0.0,0.0,0.0,0.0
33780000000,334,33780000000,imu_link,0.00115482369162,-0.375846683813,0.000474663897973,0.926681019199,0.0,0.0,0.0,0.0,0.0,0.0,0.0,0.0,0.0,-0.00122337469621,-0.00502377582974,0.000382360373605,0.0,0.0,0.0,0.0,0.0,0.0,0.0,0.0,0.0,6.60654963133,0.00524466981029,7.02580188922,0.0,0.0,0.0,0.0,0.0,0.0,0.0,0.0,0.0
33784000000,335,33784000000,imu_link,0.00115088412498,-0.375856489323,0.000474456296017,0.926677047191,0.0,0.0,0.0,0.0,0.0,0.0,0.0,0.0,0.0,-0.00186440774312,-0.00528890787196,0.000650750634275,0.0,0.0,0.0,0.0,0.0,0.0,0.0,0.0,0.0,6.60770701931,0.00526528623545,7.02748541256,0.0,0.0,0.0,0.0,0.0,0.0,0.0,0.0,0.0
33788000000,336,33788000000,imu_link,0.00114519186103,-0.375866910346,0.000474212757657,0.926672827574,0.0,0.0,0.0,0.0,0.0,0.0,0.0,0.0,0.0,-0.002683256927,-0.00562023655294,0.000963894175111,0.0,0.0,0.0,0.0,0.0,0.0,0.0,0.0,0.0,6.60806171409,0.00519308544275,7.02723670036,0.0,0.0,0.0,0.0,0.0,0.0,0.0,0.0,0.0
33792000000,337,33792000000,imu_link,0.00113770018847,-0.375878045959,0.000473896332237,0.926668320181,0.0,0.0,0.0,0.0,0.0,0.0,0.0,0.0,0.0,-0.00353069103111,-0.00600502991096,0.0012687694291,0.0,0.0,0.0,0.0,0.0,0.0,0.0,0.0,0.0,6.60751755701,0.00505305318075,7.02488692175,0.0,0.0,0.0,0.0,0.0,0.0,0.0,0.0,0.0
33796000000,338,33796000000,imu_link,0.00112877465216,-0.375890043175,0.000473498087022,0.926663464861,0.0,0.0,0.0,0.0,0.0,0.0,0.0,0.0,0.0,-0.00421043245612,-0.00646933562806,0.00150091103815,0.0,0.0,0.0,0.0,0.0,0.0,0.0,0.0,0.0,6.60790732374,0.0048689016767,7.02497439366,0.0,0.0,0.0,0.0,0.0,0.0,0.0,0.0,0.0
33800000000,339,33800000000,imu_link,0.00111907062716,-0.375903007899,0.000473014136944,0.926658217786,0.0,0.0,0.0,0.0,0.0,0.0,0.0,0.0,0.0,-0.00458724672501,-0.00699110522246,0.00160815312529,0.0,0.0,0.0,0.0,0.0,0.0,0.0,0.0,0.0,6.60896743052,0.00471074624142,7.02608317638,0.0,0.0,0.0,0.0,0.0,0.0,0.0,0.0,0.0
33804000000,340,33804000000,imu_link,0.00110920346042,-0.375917113277,0.000472472669825,0.926652507892,0.0,0.0,0.0,0.0,0.0,0.0,0.0,0.0,0.0,-0.00467365626513,-0.00760658488177,0.00161291423777,0.0,0.0,0.0,0.0,0.0,0.0,0.0,0.0,0.0,6.61056122459,0.00461804377948,7.0286211,0.0,0.0,0.0,0.0,0.0,0.0,0.0,0.0,0.0
33808000000,341,33808000000,imu_link,0.00109968023702,-0.375932178609,0.000471900936914,0.926646407806,0.0,0.0,0.0,0.0,0.0,0.0,0.0,0.0,0.0,-0.00451999737936,-0.00812479423023,0.00153486877921,0.0,0.0,0.0,0.0,0.0,0.0,0.0,0.0,0.0,6.61123796886,0.00461804534854,7.02612501607,0.0,0.0,0.0,0.0,0.0,0.0,0.0,0.0,0.0
33812000000,342,33812000000,imu_link,0.00109079954254,-0.375947703448,0.000471342219415,0.926640120147,0.0,0.0,0.0,0.0,0.0,0.0,0.0,0.0,0.0,-0.00421985765075,-0.00837309665403,0.00142042238593,0.0,0.0,0.0,0.0,0.0,0.0,0.0,0.0,0.0,6.61234850266,0.00472391991783,7.02135861034,0.0,0.0,0.0,0.0,0.0,0.0,0.0,0.0,0.0
33816000000,343,33816000000,imu_link,0.00108258917218,-0.375963158343,0.000470814340166,0.926633859679,0.0,0.0,0.0,0.0,0.0,0.0,0.0,0.0,0.0,-0.00390348459568,-0.00833572039118,0.0013086624021,0.0,0.0,0.0,0.0,0.0,0.0,0.0,0.0,0.0,6.61340607324,0.00491889080824,7.01643888542,0.0,0.0,0.0,0.0,0.0,0.0,0.0,0.0,0.0
33820000000,344,33820000000,imu_link,0.00107491487215,-0.37597812412,0.00047028875627,0.926627796675,0.0,0.0,0.0,0.0,0.0,0.0,0.0,0.0,0.0,-0.00365467440296,-0.00807210869632,0.00120864329191,0.0,0.0,0.0,0.0,0.0,0.0,0.0,0.0,0.0,6.61387658187,0.00513473534976,7.01194173423,0.0,0.0,0.0,0.0,0.0,0.0,0.0,0.0,0.0
33824000000,345,33824000000,imu_link,0.00106739457588,-0.375992477542,0.000469704013975,0.926621981651,0.0,0.0,0.0,0.0,0.0,0.0,0.0,0.0,0.0,-0.00359443273555,-0.00774184660126,0.00115189593296,0.0,0.0,0.0,0.0,0.0,0.0,0.0,0.0,0.0,6.61455255495,0.00536736510072,7.01051566459,0.0,0.0,0.0,0.0,0.0,0.0,0.0,0.0,0.0
33828000000,346,33828000000,imu_link,0.00105985549381,-0.376006359215,0.000469047936931,0.926616357793,0.0,0.0,0.0,0.0,0.0,0.0,0.0,0.0,0.0,-0.00361653830139,-0.00748737560101,0.00112208075314,0.0,0.0,0.0,0.0,0.0,0.0,0.0,0.0,0.0,6.61446316669,0.0055135397976,7.00994409524,0.0,0.0,0.0,0.0,0.0,0.0,0.0,0.0,0.0
33832000000,347,33832000000,imu_link,0.00105233625701,-0.376020176732,0.000468371776168,0.926610759654,0.0,0.0,0.0,0.0,0.0,0.0,0.0,0.0,0.0,-0.00361111821079,-0.00745283158985,0.00110900479836,0.0,0.0,0.0,0.0,0.0,0.0,0.0,0.0,0.0,6.61524235887,0.00557737922725,7.01305818933,0.0,0.0,0.0,0.0,0.0,0.0,0.0,0.0,0.0
33836000000,348,33836000000,imu_link,0.00104513279344,-0.376034235136,0.00046778481365,0.926605063056,0.0,0.0,0.0,0.0,0.0,0.0,0.0,0.0,0.0,-0.00344805321541,-0.00758297368811,0.00109111207791,0.0,0.0,0.0,0.0,0.0,0.0,0.0,0.0,0.0,6.6150852989,0.00562159648645,7.01321163515,0.0,0.0,0.0,0.0,0.0,0.0,0.0,0.0,0.0
33840000000,349,33840000000,imu_link,0.00103859659148,-0.376048384033,0.000467315421102,0.92659932862,0.0,0.0,0.0,0.0,0.0,0.0,0.0,0.0,0.0,-0.00311680544111,-0.00763210825826,0.001020182074,0.0,0.0,0.0,0.0,0.0,0.0,0.0,0.0,0.0,6.61558981335,0.00575021218422,7.01122158435,0.0,0.0,0.0,0.0,0.0,0.0,0.0,0.0,0.0
33844000000,350,33844000000,imu_link,0.00103296188046,-0.376062344052,0.000466985023813,0.926593669469,0.0,0.0,0.0,0.0,0.0,0.0,0.0,0.0,0.0,-0.00267300548742,-0.00753058458929,0.000914960752797,0.0,0.0,0.0,0.0,0.0,0.0,0.0,0.0,0.0,6.61598680227,0.00601038747144,7.00777512517,0.0,0.0,0.0,0.0,0.0,0.0,0.0,0.0,0.0
33848000000,351,33848000000,imu_link,0.00102833931847,-0.3760757464,0.000466790379495,0.926588235191,0.0,0.0,0.0,0.0,0.0,0.0,0.0,0.0,0.0,-0.00217854018387,-0.0072301004402,0.000787198573216,0.0,0.0,0.0,0.0,0.0,0.0,0.0,0.0,0.0,6.61665438524,0.00625087635334,7.00422427112,0.0,0.0,0.0,0.0,0.0,0.0,0.0,0.0,0.0
33852000000,352,33852000000,imu_link,0.00102477859995,-0.376088352011,0.000466712922912,0.926583122817,0.0,0.0,0.0,0.0,0.0,0.0,0.0,0.0,0.0,-0.00166453818019,-0.00680063407475,0.000641339385449,0.0,0.0,0.0,0.0,0.0,0.0,0.0,0.0,0.0,6.61747634736,0.0064647742053,7.00223309098,0.0,0.0,0.0,0.0,0.0,0.0,0.0,0.0,0.0
33856000000,353,33856000000,imu_link,0.00102227905651,-0.376100243325,0.000466726195096,0.926578298949,0.0,0.0,0.0,0.0,0.0,0.0,0.0,0.0,0.0,-0.00115582484187,-0.00641565552341,0.000483392139656,0.0,0.0,0.0,0.0,0.0,0.0,0.0,0.0,0.0,6.61731430564,0.00667955416073,7.00143059341,0.0,0.0,0.0,0.0,0.0,0.0,0.0,0.0,0.0
33860000000,354,33860000000,imu_link,0.00102099937929,-0.376111724542,0.000466805183701,0.926573639985,0.0,0.0,0.0,0.0,0.0,0.0,0.0,0.0,0.0,-0.000578304665586,-0.00619490282358,0.000284193754303,0.0,0.0,0.0,0.0,0.0,0.0,0.0,0.0,0.0,6.61841466518,0.00687216277037,7.00478326876,0.0,0.0,0.0,0.0,0.0,0.0,0.0,0.0,0.0
33864000000,355,33864000000,imu_link,0.00102112787909,-0.376123049415,0.000466933147533,0.926569042743,0.0,0.0,0.0,0.0,0.0,0.0,0.0,0.0,0.0,8.33002489149e-05,-0.0061111675585,4.19731687281e-05,0.0,0.0,0.0,0.0,0.0,0.0,0.0,0.0,0.0,6.61857074882,0.00706436262558,7.00584087906,0.0,0.0,0.0,0.0,0.0,0.0,0.0,0.0,0.0
33868000000,356,33868000000,imu_link,0.00102290801755,-0.376134276326,0.000467082881808,0.926564483274,0.0,0.0,0.0,0.0,0.0,0.0,0.0,0.0,0.0,0.000852576641364,-0.00605905384471,-0.000258609441493,0.0,0.0,0.0,0.0,0.0,0.0,0.0,0.0,0.0,6.61947118813,0.00727076194347,7.00667867685,0.0,0.0,0.0,0.0,0.0,0.0,0.0,0.0,0.0
33872000000,357,33872000000,imu_link,0.00102642298759,-0.376145242227,0.000467236832659,0.926560027681,0.0,0.0,0.0,0.0,0.0,0.0,0.0,0.0,0.0,0.00165709413408,-0.00591900022019,-0.000583078540545,0.0,0.0,0.0,0.0,0.0,0.0,0.0,0.0,0.0,6.61936426289,0.00751806791304,7.00305293539,0.0,0.0,0.0,0.0,0.0,0.0,0.0,0.0,0.0
33876000000,358,33876000000,imu_link,0.00103136700571,-0.376155735627,0.000467362428383,0.92655576217,0.0,0.0,0.0,0.0,0.0,0.0,0.0,0.0,0.0,0.00231382355917,-0.0056646988162,-0.000865266623229,0.0,0.0,0.0,0.0,0.0,0.0,0.0,0.0,0.0,6.61930769213,0.00783407227642,6.99912024209,0.0,0.0,0.0,0.0,0.0,0.0,0.0,0.0,0.0
33880000000,359,33880000000,imu_link,0.00103705593945,-0.376165553868,0.000467392650953,0.926551769812,0.0,0.0,0.0,0.0,0.0,0.0,0.0,0.0,0.0,0.00264100581947,-0.00530076180478,-0.00104996503583,0.0,0.0,0.0,0.0,0.0,0.0,0.0,0.0,0.0,6.62125810367,0.00816661167451,6.99931211688,0.0,0.0,0.0,0.0,0.0,0.0,0.0,0.0,0.0
33884000000,360,33884000000,imu_link,0.00104271586876,-0.376174744416,0.000467265908343,0.926548032252,0.0,0.0,0.0,0.0,0.0,0.0,0.0,0.0,0.0,0.00259806088914,-0.00496211850265,-0.00111761300583,0.0,0.0,0.0,0.0,0.0,0.0,0.0,0.0,0.0,6.62287678552,0.00846541664516,7.00120743726,0.0,0.0,0.0,0.0,0.0,0.0,0.0,0.0,0.0
33888000000,361,33888000000,imu_link,0.00104786430095,-0.376183458503,0.000466951399826,0.92654448867,0.0,0.0,0.0,0.0,0.0,0.0,0.0,0.0,0.0,0.00232579135546,-0.00470487978556,-0.00110868765069,0.0,0.0,0.0,0.0,0.0,0.0,0.0,0.0,0.0,6.62420736416,0.00865209961159,7.00337717902,0.0,0.0,0.0,0.0,0.0,0.0,0.0,0.0,0.0
33892000000,362,33892000000,imu_link,0.00105244085482,-0.376192071645,0.000466415105066,0.926540986712,0.0,0.0,0.0,0.0,0.0,0.0,0.0,0.0,0.0,0.00201914160296,-0.0046502684248,-0.001103932084,0.0,0.0,0.0,0.0,0.0,0.0,0.0,0.0,0.0,6.62527177858,0.00863691786631,7.00689948524,0.0,0.0,0.0,0.0,0.0,0.0,0.0,0.0,0.0
33896000000,363,33896000000,imu_link,0.00105645827619,-0.376200900399,0.000465632921914,0.926537397853,0.0,0.0,0.0,0.0,0.0,0.0,0.0,0.0,0.0,0.00171385682912,-0.00476650005798,-0.00111254058893,0.0,0.0,0.0,0.0,0.0,0.0,0.0,0.0,0.0,6.62506971276,0.00855834575862,7.00762769693,0.0,0.0,0.0,0.0,0.0,0.0,0.0,0.0,0.0
33900000000,364,33900000000,imu_link,0.00105989819994,-0.376210069606,0.000464619655769,0.926533671418,0.0,0.0,0.0,0.0,0.0,0.0,0.0,0.0,0.0,0.00140284684878,-0.00495008670242,-0.00111075467621,0.0,0.0,0.0,0.0,0.0,0.0,0.0,0.0,0.0,6.62445723264,0.00846209994719,7.00577697256,0.0,0.0,0.0,0.0,0.0,0.0,0.0,0.0,0.0
33904000000,365,33904000000,imu_link,0.00106243960585,-0.376219556337,0.000463402029834,0.926529817065,0.0,0.0,0.0,0.0,0.0,0.0,0.0,0.0,0.0,0.000948146258232,-0.00512114675515,-0.00103621407374,0.0,0.0,0.0,0.0,0.0,0.0,0.0,0.0,0.0,6.62491533324,0.00844139278267,7.00464950807,0.0,0.0,0.0,0.0,0.0,0.0,0.0,0.0,0.0
33908000000,366,33908000000,imu_link,0.0010637261191,-0.376229208569,0.00046202105747,0.926525896909,0.0,0.0,0.0,0.0,0.0,0.0,0.0,0.0,0.0,0.00033606806907,-0.00520999165318,-0.000875725996371,0.0,0.0,0.0,0.0,0.0,0.0,0.0,0.0,0.0,6.62603028914,0.00840060911224,7.00361720128,0.0,0.0,0.0,0.0,0.0,0.0,0.0,0.0,0.0
33912000000,367,33912000000,imu_link,0.0010635063332,-0.37623894925,0.000460491577111,0.926521942519,0.0,0.0,0.0,0.0,0.0,0.0,0.0,0.0,0.0,-0.000389683264339,-0.00525713778023,-0.000661112428312,0.0,0.0,0.0,0.0,0.0,0.0,0.0,0.0,0.0,6.62768663671,0.00830114178544,7.00438539018,0.0,0.0,0.0,0.0,0.0,0.0,0.0,0.0,0.0
33916000000,368,33916000000,imu_link,0.00106189622687,-0.376248894327,0.000458852458686,0.926517906653,0.0,0.0,0.0,0.0,0.0,0.0,0.0,0.0,0.0,-0.00105439324449,-0.00536689217202,-0.000450229670367,0.0,0.0,0.0,0.0,0.0,0.0,0.0,0.0,0.0,6.62819512209,0.00811101825314,7.00433384303,0.0,0.0,0.0,0.0,0.0,0.0,0.0,0.0,0.0
33920000000,369,33920000000,imu_link,0.00105944088721,-0.376259128228,0.00045713154765,0.926513754372,0.0,0.0,0.0,0.0,0.0,0.0,0.0,0.0,0.0,-0.00146134679701,-0.00552244215967,-0.000328931716947,0.0,0.0,0.0,0.0,0.0,0.0,0.0,0.0,0.0,6.62965166824,0.00788279256478,7.00627478376,0.0,0.0,0.0,0.0,0.0,0.0,0.0,0.0,0.0
33924000000,370,33924000000,imu_link,0.00105698382637,-0.376269593578,0.000455367149925,0.926509507978,0.0,0.0,0.0,0.0,0.0,0.0,0.0,0.0,0.0,-0.00147032832879,-0.00564739071938,-0.000348609303958,0.0,0.0,0.0,0.0,0.0,0.0,0.0,0.0,0.0,6.6318163813,0.00768234661919,7.00823473779,0.0,0.0,0.0,0.0,0.0,0.0,0.0,0.0,0.0
33928000000,371,33928000000,imu_link,0.00105517954956,-0.376280125394,0.000453574454817,0.926505233714,0.0,0.0,0.0,0.0,0.0,0.0,0.0,0.0,0.0,-0.00117324714456,-0.0056835879429,-0.00048448812251,0.0,0.0,0.0,0.0,0.0,0.0,0.0,0.0,0.0,6.63259732889,0.00767852423311,7.00660296598,0.0,0.0,0.0,0.0,0.0,0.0,0.0,0.0,0.0
33932000000,372,33932000000,imu_link,0.0010543577023,-0.376290604163,0.000451767917607,0.926500979737,0.0,0.0,0.0,0.0,0.0,0.0,0.0,0.0,0.0,-0.000720737015734,-0.00565542732469,-0.000675767455451,0.0,0.0,0.0,0.0,0.0,0.0,0.0,0.0,0.0,6.63257037229,0.00784382678167,7.00375656202,0.0,0.0,0.0,0.0,0.0,0.0,0.0,0.0,0.0
33936000000,373,33936000000,imu_link,0.00105441791977,-0.376301061014,0.000449936461022,0.926496733529,0.0,0.0,0.0,0.0,0.0,0.0,0.0,0.0,0.0,-0.000316807704679,-0.00564402458422,-0.000853281012965,0.0,0.0,0.0,0.0,0.0,0.0,0.0,0.0,0.0,6.63219536656,0.00813516384937,7.00135907164,0.0,0.0,0.0,0.0,0.0,0.0,0.0,0.0,0.0
33940000000,374,33940000000,imu_link,0.00105541551435,-0.376311261576,0.000448108656639,0.926492590206,0.0,0.0,0.0,0.0,0.0,0.0,0.0,0.0,0.0,0.000118121292098,-0.00550615042041,-0.00102811540138,0.0,0.0,0.0,0.0,0.0,0.0,0.0,0.0,0.0,6.63262826594,0.0083329261509,6.99811356219,0.0,0.0,0.0,0.0,0.0,0.0,0.0,0.0,0.0
33944000000,375,33944000000,imu_link,0.00105754575662,-0.376321026786,0.000446356064001,0.926488622252,0.0,0.0,0.0,0.0,0.0,0.0,0.0,0.0,0.0,0.000656972648118,-0.00527169209787,-0.0012066569104,0.0,0.0,0.0,0.0,0.0,0.0,0.0,0.0,0.0,6.63361108826,0.00847328968644,6.99645655289,0.0,0.0,0.0,0.0,0.0,0.0,0.0,0.0,0.0
33948000000,376,33948000000,imu_link,0.00106096659683,-0.376330202363,0.000444717062132,0.926484892141,0.0,0.0,0.0,0.0,0.0,0.0,0.0,0.0,0.0,0.00127621392869,-0.00495402347466,-0.00139724106707,0.0,0.0,0.0,0.0,0.0,0.0,0.0,0.0,0.0,6.63590151715,0.00866303913047,6.99765067063,0.0,0.0,0.0,0.0,0.0,0.0,0.0,0.0,0.0
33952000000,377,33952000000,imu_link,0.00106577821223,-0.376338680716,0.000443199658548,0.926481443467,0.0,0.0,0.0,0.0,0.0,0.0,0.0,0.0,0.0,0.00194336631834,-0.00457832830389,-0.00160303937919,0.0,0.0,0.0,0.0,0.0,0.0,0.0,0.0,0.0,6.63559352591,0.0088803270092,6.99458668099,0.0,0.0,0.0,0.0,0.0,0.0,0.0,0.0,0.0
33956000000,378,33956000000,imu_link,0.00107192165242,-0.376346122412,0.000441807271657,0.926478414177,0.0,0.0,0.0,0.0,0.0,0.0,0.0,0.0,0.0,0.00258385234054,-0.00401941950145,-0.00179638050717,0.0,0.0,0.0,0.0,0.0,0.0,0.0,0.0,0.0,6.6362126917,0.00913936917125,6.99120468664,0.0,0.0,0.0,0.0,0.0,0.0,0.0,0.0,0.0
33960000000,379,33960000000,imu_link,0.00107925178212,-0.376352355606,0.000440566838929,0.926475874239,0.0,0.0,0.0,0.0,0.0,0.0,0.0,0.0,0.0,0.0031621718212,-0.00336769197729,-0.00195004818985,0.0,0.0,0.0,0.0,0.0,0.0,0.0,0.0,0.0,6.63672485157,0.00938464752712,6.9892284742,0.0,0.0,0.0,0.0,0.0,0.0,0.0,0.0,0.0
33964000000,380,33964000000,imu_link,0.00108766941446,-0.376357476759,0.000439508211067,0.92647378457,0.0,0.0,0.0,0.0,0.0,0.0,0.0,0.0,0.0,0.00370015762662,-0.00276796342812,-0.00207117063984,0.0,0.0,0.0,0.0,0.0,0.0,0.0,0.0,0.0,6.63716090391,0.00957870304114,6.98944599869,0.0,0.0,0.0,0.0,0.0,0.0,0.0,0.0,0.0
33968000000,381,33968000000,imu_link,0.00109700757984,-0.376361690544,0.000438625310762,0.92647206222,0.0,0.0,0.0,0.0,0.0,0.0,0.0,0.0,0.0,0.00415965032476,-0.00227862263245,-0.00216356607805,0.0,0.0,0.0,0.0,0.0,0.0,0.0,0.0,0.0,6.63774847548,0.00977089311618,6.99087254004,0.0,0.0,0.0,0.0,0.0,0.0,0.0,0.0,0.0
33972000000,382,33972000000,imu_link,0.00110705218541,-0.376365292664,0.000437886554192,0.92647058732,0.0,0.0,0.0,0.0,0.0,0.0,0.0,0.0,0.0,0.00451402238128,-0.00194878767817,-0.0022301217883,0.0,0.0,0.0,0.0,0.0,0.0,0.0,0.0,0.0,6.63860518785,0.00996933363105,6.99357831258,0.0,0.0,0.0,0.0,0.0,0.0,0.0,0.0,0.0
33976000000,383,33976000000,imu_link,0.00111756939547,-0.376368517687,0.000437268575092,0.926469264859,0.0,0.0,0.0,0.0,0.0,0.0,0.0,0.0,0.0,0.00475567586784,-0.00174545369903,-0.00226335147249,0.0,0.0,0.0,0.0,0.0,0.0,0.0,0.0,0.0,6.63875888217,0.0101502684541,6.99427020663,0.0,0.0,0.0,0.0,0.0,0.0,0.0,0.0,0.0
