%time,field.header.seq,field.header.stamp,field.header.frame_id,field.orientation.x,field.orientation.y,field.orientation.z,field.orientation.w,field.orientation_covariance0,field.orientation_covariance1,field.orientation_covariance2,field.orientation_covariance3,field.orientation_covariance4,field.orientation_covariance5,field.orientation_covariance6,field.orientation_covariance7,field.orientation_covariance8,field.angular_velocity.x,field.angular_velocity.y,field.angular_velocity.z,field.angular_velocity_covariance0,field.angular_velocity_covariance1,field.angular_velocity_covariance2,field.angular_velocity_covariance3,field.angular_velocity_covariance4,field.angular_velocity_covariance5,field.angular_velocity_covariance6,field.angular_velocity_covariance7,field.angular_velocity_covariance8,field.linear_acceleration.x,field.linear_acceleration.y,field.linear_acceleration.z,field.linear_acceleration_covariance0,field.linear_acceleration_covariance1,field.linear_acceleration_covariance2,field.linear_acceleration_covariance3,field.linear_acceleration_covariance4,field.linear_acceleration_covariance5,field.linear_acceleration_covariance6,field.linear_acceleration_covariance7,field.linear_acceleration_covariance8
21436000000,0,21436000000,imu_link,-0.000469177308761,-0.366524907695,-0.000805469137074,0.930407772502,0.0,0.0,0.0,0.0,0.0,0.0,0.0,0.0,0.0,0.00376852971397,0.00245735128844,-0.00168175495149,0.0,0.0,0.0,0.0,0.0,0.0,0.0,0.0,0.0,5.42783371821,0.000878196094242,8.09897468691,0.0,0.0,0.0,0.0,0.0,0.0,0.0,0.0,0.0
21440000000,1,21440000000,imu_link,-0.000459774423338,-0.366520596192,-0.000805619958498,0.930409475527,0.0,0.0,0.0,0.0,0.0,0.0,0.0,0.0,0.0,0.00434528205621,0.00232165070452,-0.00179166127165,0.0,0.0,0.0,0.0,0.0,0.0,0.0,0.0,0.0,5.43322776466,0.00101155133431,8.09195199342,0.0,0.0,0.0,0.0,0.0,0.0,0.0,0.0,0.0
21444000000,2,21444000000,imu_link,-0.000449296711982,-0.366516597745,-0.00080556589612,0.93041105581,0.0,0.0,0.0,0.0,0.0,0.0,0.0,0.0,0.0,0.0048829411238,0.00215390750424,-0.00189344268678,0.0,0.0,0.0,0.0,0.0,0.0,0.0,0.0,0.0,5.43956444108,0.00112640650139,8.08778604644,0.0,0.0,0.0,0.0,0.0,0.0,0.0,0.0,0.0
21448000000,3,21448000000,imu_link,-0.00043812334599,-0.36651270781,-0.000805386790419,0.930412593645,0.0,0.0,0.0,0.0,0.0,0.0,0.0,0.0,0.0,0.00522951290394,0.00209590099468,-0.00196279780113,0.0,0.0,0.0,0.0,0.0,0.0,0.0,0.0,0.0,5.4458078069,0.00127238063657,8.0821258192,0.0,0.0,0.0,0.0,0.0,0.0,0.0,0.0,0.0
21452000000,4,21452000000,imu_link,-0.000426757564217,-0.366508732618,-0.000805162535987,0.93041416504,0.0,0.0,0.0,0.0,0.0,0.0,0.0,0.0,0.0,0.00532727274752,0.00214178000886,-0.00197702355093,0.0,0.0,0.0,0.0,0.0,0.0,0.0,0.0,0.0,5.45235841829,0.00135831589538,8.07774664697,0.0,0.0,0.0,0.0,0.0,0.0,0.0,0.0,0.0
21456000000,5,21456000000,imu_link,-0.00041598802492,-0.366504450602,-0.000804963687014,0.930415856849,0.0,0.0,0.0,0.0,0.0,0.0,0.0,0.0,0.0,0.00504514303637,0.00230634866642,-0.00187946436672,0.0,0.0,0.0,0.0,0.0,0.0,0.0,0.0,0.0,5.45830109329,0.00141990539025,8.07169564446,0.0,0.0,0.0,0.0,0.0,0.0,0.0,0.0,0.0
21460000000,6,21460000000,imu_link,-0.000406166944966,-0.366499555297,-0.000804802750294,0.930417789645,0.0,0.0,0.0,0.0,0.0,0.0,0.0,0.0,0.0,0.00459676801138,0.00263544309921,-0.00172306960874,0.0,0.0,0.0,0.0,0.0,0.0,0.0,0.0,0.0,5.46389699647,0.00130521242499,8.06408303926,0.0,0.0,0.0,0.0,0.0,0.0,0.0,0.0,0.0
21464000000,7,21464000000,imu_link,-0.000397172203703,-0.366493637513,-0.000804636194682,0.930420124716,0.0,0.0,0.0,0.0,0.0,0.0,0.0,0.0,0.0,0.00421304781129,0.00318449274154,-0.00156865974456,0.0,0.0,0.0,0.0,0.0,0.0,0.0,0.0,0.0,5.46957799082,0.00106813442991,8.05606801236,0.0,0.0,0.0,0.0,0.0,0.0,0.0,0.0,0.0
21468000000,8,21468000000,imu_link,-0.000388569111601,-0.366486323736,-0.000804404389701,0.930423009422,0.0,0.0,0.0,0.0,0.0,0.0,0.0,0.0,0.0,0.00404235293619,0.00393447113982,-0.00146603826559,0.0,0.0,0.0,0.0,0.0,0.0,0.0,0.0,0.0,5.47572696482,0.000807625978531,8.04995272737,0.0,0.0,0.0,0.0,0.0,0.0,0.0,0.0,0.0
21472000000,9,21472000000,imu_link,-0.000380148769279,-0.366477578558,-0.00080407532623,0.930426457794,0.0,0.0,0.0,0.0,0.0,0.0,0.0,0.0,0.0,0.003974691389,0.00470357067786,-0.00138680004278,0.0,0.0,0.0,0.0,0.0,0.0,0.0,0.0,0.0,5.48068637863,0.000659951787093,8.04310143418,0.0,0.0,0.0,0.0,0.0,0.0,0.0,0.0,0.0
21476000000,10,21476000000,imu_link,-0.000372155959703,-0.366467662968,-0.000803705835139,0.930430366849,0.0,0.0,0.0,0.0,0.0,0.0,0.0,0.0,0.0,0.00378282242174,0.00533229739006,-0.00128924431957,0.0,0.0,0.0,0.0,0.0,0.0,0.0,0.0,0.0,5.48591782821,0.00063708045321,8.03907880332,0.0,0.0,0.0,0.0,0.0,0.0,0.0,0.0,0.0
21480000000,11,21480000000,imu_link,-0.00036507002707,-0.366456899285,-0.000803392621691,0.930434609336,0.0,0.0,0.0,0.0,0.0,0.0,0.0,0.0,0.0,0.00335033876622,0.00578758492341,-0.00114896319419,0.0,0.0,0.0,0.0,0.0,0.0,0.0,0.0,0.0,5.49189851193,0.000631661971199,8.03756563973,0.0,0.0,0.0,0.0,0.0,0.0,0.0,0.0,0.0
21484000000,12,21484000000,imu_link,-0.000359445123865,-0.366445505929,-0.000803216948136,0.930439098935,0.0,0.0,0.0,0.0,0.0,0.0,0.0,0.0,0.0,0.00264523354086,0.00612523630004,-0.000945032774176,0.0,0.0,0.0,0.0,0.0,0.0,0.0,0.0,0.0,5.49811595477,0.0005706418588,8.0361338413,0.0,0.0,0.0,0.0,0.0,0.0,0.0,0.0,0.0
21488000000,13,21488000000,imu_link,-0.000355514042677,-0.36643367838,-0.000803228963806,0.930443758527,0.0,0.0,0.0,0.0,0.0,0.0,0.0,0.0,0.0,0.00182270166549,0.00635773102892,-0.000721856433009,0.0,0.0,0.0,0.0,0.0,0.0,0.0,0.0,0.0,5.50356898547,0.00036990547387,8.03214264517,0.0,0.0,0.0,0.0,0.0,0.0,0.0,0.0,0.0
21492000000,14,21492000000,imu_link,-0.000353088181889,-0.366421455347,-0.000803384512459,0.930448572982,0.0,0.0,0.0,0.0,0.0,0.0,0.0,0.0,0.0,0.00109601123824,0.00656951367568,-0.000512716898119,0.0,0.0,0.0,0.0,0.0,0.0,0.0,0.0,0.0,5.5093163302,2.93685304644e-05,8.02794615729,0.0,0.0,0.0,0.0,0.0,0.0,0.0,0.0,0.0
21496000000,15,21496000000,imu_link,-0.00035178537791,-0.366408828785,-0.000803611156527,0.930453545667,0.0,0.0,0.0,0.0,0.0,0.0,0.0,0.0,0.0,0.000560378332957,0.00678579611343,-0.000339901355653,0.0,0.0,0.0,0.0,0.0,0.0,0.0,0.0,0.0,5.51448959823,-0.000342231193198,8.02215633167,0.0,0.0,0.0,0.0,0.0,0.0,0.0,0.0,0.0
21500000000,16,21500000000,imu_link,-0.000351099261782,-0.366395748175,-0.000803835415823,0.930458696718,0.0,0.0,0.0,0.0,0.0,0.0,0.0,0.0,0.0,0.000273764468943,0.00702946018332,-0.00022566042739,0.0,0.0,0.0,0.0,0.0,0.0,0.0,0.0,0.0,5.5201764645,-0.00064087183135,8.01760022509,0.0,0.0,0.0,0.0,0.0,0.0,0.0,0.0,0.0
21504000000,17,21504000000,imu_link,-0.000350690765227,-0.366382247749,-0.000804023789786,0.930464012789,0.0,0.0,0.0,0.0,0.0,0.0,0.0,0.0,0.0,0.000151042050711,0.00725488462041,-0.000157966178123,0.0,0.0,0.0,0.0,0.0,0.0,0.0,0.0,0.0,5.52595238191,-0.000804724984403,8.01381308889,0.0,0.0,0.0,0.0,0.0,0.0,0.0,0.0,0.0
21508000000,18,21508000000,imu_link,-0.000350357650168,-0.366368293502,-0.000804176751311,0.930469507327,0.0,0.0,0.0,0.0,0.0,0.0,0.0,0.0,0.0,0.000122308262343,0.00749867331662,-0.00012753063733,0.0,0.0,0.0,0.0,0.0,0.0,0.0,0.0,0.0,5.53099420323,-0.000878074041323,8.00754375036,0.0,0.0,0.0,0.0,0.0,0.0,0.0,0.0,0.0
21512000000,19,21512000000,imu_link,-0.000350237578858,-0.366353838568,-0.000804362800823,0.930475198649,0.0,0.0,0.0,0.0,0.0,0.0,0.0,0.0,0.0,1.69648634793e-05,0.00776757884964,-0.00010373124637,0.0,0.0,0.0,0.0,0.0,0.0,0.0,0.0,0.0,5.53686369139,-0.000854125552163,8.00329454567,0.0,0.0,0.0,0.0,0.0,0.0,0.0,0.0,0.0
21516000000,20,21516000000,imu_link,-0.000350458087831,-0.366338771407,-0.000804616250809,0.930481130564,0.0,0.0,0.0,0.0,0.0,0.0,0.0,0.0,0.0,-0.000154036195354,0.00809635536174,-7.24980599456e-05,0.0,0.0,0.0,0.0,0.0,0.0,0.0,0.0,0.0,5.54124789182,-0.000869157692158,7.9951329287,0.0,0.0,0.0,0.0,0.0,0.0,0.0,0.0,0.0
21520000000,21,21520000000,imu_link,-0.000351105624788,-0.366323006194,-0.000804959244408,0.930487336775,0.0,0.0,0.0,0.0,0.0,0.0,0.0,0.0,0.0,-0.00036934135141,0.00847120381966,-3.57062573687e-05,0.0,0.0,0.0,0.0,0.0,0.0,0.0,0.0,0.0,5.54554026225,-0.000900336951034,7.98729823082,0.0,0.0,0.0,0.0,0.0,0.0,0.0,0.0,0.0
21524000000,22,21524000000,imu_link,-0.000352106959774,-0.366306657672,-0.000805419392654,0.930493772073,0.0,0.0,0.0,0.0,0.0,0.0,0.0,0.0,0.0,-0.000555596419281,0.00878442319058,-2.52149311737e-05,0.0,0.0,0.0,0.0,0.0,0.0,0.0,0.0,0.0,5.55041171071,-0.000957709725559,7.98240616624,0.0,0.0,0.0,0.0,0.0,0.0,0.0,0.0,0.0
21528000000,23,21528000000,imu_link,-0.000353435229857,-0.366289727084,-0.000806035814982,0.930500435907,0.0,0.0,0.0,0.0,0.0,0.0,0.0,0.0,0.0,-0.000736518241878,0.0090969804466,-3.78472018449e-05,0.0,0.0,0.0,0.0,0.0,0.0,0.0,0.0,0.0,5.55515985929,-0.000994984705199,7.97644029921,0.0,0.0,0.0,0.0,0.0,0.0,0.0,0.0,0.0
21532000000,24,21532000000,imu_link,-0.00035505657552,-0.366272040875,-0.000806814991667,0.930507396563,0.0,0.0,0.0,0.0,0.0,0.0,0.0,0.0,0.0,-0.000902931419512,0.00950280505815,-5.96402585716e-05,0.0,0.0,0.0,0.0,0.0,0.0,0.0,0.0,0.0,5.56045576679,-0.00102571098249,7.970917597,0.0,0.0,0.0,0.0,0.0,0.0,0.0,0.0,0.0
21536000000,25,21536000000,imu_link,-0.000357080094222,-0.366253526482,-0.00080777285175,0.930514682494,0.0,0.0,0.0,0.0,0.0,0.0,0.0,0.0,0.0,-0.00112304362938,0.00994755988555,-6.8842756054e-05,0.0,0.0,0.0,0.0,0.0,0.0,0.0,0.0,0.0,5.5644135451,-0.00102790971309,7.96246094298,0.0,0.0,0.0,0.0,0.0,0.0,0.0,0.0,0.0
21540000000,26,21540000000,imu_link,-0.00035962220329,-0.366234425898,-0.000808899835215,0.93052219836,0.0,0.0,0.0,0.0,0.0,0.0,0.0,0.0,0.0,-0.00139548832443,0.0102622178227,-5.23633495289e-05,0.0,0.0,0.0,0.0,0.0,0.0,0.0,0.0,0.0,5.57028976565,-0.00104039978431,7.96138317411,0.0,0.0,0.0,0.0,0.0,0.0,0.0,0.0,0.0
21544000000,27,21544000000,imu_link,-0.000362911813756,-0.36621533617,-0.000810221696622,0.930529709031,0.0,0.0,0.0,0.0,0.0,0.0,0.0,0.0,0.0,-0.00177895369496,0.0102559482527,-6.15615557997e-06,0.0,0.0,0.0,0.0,0.0,0.0,0.0,0.0,0.0,5.57699154734,-0.00105414928854,7.96466363158,0.0,0.0,0.0,0.0,0.0,0.0,0.0,0.0,0.0
21548000000,28,21548000000,imu_link,-0.000367045860289,-0.366196913346,-0.000811722143045,0.9305369563,0.0,0.0,0.0,0.0,0.0,0.0,0.0,0.0,0.0,-0.00220431803093,0.00989712038812,6.51495107628e-05,0.0,0.0,0.0,0.0,0.0,0.0,0.0,0.0,0.0,5.58297400181,-0.00111794955172,7.9660848496,0.0,0.0,0.0,0.0,0.0,0.0,0.0,0.0,0.0
21552000000,29,21552000000,imu_link,-0.000371861426496,-0.366179771363,-0.000813338203701,0.930543698729,0.0,0.0,0.0,0.0,0.0,0.0,0.0,0.0,0.0,-0.00254214924628,0.00920849464175,0.000135703095066,0.0,0.0,0.0,0.0,0.0,0.0,0.0,0.0,0.0,5.58915014796,-0.00123583884483,7.96736335318,0.0,0.0,0.0,0.0,0.0,0.0,0.0,0.0,0.0
21556000000,30,21556000000,imu_link,-0.000377167830442,-0.366164150288,-0.000815018171942,0.930549842047,0.0,0.0,0.0,0.0,0.0,0.0,0.0,0.0,0.0,-0.00278171594828,0.00839098024268,0.000195309696812,0.0,0.0,0.0,0.0,0.0,0.0,0.0,0.0,0.0,5.59343261035,-0.00132766648901,7.9609168461,0.0,0.0,0.0,0.0,0.0,0.0,0.0,0.0,0.0
21560000000,31,21560000000,imu_link,-0.00038275957228,-0.366150124949,-0.000816700619149,0.930555357029,0.0,0.0,0.0,0.0,0.0,0.0,0.0,0.0,0.0,-0.00291439858456,0.00753337158567,0.000245839566736,0.0,0.0,0.0,0.0,0.0,0.0,0.0,0.0,0.0,5.59786771805,-0.00138165691634,7.95434500893,0.0,0.0,0.0,0.0,0.0,0.0,0.0,0.0,0.0
21564000000,32,21564000000,imu_link,-0.000388471551534,-0.366137622642,-0.000818337838287,0.93056027247,0.0,0.0,0.0,0.0,0.0,0.0,0.0,0.0,0.0,-0.00296155504825,0.0067149198419,0.000288359349665,0.0,0.0,0.0,0.0,0.0,0.0,0.0,0.0,0.0,5.60331507033,-0.00140095826048,7.94983910991,0.0,0.0,0.0,0.0,0.0,0.0,0.0,0.0,0.0
21568000000,33,21568000000,imu_link,-0.000394068122169,-0.366126501874,-0.000819907871147,0.930564644228,0.0,0.0,0.0,0.0,0.0,0.0,0.0,0.0,0.0,-0.00289509831807,0.00597262025997,0.000298001269013,0.0,0.0,0.0,0.0,0.0,0.0,0.0,0.0,0.0,5.60815272057,-0.00140572074092,7.94364991813,0.0,0.0,0.0,0.0,0.0,0.0,0.0,0.0,0.0
21572000000,34,21572000000,imu_link,-0.000399357377012,-0.366116607463,-0.000821391856947,0.930568533516,0.0,0.0,0.0,0.0,0.0,0.0,0.0,0.0,0.0,-0.0027359499714,0.00531380427351,0.000281339792748,0.0,0.0,0.0,0.0,0.0,0.0,0.0,0.0,0.0,5.61319690014,-0.00137953809069,7.93807685361,0.0,0.0,0.0,0.0,0.0,0.0,0.0,0.0,0.0
21576000000,35,21576000000,imu_link,-0.000404139922135,-0.366107832324,-0.000822776649519,0.930571982611,0.0,0.0,0.0,0.0,0.0,0.0,0.0,0.0,0.0,-0.002481655983,0.00471263196208,0.000234331138814,0.0,0.0,0.0,0.0,0.0,0.0,0.0,0.0,0.0,5.61761515446,-0.00133934995498,7.93129419754,0.0,0.0,0.0,0.0,0.0,0.0,0.0,0.0,0.0
21580000000,36,21580000000,imu_link,-0.00040822556329,-0.366099884942,-0.000824083693317,0.93057510631,0.0,0.0,0.0,0.0,0.0,0.0,0.0,0.0,0.0,-0.00214288933533,0.00426819394779,0.000142634424555,0.0,0.0,0.0,0.0,0.0,0.0,0.0,0.0,0.0,5.62265835999,-0.00126244975802,7.92524564684,0.0,0.0,0.0,0.0,0.0,0.0,0.0,0.0,0.0
21584000000,37,21584000000,imu_link,-0.000411553475644,-0.366092352772,-0.000825361455139,0.930578066926,0.0,0.0,0.0,0.0,0.0,0.0,0.0,0.0,0.0,-0.00178482969387,0.00404545518514,1.74048032308e-05,0.0,0.0,0.0,0.0,0.0,0.0,0.0,0.0,0.0,5.62807698582,-0.00111415464952,7.91960869647,0.0,0.0,0.0,0.0,0.0,0.0,0.0,0.0,0.0
21588000000,38,21588000000,imu_link,-0.00041433354234,-0.366085162557,-0.00082667228817,0.93058089315,0.0,0.0,0.0,0.0,0.0,0.0,0.0,0.0,0.0,-0.0015358632122,0.00386197996574,-9.83897483077e-05,0.0,0.0,0.0,0.0,0.0,0.0,0.0,0.0,0.0,5.63274354431,-0.000907798981872,7.91427259745,0.0,0.0,0.0,0.0,0.0,0.0,0.0,0.0,0.0
21592000000,39,21592000000,imu_link,-0.000416596651681,-0.366078450056,-0.000828010126875,0.930583531582,0.0,0.0,0.0,0.0,0.0,0.0,0.0,0.0,0.0,-0.00130011252973,0.00360554975887,-0.000205757026762,0.0,0.0,0.0,0.0,0.0,0.0,0.0,0.0,0.0,5.63780514829,-0.000781302689495,7.9113732662,0.0,0.0,0.0,0.0,0.0,0.0,0.0,0.0,0.0
21596000000,40,21596000000,imu_link,-0.000418212925791,-0.366072448088,-0.000829328795132,0.93058589075,0.0,0.0,0.0,0.0,0.0,0.0,0.0,0.0,0.0,-0.000995400484798,0.00322409209787,-0.000315497013458,0.0,0.0,0.0,0.0,0.0,0.0,0.0,0.0,0.0,5.64291305152,-0.000701847313055,7.90912090474,0.0,0.0,0.0,0.0,0.0,0.0,0.0,0.0,0.0
21600000000,41,21600000000,imu_link,-0.000418750582304,-0.366067068041,-0.000830576527843,0.930588005772,0.0,0.0,0.0,0.0,0.0,0.0,0.0,0.0,0.0,-0.000480336716227,0.00289046178019,-0.000480148583115,0.0,0.0,0.0,0.0,0.0,0.0,0.0,0.0,0.0,5.6477052149,-0.000659188965124,7.90404601922,0.0,0.0,0.0,0.0,0.0,0.0,0.0,0.0,0.0
21604000000,42,21604000000,imu_link,-0.000417803078247,-0.3660620814,-0.000831725212141,0.93058996676,0.0,0.0,0.0,0.0,0.0,0.0,0.0,0.0,0.0,0.000228959898336,0.00267981475518,-0.000706042476409,0.0,0.0,0.0,0.0,0.0,0.0,0.0,0.0,0.0,5.653310157,-0.000547460101319,7.90053632952,0.0,0.0,0.0,0.0,0.0,0.0,0.0,0.0,0.0
21608000000,43,21608000000,imu_link,-0.000415399360128,-0.366057426236,-0.000832797865477,0.930591798045,0.0,0.0,0.0,0.0,0.0,0.0,0.0,0.0,0.0,0.000920555775613,0.0025024297218,-0.000937321211645,0.0,0.0,0.0,0.0,0.0,0.0,0.0,0.0,0.0,5.65798709562,-0.000302667386044,7.89589324019,0.0,0.0,0.0,0.0,0.0,0.0,0.0,0.0,0.0
21612000000,44,21612000000,imu_link,-0.000411991555125,-0.366053214665,-0.000833876382868,0.930593455246,0.0,0.0,0.0,0.0,0.0,0.0,0.0,0.0,0.0,0.00138682854854,0.00226458530893,-0.00112399108443,0.0,0.0,0.0,0.0,0.0,0.0,0.0,0.0,0.0,5.66302333909,4.66245088138e-06,7.89350498654,0.0,0.0,0.0,0.0,0.0,0.0,0.0,0.0,0.0
21616000000,45,21616000000,imu_link,-0.000408219055378,-0.366049774047,-0.000835048904272,0.930594809233,0.0,0.0,0.0,0.0,0.0,0.0,0.0,0.0,0.0,0.00153957356321,0.00185053833859,-0.00123476492076,0.0,0.0,0.0,0.0,0.0,0.0,0.0,0.0,0.0,5.66841985307,0.00026974590214,7.89344242956,0.0,0.0,0.0,0.0,0.0,0.0,0.0,0.0,0.0
21620000000,46,21620000000,imu_link,-0.000404637876071,-0.366047496519,-0.000836358077397,0.930595705484,0.0,0.0,0.0,0.0,0.0,0.0,0.0,0.0,0.0,0.00142593418355,0.00122552657822,-0.00126376072331,0.0,0.0,0.0,0.0,0.0,0.0,0.0,0.0,0.0,5.67426847121,0.000427540992572,7.89508002992,0.0,0.0,0.0,0.0,0.0,0.0,0.0,0.0,0.0
21624000000,47,21624000000,imu_link,-0.000401443858778,-0.366046562133,-0.000837785796297,0.930596073121,0.0,0.0,0.0,0.0,0.0,0.0,0.0,0.0,0.0,0.00122454656275,0.000503678958121,-0.0012485527729,0.0,0.0,0.0,0.0,0.0,0.0,0.0,0.0,0.0,5.67829948087,0.000441877420633,7.89042176415,0.0,0.0,0.0,0.0,0.0,0.0,0.0,0.0,0.0
21628000000,48,21628000000,imu_link,-0.000398542957905,-0.366046845035,-0.000839269575827,0.930595961752,0.0,0.0,0.0,0.0,0.0,0.0,0.0,0.0,0.0,0.00107831343398,-0.000150504054694,-0.00122143553423,0.0,0.0,0.0,0.0,0.0,0.0,0.0,0.0,0.0,5.68279813019,0.000377566088665,7.88484837363,0.0,0.0,0.0,0.0,0.0,0.0,0.0,0.0,0.0
21632000000,49,21632000000,imu_link,-0.000395795087873,-0.366047832594,-0.00084075853427,0.930595573127,0.0,0.0,0.0,0.0,0.0,0.0,0.0,0.0,0.0,0.00100640107988,-0.000529187088946,-0.00119609380797,0.0,0.0,0.0,0.0,0.0,0.0,0.0,0.0,0.0,5.68645266343,0.000302974696896,7.87464829562,0.0,0.0,0.0,0.0,0.0,0.0,0.0,0.0,0.0
21636000000,50,21636000000,imu_link,-0.000393304464967,-0.366048797128,-0.000842270094434,0.930595193419,0.0,0.0,0.0,0.0,0.0,0.0,0.0,0.0,0.0,0.000882559990797,-0.000516944957312,-0.00115951965767,0.0,0.0,0.0,0.0,0.0,0.0,0.0,0.0,0.0,5.69130066848,0.000272538199731,7.86649946661,0.0,0.0,0.0,0.0,0.0,0.0,0.0,0.0,0.0
21640000000,51,21640000000,imu_link,-0.000391436825223,-0.366049180595,-0.000843869882227,0.93059504192,0.0,0.0,0.0,0.0,0.0,0.0,0.0,0.0,0.0,0.000576339784776,-0.000205052895611,-0.00108634026689,0.0,0.0,0.0,0.0,0.0,0.0,0.0,0.0,0.0,5.69564197241,0.000282556172696,7.85875071445,0.0,0.0,0.0,0.0,0.0,0.0,0.0,0.0,0.0
21644000000,52,21644000000,imu_link,-0.000390709775059,-0.3660488161,-0.000845641256154,0.930595183992,0.0,0.0,0.0,0.0,0.0,0.0,0.0,0.0,0.0,1.39636643631e-05,0.000196254392214,-0.000957152672036,0.0,0.0,0.0,0.0,0.0,0.0,0.0,0.0,0.0,5.70050833423,0.000269190554853,7.85531784019,0.0,0.0,0.0,0.0,0.0,0.0,0.0,0.0,0.0
21648000000,53,21648000000,imu_link,-0.000391427453503,-0.366047903424,-0.000847583039211,0.930595540923,0.0,0.0,0.0,0.0,0.0,0.0,0.0,0.0,0.0,-0.000689643916282,0.000490068949058,-0.000771825094695,0.0,0.0,0.0,0.0,0.0,0.0,0.0,0.0,0.0,5.70520015285,0.000147647641693,7.85382979744,0.0,0.0,0.0,0.0,0.0,0.0,0.0,0.0,0.0
21652000000,54,21652000000,imu_link,-0.000393519619001,-0.366046730861,-0.000849637055224,0.930595999393,0.0,0.0,0.0,0.0,0.0,0.0,0.0,0.0,0.0,-0.00134982126298,0.000629017542687,-0.000572388891733,0.0,0.0,0.0,0.0,0.0,0.0,0.0,0.0,0.0,5.70983555257,-7.27914450818e-05,7.85272197741,0.0,0.0,0.0,0.0,0.0,0.0,0.0,0.0,0.0
21656000000,55,21656000000,imu_link,-0.000396648964946,-0.366045577437,-0.000851745042964,0.930596449832,0.0,0.0,0.0,0.0,0.0,0.0,0.0,0.0,0.0,-0.00184229078666,0.000618212001015,-0.000407680750303,0.0,0.0,0.0,0.0,0.0,0.0,0.0,0.0,0.0,5.71376886068,-0.00032161987472,7.84994420174,0.0,0.0,0.0,0.0,0.0,0.0,0.0,0.0,0.0
21660000000,56,21660000000,imu_link,-0.000400141321784,-0.366044506269,-0.000853825536025,0.930596867768,0.0,0.0,0.0,0.0,0.0,0.0,0.0,0.0,0.0,-0.0020061383732,0.00057382985935,-0.00032847841415,0.0,0.0,0.0,0.0,0.0,0.0,0.0,0.0,0.0,5.7184529956,-0.000566064390911,7.84778687383,0.0,0.0,0.0,0.0,0.0,0.0,0.0,0.0,0.0
21664000000,57,21664000000,imu_link,-0.00040316983183,-0.366043540161,-0.000855788335757,0.93059724467,0.0,0.0,0.0,0.0,0.0,0.0,0.0,0.0,0.0,-0.00176873404803,0.000517609769573,-0.000358648714985,0.0,0.0,0.0,0.0,0.0,0.0,0.0,0.0,0.0,5.72294323648,-0.000736011890272,7.84478718106,0.0,0.0,0.0,0.0,0.0,0.0,0.0,0.0,0.0
21668000000,58,21668000000,imu_link,-0.000405018841578,-0.366042868834,-0.000857534031335,0.930597506321,0.0,0.0,0.0,0.0,0.0,0.0,0.0,0.0,0.0,-0.00118007649461,0.000359815646898,-0.000473613422182,0.0,0.0,0.0,0.0,0.0,0.0,0.0,0.0,0.0,5.727242826,-0.000766932321221,7.84231625409,0.0,0.0,0.0,0.0,0.0,0.0,0.0,0.0,0.0
21672000000,59,21672000000,imu_link,-0.000405675400826,-0.366042765566,-0.000859039276752,0.930597545266,0.0,0.0,0.0,0.0,0.0,0.0,0.0,0.0,0.0,-0.000581024766406,5.52020317665e-05,-0.000580186789015,0.0,0.0,0.0,0.0,0.0,0.0,0.0,0.0,0.0,5.73111730043,-0.000569912846628,7.83905214339,0.0,0.0,0.0,0.0,0.0,0.0,0.0,0.0,0.0
21676000000,60,21676000000,imu_link,-0.000405782952873,-0.366043393012,-0.000860403480923,0.930597297158,0.0,0.0,0.0,0.0,0.0,0.0,0.0,0.0,0.0,-0.000299503193982,-0.000337128644696,-0.000615312038952,0.0,0.0,0.0,0.0,0.0,0.0,0.0,0.0,0.0,5.73448344293,-0.000243542094399,7.83391242408,0.0,0.0,0.0,0.0,0.0,0.0,0.0,0.0,0.0
21680000000,61,21680000000,imu_link,-0.000406330651097,-0.366044990664,-0.000861764636812,0.930596667234,0.0,0.0,0.0,0.0,0.0,0.0,0.0,0.0,0.0,-0.000503404797388,-0.000858634433825,-0.000533698482075,0.0,0.0,0.0,0.0,0.0,0.0,0.0,0.0,0.0,5.73895726848,4.0260934351e-05,7.83226822072,0.0,0.0,0.0,0.0,0.0,0.0,0.0,0.0,0.0
21684000000,62,21684000000,imu_link,-0.000408052362597,-0.366047962501,-0.000863238472942,0.930595496154,0.0,0.0,0.0,0.0,0.0,0.0,0.0,0.0,0.0,-0.00106981206881,-0.00159756750283,-0.00037176993256,0.0,0.0,0.0,0.0,0.0,0.0,0.0,0.0,0.0,5.74393448852,0.000126815218477,7.83304808964,0.0,0.0,0.0,0.0,0.0,0.0,0.0,0.0,0.0
21688000000,63,21688000000,imu_link,-0.000411135141412,-0.366052599347,-0.000864826167052,0.930593669415,0.0,0.0,0.0,0.0,0.0,0.0,0.0,0.0,0.0,-0.001723367488,-0.00249285780072,-0.000176262535895,0.0,0.0,0.0,0.0,0.0,0.0,0.0,0.0,0.0,5.74828409892,9.20660251913e-06,7.83130271567,0.0,0.0,0.0,0.0,0.0,0.0,0.0,0.0,0.0
21692000000,64,21692000000,imu_link,-0.0004155562206,-0.366058784574,-0.000866517306408,0.930591232872,0.0,0.0,0.0,0.0,0.0,0.0,0.0,0.0,0.0,-0.00236446343234,-0.00332548164395,1.99669002039e-05,0.0,0.0,0.0,0.0,0.0,0.0,0.0,0.0,0.0,5.75248505632,-0.000174431342191,7.82639175592,0.0,0.0,0.0,0.0,0.0,0.0,0.0,0.0,0.0
21696000000,65,21696000000,imu_link,-0.000420984634045,-0.366066119208,-0.000868252217637,0.930588343618,0.0,0.0,0.0,0.0,0.0,0.0,0.0,0.0,0.0,-0.00284077925788,-0.00394358319028,0.000183536853328,0.0,0.0,0.0,0.0,0.0,0.0,0.0,0.0,0.0,5.75556360378,-0.000399393876277,7.81678015913,0.0,0.0,0.0,0.0,0.0,0.0,0.0,0.0,0.0
21700000000,66,21700000000,imu_link,-0.000426899774125,-0.366074052917,-0.000869950151584,0.93058521841,0.0,0.0,0.0,0.0,0.0,0.0,0.0,0.0,0.0,-0.0030602718523,-0.00426573536788,0.000289600698593,0.0,0.0,0.0,0.0,0.0,0.0,0.0,0.0,0.0,5.76000182817,-0.000595621394451,7.80986122512,0.0,0.0,0.0,0.0,0.0,0.0,0.0,0.0,0.0
21704000000,67,21704000000,imu_link,-0.000432978200739,-0.366082174223,-0.000871547213491,0.930582019304,0.0,0.0,0.0,0.0,0.0,0.0,0.0,0.0,0.0,-0.00311771872507,-0.00436664174839,0.000366351007367,0.0,0.0,0.0,0.0,0.0,0.0,0.0,0.0,0.0,5.76312335247,-0.000680137909784,7.8008806915,0.0,0.0,0.0,0.0,0.0,0.0,0.0,0.0,0.0
21708000000,68,21708000000,imu_link,-0.00043908013293,-0.36609011979,-0.000872996156978,0.930578889336,0.0,0.0,0.0,0.0,0.0,0.0,0.0,0.0,0.0,-0.0031016055166,-0.00427225876102,0.000439639838256,0.0,0.0,0.0,0.0,0.0,0.0,0.0,0.0,0.0,5.76642853855,-0.000689408151058,7.79295630299,0.0,0.0,0.0,0.0,0.0,0.0,0.0,0.0,0.0
21712000000,69,21712000000,imu_link,-0.000445159746296,-0.36609769161,-0.000874282309243,0.930575906448,0.0,0.0,0.0,0.0,0.0,0.0,0.0,0.0,0.0,-0.00306155352422,-0.00407146243233,0.000511445776264,0.0,0.0,0.0,0.0,0.0,0.0,0.0,0.0,0.0,5.76968731353,-0.000674678139789,7.78630201629,0.0,0.0,0.0,0.0,0.0,0.0,0.0,0.0,0.0
21716000000,70,21716000000,imu_link,-0.000451255696619,-0.366104965506,-0.000875445295154,0.930573040763,0.0,0.0,0.0,0.0,0.0,0.0,0.0,0.0,0.0,-0.00304671360172,-0.00391142226854,0.000571861605489,0.0,0.0,0.0,0.0,0.0,0.0,0.0,0.0,0.0,5.77302073082,-0.000648543425652,7.78174580604,0.0,0.0,0.0,0.0,0.0,0.0,0.0,0.0,0.0
21720000000,71,21720000000,imu_link,-0.000457323621891,-0.366112215191,-0.000876536512952,0.930570184579,0.0,0.0,0.0,0.0,0.0,0.0,0.0,0.0,0.0,-0.00302054504678,-0.00389842209361,0.00060013390631,0.0,0.0,0.0,0.0,0.0,0.0,0.0,0.0,0.0,5.77616221205,-0.000601730170958,7.77815216245,0.0,0.0,0.0,0.0,0.0,0.0,0.0,0.0,0.0
21724000000,72,21724000000,imu_link,-0.000463074874115,-0.366119680031,-0.000877560287235,0.930567243859,0.0,0.0,0.0,0.0,0.0,0.0,0.0,0.0,0.0,-0.00286078088497,-0.00401388193407,0.000573459186171,0.0,0.0,0.0,0.0,0.0,0.0,0.0,0.0,0.0,5.7804632791,-0.00060101260382,7.77733823507,0.0,0.0,0.0,0.0,0.0,0.0,0.0,0.0,0.0
21728000000,73,21728000000,imu_link,-0.000468526901782,-0.366127459724,-0.000878558489918,0.930564179331,0.0,0.0,0.0,0.0,0.0,0.0,0.0,0.0,0.0,-0.0027167659817,-0.0041829167943,0.000530454008539,0.0,0.0,0.0,0.0,0.0,0.0,0.0,0.0,0.0,5.78379651171,-0.000485573696369,7.77300334327,0.0,0.0,0.0,0.0,0.0,0.0,0.0,0.0,0.0
21732000000,74,21732000000,imu_link,-0.000473792105725,-0.366135564951,-0.000879563546586,0.930560986699,0.0,0.0,0.0,0.0,0.0,0.0,0.0,0.0,0.0,-0.00263098197445,-0.00435774953548,0.000492931790386,0.0,0.0,0.0,0.0,0.0,0.0,0.0,0.0,0.0,5.78777531833,-0.000366039188886,7.7696128273,0.0,0.0,0.0,0.0,0.0,0.0,0.0,0.0,0.0
21736000000,75,21736000000,imu_link,-0.000479030416435,-0.366144079992,-0.000880604592165,0.930557632687,0.0,0.0,0.0,0.0,0.0,0.0,0.0,0.0,0.0,-0.00262491548941,-0.00457795136714,0.00047109551198,0.0,0.0,0.0,0.0,0.0,0.0,0.0,0.0,0.0,5.79060441007,-0.000273155459065,7.76397265313,0.0,0.0,0.0,0.0,0.0,0.0,0.0,0.0,0.0
21740000000,76,21740000000,imu_link,-0.000484338049973,-0.366153176231,-0.000881684316769,0.930554049792,0.0,0.0,0.0,0.0,0.0,0.0,0.0,0.0,0.0,-0.00266404989932,-0.00489029349379,0.000465550069329,0.0,0.0,0.0,0.0,0.0,0.0,0.0,0.0,0.0,5.79394006638,-0.000219739480704,7.76033785622,0.0,0.0,0.0,0.0,0.0,0.0,0.0,0.0,0.0
21744000000,77,21744000000,imu_link,-0.000489776685706,-0.366162906759,-0.000882799409929,0.930550217075,0.0,0.0,0.0,0.0,0.0,0.0,0.0,0.0,0.0,-0.00273125824336,-0.0052311994413,0.000472813589976,0.0,0.0,0.0,0.0,0.0,0.0,0.0,0.0,0.0,5.79797386404,-0.000185182452486,7.75747771411,0.0,0.0,0.0,0.0,0.0,0.0,0.0,0.0,0.0
21748000000,78,21748000000,imu_link,-0.000495405812027,-0.366173147923,-0.000883952499253,0.930546183132,0.0,0.0,0.0,0.0,0.0,0.0,0.0,0.0,0.0,-0.00282666904808,-0.00550570089314,0.000489796345128,0.0,0.0,0.0,0.0,0.0,0.0,0.0,0.0,0.0,5.80108242459,-0.000182784060126,7.75138220989,0.0,0.0,0.0,0.0,0.0,0.0,0.0,0.0,0.0
21752000000,79,21752000000,imu_link,-0.000501142728734,-0.366183571435,-0.000885139207286,0.930542077176,0.0,0.0,0.0,0.0,0.0,0.0,0.0,0.0,0.0,-0.00288291339329,-0.00560376670026,0.00049381244062,0.0,0.0,0.0,0.0,0.0,0.0,0.0,0.0,0.0,5.80455058985,-0.000216567049912,7.74476394582,0.0,0.0,0.0,0.0,0.0,0.0,0.0,0.0,0.0
21756000000,80,21756000000,imu_link,-0.000506624886755,-0.366194030845,-0.000886326636636,0.93053795706,0.0,0.0,0.0,0.0,0.0,0.0,0.0,0.0,0.0,-0.00276450128227,-0.00562294888634,0.00044681734808,0.0,0.0,0.0,0.0,0.0,0.0,0.0,0.0,0.0,5.80768221098,-0.000288671330808,7.73879020767,0.0,0.0,0.0,0.0,0.0,0.0,0.0,0.0,0.0
21760000000,81,21760000000,imu_link,-0.000511230471858,-0.366204589758,-0.000887463627756,0.930533798146,0.0,0.0,0.0,0.0,0.0,0.0,0.0,0.0,0.0,-0.00234738973887,-0.00567597247509,0.000309744406989,0.0,0.0,0.0,0.0,0.0,0.0,0.0,0.0,0.0,5.81229977725,-0.000352963636027,7.73831796946,0.0,0.0,0.0,0.0,0.0,0.0,0.0,0.0,0.0
21764000000,82,21764000000,imu_link,-0.000514461806045,-0.366215585652,-0.000888500083827,0.930529467949,0.0,0.0,0.0,0.0,0.0,0.0,0.0,0.0,0.0,-0.0016894379586,-0.00591006338793,0.000104703839193,0.0,0.0,0.0,0.0,0.0,0.0,0.0,0.0,0.0,5.81724308995,-0.00029286702394,7.74032084908,0.0,0.0,0.0,0.0,0.0,0.0,0.0,0.0,0.0
21768000000,83,21768000000,imu_link,-0.000516125265468,-0.366227235297,-0.000889404964128,0.93052488129,0.0,0.0,0.0,0.0,0.0,0.0,0.0,0.0,0.0,-0.000935644116262,-0.00626052808908,-0.000121450781207,0.0,0.0,0.0,0.0,0.0,0.0,0.0,0.0,0.0,5.821518823,-7.9960706825e-05,7.73978723456,0.0,0.0,0.0,0.0,0.0,0.0,0.0,0.0,0.0
21772000000,84,21772000000,imu_link,-0.00051632665288,-0.366239452372,-0.000890207395953,0.930520072037,0.0,0.0,0.0,0.0,0.0,0.0,0.0,0.0,0.0,-0.000236442317718,-0.00656466865635,-0.000341756069688,0.0,0.0,0.0,0.0,0.0,0.0,0.0,0.0,0.0,5.8253427806,0.000218845631566,7.73603020736,0.0,0.0,0.0,0.0,0.0,0.0,0.0,0.0,0.0
21776000000,85,21776000000,imu_link,-0.000515342312405,-0.366252023862,-0.000890979040247,0.930515123787,0.0,0.0,0.0,0.0,0.0,0.0,0.0,0.0,0.0,0.000320989152579,-0.00675449640493,-0.000544715392189,0.0,0.0,0.0,0.0,0.0,0.0,0.0,0.0,0.0,5.82812824549,0.000494481338224,7.7290104733,0.0,0.0,0.0,0.0,0.0,0.0,0.0,0.0,0.0
21780000000,86,21780000000,imu_link,-0.00051356576368,-0.366264756582,-0.000891839118224,0.930510112228,0.0,0.0,0.0,0.0,0.0,0.0,0.0,0.0,0.0,0.000673431038045,-0.00684072795727,-0.000731003516983,0.0,0.0,0.0,0.0,0.0,0.0,0.0,0.0,0.0,5.83180209494,0.000732145544998,7.72458646111,0.0,0.0,0.0,0.0,0.0,0.0,0.0,0.0,0.0
21784000000,87,21784000000,imu_link,-0.000511530475379,-0.366277809984,-0.000892885153917,0.930504974197,0.0,0.0,0.0,0.0,0.0,0.0,0.0,0.0,0.0,0.000759866577331,-0.0070129252709,-0.000865043621161,0.0,0.0,0.0,0.0,0.0,0.0,0.0,0.0,0.0,5.83559202046,0.000923392048431,7.72311056164,0.0,0.0,0.0,0.0,0.0,0.0,0.0,0.0,0.0
21788000000,88,21788000000,imu_link,-0.00050980999823,-0.366291455795,-0.000894188050727,0.930499602328,0.0,0.0,0.0,0.0,0.0,0.0,0.0,0.0,0.0,0.000566563311016,-0.0073314440803,-0.00092715063757,0.0,0.0,0.0,0.0,0.0,0.0,0.0,0.0,0.0,5.83893776053,0.00105701102047,7.72118993331,0.0,0.0,0.0,0.0,0.0,0.0,0.0,0.0,0.0
21792000000,89,21792000000,imu_link,-0.000508679084919,-0.366306140841,-0.000895732680144,0.930493820555,0.0,0.0,0.0,0.0,0.0,0.0,0.0,0.0,0.0,0.000248356707972,-0.0078902227706,-0.000932088758792,0.0,0.0,0.0,0.0,0.0,0.0,0.0,0.0,0.0,5.84346920221,0.0010493187959,7.72285991838,0.0,0.0,0.0,0.0,0.0,0.0,0.0,0.0,0.0
21796000000,90,21796000000,imu_link,-0.000508151033254,-0.366321998498,-0.000897495066315,0.930487576328,0.0,0.0,0.0,0.0,0.0,0.0,0.0,0.0,0.0,-7.15980757217e-05,-0.00852069045137,-0.000923488812867,0.0,0.0,0.0,0.0,0.0,0.0,0.0,0.0,0.0,5.84596758907,0.000965483383099,7.71745898548,0.0,0.0,0.0,0.0,0.0,0.0,0.0,0.0,0.0
21800000000,91,21800000000,imu_link,-0.000508072061841,-0.366338721358,-0.000899436505162,0.93048099073,0.0,0.0,0.0,0.0,0.0,0.0,0.0,0.0,0.0,-0.000313023817183,-0.00898590243415,-0.000924910986901,0.0,0.0,0.0,0.0,0.0,0.0,0.0,0.0,0.0,5.84936490965,0.000857203340217,7.71114806248,0.0,0.0,0.0,0.0,0.0,0.0,0.0,0.0,0.0
21804000000,92,21804000000,imu_link,-0.000508339745709,-0.366355865525,-0.000901531170752,0.930474238562,0.0,0.0,0.0,0.0,0.0,0.0,0.0,0.0,0.0,-0.000502221181417,-0.00921253943573,-0.000932883583254,0.0,0.0,0.0,0.0,0.0,0.0,0.0,0.0,0.0,5.85255160622,0.000775867051378,7.70369953181,0.0,0.0,0.0,0.0,0.0,0.0,0.0,0.0,0.0
21808000000,93,21808000000,imu_link,-0.000508906866985,-0.366373114674,-0.000903774334927,0.930467444379,0.0,0.0,0.0,0.0,0.0,0.0,0.0,0.0,0.0,-0.000668695599383,-0.00926917445049,-0.000947165934002,0.0,0.0,0.0,0.0,0.0,0.0,0.0,0.0,0.0,5.85620746578,0.000713526327323,7.69853254323,0.0,0.0,0.0,0.0,0.0,0.0,0.0,0.0,0.0
21812000000,94,21812000000,imu_link,-0.000509798218691,-0.366390204536,-0.000906162550865,0.930460712226,0.0,0.0,0.0,0.0,0.0,0.0,0.0,0.0,0.0,-0.000846166258441,-0.00918381491849,-0.000955185687444,0.0,0.0,0.0,0.0,0.0,0.0,0.0,0.0,0.0,5.85949475817,0.000706987220811,7.69293060749,0.0,0.0,0.0,0.0,0.0,0.0,0.0,0.0,0.0
21816000000,95,21816000000,imu_link,-0.000511078437571,-0.366406913603,-0.000908712518607,0.930454129286,0.0,0.0,0.0,0.0,0.0,0.0,0.0,0.0,0.0,-0.00105684570713,-0.00897945758197,-0.000959034305631,0.0,0.0,0.0,0.0,0.0,0.0,0.0,0.0,0.0,5.86155725263,0.000682879575728,7.6851287742,0.0,0.0,0.0,0.0,0.0,0.0,0.0,0.0,0.0
21820000000,96,21820000000,imu_link,-0.000512832304931,-0.366423109881,-0.000911426345764,0.930447747512,0.0,0.0,0.0,0.0,0.0,0.0,0.0,0.0,0.0,-0.00130740099329,-0.00870421345588,-0.000948269662391,0.0,0.0,0.0,0.0,0.0,0.0,0.0,0.0,0.0,5.86387764103,0.000646951093867,7.67874175169,0.0,0.0,0.0,0.0,0.0,0.0,0.0,0.0,0.0
21824000000,97,21824000000,imu_link,-0.000515196182643,-0.366438921513,-0.000914297967015,0.930441516396,0.0,0.0,0.0,0.0,0.0,0.0,0.0,0.0,0.0,-0.00162023873064,-0.00849790217435,-0.000909751010966,0.0,0.0,0.0,0.0,0.0,0.0,0.0,0.0,0.0,5.8669124228,0.000622126429357,7.67610990027,0.0,0.0,0.0,0.0,0.0,0.0,0.0,0.0,0.0
21828000000,98,21828000000,imu_link,-0.000518045509598,-0.366454838759,-0.000917281425903,0.930435242977,0.0,0.0,0.0,0.0,0.0,0.0,0.0,0.0,0.0,-0.0018665332431,-0.00855497962167,-0.000872882996907,0.0,0.0,0.0,0.0,0.0,0.0,0.0,0.0,0.0,5.87130938221,0.000536903370898,7.67923674715,0.0,0.0,0.0,0.0,0.0,0.0,0.0,0.0,0.0
21832000000,99,21832000000,imu_link,-0.000521225422443,-0.366471308617,-0.000920340507063,0.930428751307,0.0,0.0,0.0,0.0,0.0,0.0,0.0,0.0,0.0,-0.00203398678052,-0.00885218619263,-0.000847734648968,0.0,0.0,0.0,0.0,0.0,0.0,0.0,0.0,0.0,5.87417702104,0.000467163141062,7.67828617958,0.0,0.0,0.0,0.0,0.0,0.0,0.0,0.0,0.0
21836000000,100,21836000000,imu_link,-0.000524535749457,-0.366488511879,-0.000923416733645,0.930421970304,0.0,0.0,0.0,0.0,0.0,0.0,0.0,0.0,0.0,-0.00209753689186,-0.00924644793509,-0.000832138696891,0.0,0.0,0.0,0.0,0.0,0.0,0.0,0.0,0.0,5.87705882208,0.000421321386334,7.67513072005,0.0,0.0,0.0,0.0,0.0,0.0,0.0,0.0,0.0
21840000000,101,21840000000,imu_link,-0.000527838258679,-0.366506323827,-0.000926476418324,0.930414949161,0.0,0.0,0.0,0.0,0.0,0.0,0.0,0.0,0.0,-0.00209065070603,-0.00957362028375,-0.000826146300867,0.0,0.0,0.0,0.0,0.0,0.0,0.0,0.0,0.0,5.87981762939,0.00039698116371,7.66956846423,0.0,0.0,0.0,0.0,0.0,0.0,0.0,0.0,0.0
21844000000,102,21844000000,imu_link,-0.00053106816824,-0.366524518102,-0.000929509303855,0.930407777058,0.0,0.0,0.0,0.0,0.0,0.0,0.0,0.0,0.0,-0.00205182850606,-0.00977911903818,-0.000827154088678,0.0,0.0,0.0,0.0,0.0,0.0,0.0,0.0,0.0,5.88286364255,0.000405291208939,7.66405453416,0.0,0.0,0.0,0.0,0.0,0.0,0.0,0.0,0.0
21848000000,103,21848000000,imu_link,-0.000534010575196,-0.366542873273,-0.000932509104718,0.930400541333,0.0,0.0,0.0,0.0,0.0,0.0,0.0,0.0,0.0,-0.00191196012107,-0.00986550341224,-0.000864523641018,0.0,0.0,0.0,0.0,0.0,0.0,0.0,0.0,0.0,5.88647647712,0.000403139887652,7.65994672958,0.0,0.0,0.0,0.0,0.0,0.0,0.0,0.0,0.0
21852000000,104,21852000000,imu_link,-0.000536237810765,-0.366561302908,-0.000935437002211,0.930393276318,0.0,0.0,0.0,0.0,0.0,0.0,0.0,0.0,0.0,-0.00156605746583,-0.00990519744077,-0.000962178200595,0.0,0.0,0.0,0.0,0.0,0.0,0.0,0.0,0.0,5.89052598726,0.000398203842848,7.65792571831,0.0,0.0,0.0,0.0,0.0,0.0,0.0,0.0,0.0
21856000000,105,21856000000,imu_link,-0.000537408934413,-0.366579956119,-0.000938279433387,0.930385923472,0.0,0.0,0.0,0.0,0.0,0.0,0.0,0.0,0.0,-0.0010590124071,-0.0100248311005,-0.00111608546264,0.0,0.0,0.0,0.0,0.0,0.0,0.0,0.0,0.0,5.89323672961,0.000477356640249,7.65430872785,0.0,0.0,0.0,0.0,0.0,0.0,0.0,0.0,0.0
21860000000,106,21860000000,imu_link,-0.000537324565198,-0.366598886654,-0.00094102826709,0.930378461731,0.0,0.0,0.0,0.0,0.0,0.0,0.0,0.0,0.0,-0.00045770964168,-0.0101732356063,-0.00130278944199,0.0,0.0,0.0,0.0,0.0,0.0,0.0,0.0,0.0,5.89654195069,0.0006562281544,7.65171288829,0.0,0.0,0.0,0.0,0.0,0.0,0.0,0.0,0.0
21864000000,107,21864000000,imu_link,-0.000536097226719,-0.3666180162,-0.000943668306607,0.930370921884,0.0,0.0,0.0,0.0,0.0,0.0,0.0,0.0,0.0,9.40019187996e-05,-0.0102796216507,-0.00146177540434,0.0,0.0,0.0,0.0,0.0,0.0,0.0,0.0,0.0,5.89978278345,0.000915344963778,7.6481740401,0.0,0.0,0.0,0.0,0.0,0.0,0.0,0.0,0.0
21868000000,108,21868000000,imu_link,-0.000533813409434,-0.36663715326,-0.000946166469245,0.930363379364,0.0,0.0,0.0,0.0,0.0,0.0,0.0,0.0,0.0,0.000611470637942,-0.0102831470955,-0.00158944170122,0.0,0.0,0.0,0.0,0.0,0.0,0.0,0.0,0.0,5.90284002154,0.00111395057497,7.64350262189,0.0,0.0,0.0,0.0,0.0,0.0,0.0,0.0,0.0
21872000000,109,21872000000,imu_link,-0.000530458556417,-0.366656239712,-0.000948511228322,0.930355857089,0.0,0.0,0.0,0.0,0.0,0.0,0.0,0.0,0.0,0.00113780003351,-0.0102554275415,-0.00171439883346,0.0,0.0,0.0,0.0,0.0,0.0,0.0,0.0,0.0,5.9056438628,0.00127037187624,7.63948287523,0.0,0.0,0.0,0.0,0.0,0.0,0.0,0.0,0.0
21876000000,110,21876000000,imu_link,-0.000526015040257,-0.366675699671,-0.000950715355055,0.930348187895,0.0,0.0,0.0,0.0,0.0,0.0,0.0,0.0,0.0,0.00167014213331,-0.0104556307487,-0.00184873108076,0.0,0.0,0.0,0.0,0.0,0.0,0.0,0.0,0.0,5.9085991921,0.00142053023857,7.6393298075,0.0,0.0,0.0,0.0,0.0,0.0,0.0,0.0,0.0
21880000000,111,21880000000,imu_link,-0.000520597669475,-0.366695735336,-0.000952834294383,0.930340291921,0.0,0.0,0.0,0.0,0.0,0.0,0.0,0.0,0.0,0.00213898617163,-0.0107645704289,-0.00198790773592,0.0,0.0,0.0,0.0,0.0,0.0,0.0,0.0,0.0,5.9109541465,0.00160906393215,7.63602244481,0.0,0.0,0.0,0.0,0.0,0.0,0.0,0.0,0.0
21884000000,112,21884000000,imu_link,-0.000514268013715,-0.366716160967,-0.000954895809275,0.93033224226,0.0,0.0,0.0,0.0,0.0,0.0,0.0,0.0,0.0,0.00257402833871,-0.0109737300674,-0.00212863583506,0.0,0.0,0.0,0.0,0.0,0.0,0.0,0.0,0.0,5.91414530688,0.00176011539913,7.63141141473,0.0,0.0,0.0,0.0,0.0,0.0,0.0,0.0,0.0
21888000000,113,21888000000,imu_link,-0.000507219816099,-0.366736566909,-0.00095692919685,0.930324200215,0.0,0.0,0.0,0.0,0.0,0.0,0.0,0.0,0.0,0.00291341959506,-0.0109628387665,-0.00224729371638,0.0,0.0,0.0,0.0,0.0,0.0,0.0,0.0,0.0,5.91781190546,0.00191581528238,7.62649998524,0.0,0.0,0.0,0.0,0.0,0.0,0.0,0.0,0.0
21892000000,114,21892000000,imu_link,-0.000499797995036,-0.366756597856,-0.000958964866681,0.930316305628,0.0,0.0,0.0,0.0,0.0,0.0,0.0,0.0,0.0,0.00308665454423,-0.0107611868154,-0.00231670036987,0.0,0.0,0.0,0.0,0.0,0.0,0.0,0.0,0.0,5.92170802541,0.00206198339039,7.62285827918,0.0,0.0,0.0,0.0,0.0,0.0,0.0,0.0,0.0
21896000000,115,21896000000,imu_link,-0.000492311951842,-0.366776251198,-0.000961023087751,0.930308559361,0.0,0.0,0.0,0.0,0.0,0.0,0.0,0.0,0.0,0.00311224859409,-0.0105583058354,-0.00233880172751,0.0,0.0,0.0,0.0,0.0,0.0,0.0,0.0,0.0,5.92422350751,0.00214829120432,7.61867600553,0.0,0.0,0.0,0.0,0.0,0.0,0.0,0.0,0.0
21900000000,116,21900000000,imu_link,-0.000484864342611,-0.366795944867,-0.000963085298648,0.930300796626,0.0,0.0,0.0,0.0,0.0,0.0,0.0,0.0,0.0,0.00309365450863,-0.0105801016267,-0.0023336271205,0.0,0.0,0.0,0.0,0.0,0.0,0.0,0.0,0.0,5.9281446112,0.00215223499688,7.62085216306,0.0,0.0,0.0,0.0,0.0,0.0,0.0,0.0,0.0
21904000000,117,21904000000,imu_link,-0.000477529644321,-0.366816275745,-0.000965131880787,0.93029278205,0.0,0.0,0.0,0.0,0.0,0.0,0.0,0.0,0.0,0.00304424601073,-0.0109227444717,-0.00230592551104,0.0,0.0,0.0,0.0,0.0,0.0,0.0,0.0,0.0,5.93253179558,0.00216746214337,7.62528441868,0.0,0.0,0.0,0.0,0.0,0.0,0.0,0.0,0.0
21908000000,118,21908000000,imu_link,-0.000470210565703,-0.36683750349,-0.000967119873843,0.930284413292,0.0,0.0,0.0,0.0,0.0,0.0,0.0,0.0,0.0,0.00304807452303,-0.0114049010251,-0.00227619329308,0.0,0.0,0.0,0.0,0.0,0.0,0.0,0.0,0.0,5.9358025002,0.00210186584739,7.62443426133,0.0,0.0,0.0,0.0,0.0,0.0,0.0,0.0,0.0
21912000000,119,21912000000,imu_link,-0.000462941511348,-0.366859432659,-0.000969011676742,0.930275767378,0.0,0.0,0.0,0.0,0.0,0.0,0.0,0.0,0.0,0.00304272322493,-0.0117820448189,-0.00222257473285,0.0,0.0,0.0,0.0,0.0,0.0,0.0,0.0,0.0,5.9390506608,0.0020278410871,7.62032420482,0.0,0.0,0.0,0.0,0.0,0.0,0.0,0.0,0.0
21916000000,120,21916000000,imu_link,-0.000455720835807,-0.366881711418,-0.000970763745477,0.930266983056,0.0,0.0,0.0,0.0,0.0,0.0,0.0,0.0,0.0,0.00304598914476,-0.0119700964074,-0.0021488529469,0.0,0.0,0.0,0.0,0.0,0.0,0.0,0.0,0.0,5.94098537972,0.00196740103542,7.61227319625,0.0,0.0,0.0,0.0,0.0,0.0,0.0,0.0,0.0
21920000000,121,21920000000,imu_link,-0.000448515752679,-0.366904044109,-0.000972373848809,0.930258176927,0.0,0.0,0.0,0.0,0.0,0.0,0.0,0.0,0.0,0.00306480005538,-0.011999222512,-0.00207998267139,0.0,0.0,0.0,0.0,0.0,0.0,0.0,0.0,0.0,5.94281454182,0.00191476523002,7.60479425643,0.0,0.0,0.0,0.0,0.0,0.0,0.0,0.0,0.0
21924000000,122,21924000000,imu_link,-0.000441185400335,-0.366926423253,-0.000973856601937,0.93024935199,0.0,0.0,0.0,0.0,0.0,0.0,0.0,0.0,0.0,0.00314644743097,-0.0120242469924,-0.00204374883972,0.0,0.0,0.0,0.0,0.0,0.0,0.0,0.0,0.0,5.94563691371,0.0018473197231,7.60201450162,0.0,0.0,0.0,0.0,0.0,0.0,0.0,0.0,0.0
21928000000,123,21928000000,imu_link,-0.000433426648424,-0.366948882997,-0.000975214054269,0.930240494908,0.0,0.0,0.0,0.0,0.0,0.0,0.0,0.0,0.0,0.00336872688252,-0.0120674523226,-0.00206409733953,0.0,0.0,0.0,0.0,0.0,0.0,0.0,0.0,0.0,5.94821544539,0.00178841993758,7.59877397456,0.0,0.0,0.0,0.0,0.0,0.0,0.0,0.0,0.0
21932000000,124,21932000000,imu_link,-0.000425191454353,-0.366971445973,-0.000976458157792,0.930231596745,0.0,0.0,0.0,0.0,0.0,0.0,0.0,0.0,0.0,0.00361116782146,-0.0121227974777,-0.00209883387639,0.0,0.0,0.0,0.0,0.0,0.0,0.0,0.0,0.0,5.9505198247,0.00179996437115,7.59462189676,0.0,0.0,0.0,0.0,0.0,0.0,0.0,0.0,0.0
21936000000,125,21936000000,imu_link,-0.000416775882521,-0.366994048143,-0.000977632114075,0.930222682566,0.0,0.0,0.0,0.0,0.0,0.0,0.0,0.0,0.0,0.00370795111601,-0.0121438925483,-0.00209932018271,0.0,0.0,0.0,0.0,0.0,0.0,0.0,0.0,0.0,5.95220985671,0.00188014346773,7.588245822,0.0,0.0,0.0,0.0,0.0,0.0,0.0,0.0,0.0
21940000000,126,21940000000,imu_link,-0.000408930254018,-0.367016580738,-0.000978794749511,0.930213794888,0.0,0.0,0.0,0.0,0.0,0.0,0.0,0.0,0.0,0.00344491286384,-0.0121069505248,-0.0019894443709,0.0,0.0,0.0,0.0,0.0,0.0,0.0,0.0,0.0,5.95574248412,0.00199787438233,7.58628713932,0.0,0.0,0.0,0.0,0.0,0.0,0.0,0.0,0.0
21944000000,127,21944000000,imu_link,-0.000402236086111,-0.367038948524,-0.000979991464216,0.930204971009,0.0,0.0,0.0,0.0,0.0,0.0,0.0,0.0,0.0,0.00290303915746,-0.012019145816,-0.00179392738756,0.0,0.0,0.0,0.0,0.0,0.0,0.0,0.0,0.0,5.95901407019,0.0019863955093,7.5837869525,0.0,0.0,0.0,0.0,0.0,0.0,0.0,0.0,0.0
21948000000,128,21948000000,imu_link,-0.000396804739199,-0.367061271679,-0.000981221529831,0.930196163496,0.0,0.0,0.0,0.0,0.0,0.0,0.0,0.0,0.0,0.00230955885533,-0.0119959962289,-0.00157766973774,0.0,0.0,0.0,0.0,0.0,0.0,0.0,0.0,0.0,5.96078618744,0.00181230048017,7.57881375497,0.0,0.0,0.0,0.0,0.0,0.0,0.0,0.0,0.0
21952000000,129,21952000000,imu_link,-0.000392333669574,-0.367083722932,-0.000982496369706,0.930187304328,0.0,0.0,0.0,0.0,0.0,0.0,0.0,0.0,0.0,0.00185477088035,-0.0120655169213,-0.00142230461705,0.0,0.0,0.0,0.0,0.0,0.0,0.0,0.0,0.0,5.96368177773,0.00154901299109,7.5771443451,0.0,0.0,0.0,0.0,0.0,0.0,0.0,0.0,0.0
21956000000,130,21956000000,imu_link,-0.000388308024763,-0.367106593188,-0.000983781079613,0.93017827895,0.0,0.0,0.0,0.0,0.0,0.0,0.0,0.0,0.0,0.00164596829165,-0.0122911157894,-0.00134530485198,0.0,0.0,0.0,0.0,0.0,0.0,0.0,0.0,0.0,5.96674735354,0.00128767614525,7.57705477472,0.0,0.0,0.0,0.0,0.0,0.0,0.0,0.0,0.0
21960000000,131,21960000000,imu_link,-0.000384432349332,-0.36712999097,-0.000985025384098,0.930169044672,0.0,0.0,0.0,0.0,0.0,0.0,0.0,0.0,0.0,0.00158385463747,-0.0125748887324,-0.00129919053152,0.0,0.0,0.0,0.0,0.0,0.0,0.0,0.0,0.0,5.96898327284,0.001130528462,7.57371835635,0.0,0.0,0.0,0.0,0.0,0.0,0.0,0.0,0.0
21964000000,132,21964000000,imu_link,-0.000380818455598,-0.367154001201,-0.000986250508328,0.930159567864,0.0,0.0,0.0,0.0,0.0,0.0,0.0,0.0,0.0,0.00146587986504,-0.0129043815021,-0.00124245330777,0.0,0.0,0.0,0.0,0.0,0.0,0.0,0.0,0.0,5.9708095355,0.00109929357397,7.56936133422,0.0,0.0,0.0,0.0,0.0,0.0,0.0,0.0,0.0
21968000000,133,21968000000,imu_link,-0.000377692197005,-0.367178642728,-0.000987498501753,0.930149840897,0.0,0.0,0.0,0.0,0.0,0.0,0.0,0.0,0.0,0.00123515603671,-0.0132441443488,-0.00116381427579,0.0,0.0,0.0,0.0,0.0,0.0,0.0,0.0,0.0,5.97253530013,0.00108021356678,7.5645441179,0.0,0.0,0.0,0.0,0.0,0.0,0.0,0.0,0.0
21972000000,134,21972000000,imu_link,-0.00037527902896,-0.367203801338,-0.000988818165051,0.930139908663,0.0,0.0,0.0,0.0,0.0,0.0,0.0,0.0,0.0,0.000890574228784,-0.013522650094,-0.00106642932586,0.0,0.0,0.0,0.0,0.0,0.0,0.0,0.0,0.0,5.97568744605,0.00105815744698,7.56158527079,0.0,0.0,0.0,0.0,0.0,0.0,0.0,0.0,0.0
21976000000,135,21976000000,imu_link,-0.000373583860477,-0.367229310427,-0.00099021532899,0.93012983689,0.0,0.0,0.0,0.0,0.0,0.0,0.0,0.0,0.0,0.000542572037083,-0.0137116069427,-0.000970781213991,0.0,0.0,0.0,0.0,0.0,0.0,0.0,0.0,0.0,5.9779999437,0.000956867147861,7.55587842541,0.0,0.0,0.0,0.0,0.0,0.0,0.0,0.0,0.0
21980000000,136,21980000000,imu_link,-0.00037229051733,-0.367254999629,-0.000991681681056,0.930119692951,0.0,0.0,0.0,0.0,0.0,0.0,0.0,0.0,0.0,0.000343068911011,-0.013808808377,-0.000929246538273,0.0,0.0,0.0,0.0,0.0,0.0,0.0,0.0,0.0,5.98090464033,0.000821426921288,7.55184674324,0.0,0.0,0.0,0.0,0.0,0.0,0.0,0.0,0.0
21984000000,137,21984000000,imu_link,-0.000371167127103,-0.3672807562,-0.000993214842402,0.930109521446,0.0,0.0,0.0,0.0,0.0,0.0,0.0,0.0,0.0,0.000251790884373,-0.013845272704,-0.000929135030345,0.0,0.0,0.0,0.0,0.0,0.0,0.0,0.0,0.0,5.98336201467,0.000740358456385,7.54743331014,0.0,0.0,0.0,0.0,0.0,0.0,0.0,0.0,0.0
21988000000,138,21988000000,imu_link,-0.000370080972583,-0.367306449876,-0.000994776395885,0.930099373905,0.0,0.0,0.0,0.0,0.0,0.0,0.0,0.0,0.0,0.000229233511881,-0.0138116352634,-0.000935477376,0.0,0.0,0.0,0.0,0.0,0.0,0.0,0.0,0.0,5.98630790857,0.00070333016705,7.54409981311,0.0,0.0,0.0,0.0,0.0,0.0,0.0,0.0,0.0
21992000000,139,21992000000,imu_link,-0.000369042004977,-0.367332020086,-0.000996336132376,0.930089274286,0.0,0.0,0.0,0.0,0.0,0.0,0.0,0.0,0.0,0.000207570405568,-0.0137454402926,-0.000925919674123,0.0,0.0,0.0,0.0,0.0,0.0,0.0,0.0,0.0,5.98888625337,0.000700123785261,7.54051011186,0.0,0.0,0.0,0.0,0.0,0.0,0.0,0.0,0.0
21996000000,140,21996000000,imu_link,-0.000368148063954,-0.367357451641,-0.000997875467791,0.93007922858,0.0,0.0,0.0,0.0,0.0,0.0,0.0,0.0,0.0,0.000143814429977,-0.0136711338467,-0.000889743367239,0.0,0.0,0.0,0.0,0.0,0.0,0.0,0.0,0.0,5.9907085548,0.000761544323798,7.53554122087,0.0,0.0,0.0,0.0,0.0,0.0,0.0,0.0,0.0
22000000000,141,22000000000,imu_link,-0.000367411180399,-0.367382785418,-0.000999399880073,0.930069220643,0.0,0.0,0.0,0.0,0.0,0.0,0.0,0.0,0.0,7.34757143459e-05,-0.0136188066146,-0.000853918560304,0.0,0.0,0.0,0.0,0.0,0.0,0.0,0.0,0.0,5.99277449345,0.00076969818275,7.53188609736,0.0,0.0,0.0,0.0,0.0,0.0,0.0,0.0,0.0
22004000000,142,22004000000,imu_link,-0.000366787511522,-0.367408192524,-0.00100094513996,0.930059182871,0.0,0.0,0.0,0.0,0.0,0.0,0.0,0.0,0.0,1.70286070767e-05,-0.0136584402583,-0.000842845234792,0.0,0.0,0.0,0.0,0.0,0.0,0.0,0.0,0.0,5.9954197562,0.000724562491745,7.53073994226,0.0,0.0,0.0,0.0,0.0,0.0,0.0,0.0,0.0
22008000000,143,22008000000,imu_link,-0.000365956509081,-0.367433636386,-0.00100249199877,0.930049129852,0.0,0.0,0.0,0.0,0.0,0.0,0.0,0.0,0.0,0.00011316671921,-0.0136782300573,-0.000881691180674,0.0,0.0,0.0,0.0,0.0,0.0,0.0,0.0,0.0,5.99824483311,0.000664008060278,7.52848670894,0.0,0.0,0.0,0.0,0.0,0.0,0.0,0.0,0.0
22012000000,144,22012000000,imu_link,-0.000364817601181,-0.367458926233,-0.00100402367431,0.930039137013,0.0,0.0,0.0,0.0,0.0,0.0,0.0,0.0,0.0,0.000259073558468,-0.0135954016782,-0.000931139646889,0.0,0.0,0.0,0.0,0.0,0.0,0.0,0.0,0.0,6.00025492847,0.000692225801701,7.52333811638,0.0,0.0,0.0,0.0,0.0,0.0,0.0,0.0,0.0
22016000000,145,22016000000,imu_link,-0.000363422603505,-0.367483620629,-0.00100553232727,0.930029378782,0.0,0.0,0.0,0.0,0.0,0.0,0.0,0.0,0.0,0.000382134110606,-0.013275276392,-0.000967258546254,0.0,0.0,0.0,0.0,0.0,0.0,0.0,0.0,0.0,6.00310340195,0.000762545491123,7.51832058132,0.0,0.0,0.0,0.0,0.0,0.0,0.0,0.0,0.0
22020000000,146,22020000000,imu_link,-0.00036188137108,-0.367507458408,-0.00100703121953,0.930019958358,0.0,0.0,0.0,0.0,0.0,0.0,0.0,0.0,0.0,0.000451559571079,-0.0128147958059,-0.000989263619427,0.0,0.0,0.0,0.0,0.0,0.0,0.0,0.0,0.0,6.00573753537,0.000847839652819,7.51401189311,0.0,0.0,0.0,0.0,0.0,0.0,0.0,0.0,0.0
22024000000,147,22024000000,imu_link,-0.000360345036955,-0.367530331274,-0.00100855567045,0.930010918517,0.0,0.0,0.0,0.0,0.0,0.0,0.0,0.0,0.0,0.000444168328407,-0.0122961663631,-0.000999882349027,0.0,0.0,0.0,0.0,0.0,0.0,0.0,0.0,0.0,6.00860709761,0.000898500296894,7.51136661616,0.0,0.0,0.0,0.0,0.0,0.0,0.0,0.0,0.0
22028000000,148,22028000000,imu_link,-0.000358908250761,-0.367552533458,-0.00101017522411,0.930002142943,0.0,0.0,0.0,0.0,0.0,0.0,0.0,0.0,0.0,0.000380110829864,-0.0119357650423,-0.00102555809637,0.0,0.0,0.0,0.0,0.0,0.0,0.0,0.0,0.0,6.01219959089,0.000928174028949,7.51346030871,0.0,0.0,0.0,0.0,0.0,0.0,0.0,0.0,0.0
22032000000,149,22032000000,imu_link,-0.000357661244498,-0.36757456182,-0.00101195386364,0.929993435208,0.0,0.0,0.0,0.0,0.0,0.0,0.0,0.0,0.0,0.000262551128926,-0.0118425376663,-0.00106459069286,0.0,0.0,0.0,0.0,0.0,0.0,0.0,0.0,0.0,6.0163206737,0.000952570849849,7.51791318015,0.0,0.0,0.0,0.0,0.0,0.0,0.0,0.0,0.0
22036000000,150,22036000000,imu_link,-0.000356504206224,-0.367596839547,-0.00101387355279,0.92998462811,0.0,0.0,0.0,0.0,0.0,0.0,0.0,0.0,0.0,0.000194901587098,-0.0119767742792,-0.00111373820355,0.0,0.0,0.0,0.0,0.0,0.0,0.0,0.0,0.0,6.01964432202,0.000929494681792,7.51973277618,0.0,0.0,0.0,0.0,0.0,0.0,0.0,0.0,0.0
22040000000,151,22040000000,imu_link,-0.000355497198243,-0.367619597952,-0.00101595019356,0.929975630148,0.0,0.0,0.0,0.0,0.0,0.0,0.0,0.0,0.0,9.65008459022e-05,-0.0122354135878,-0.001159326604,0.0,0.0,0.0,0.0,0.0,0.0,0.0,0.0,0.0,6.0215680248,0.000968499871503,7.51671823776,0.0,0.0,0.0,0.0,0.0,0.0,0.0,0.0,0.0
22044000000,152,22044000000,imu_link,-0.000354853242237,-0.367642902752,-0.00101825814352,0.929966415139,0.0,0.0,0.0,0.0,0.0,0.0,0.0,0.0,0.0,-0.000114591817764,-0.0125295198496,-0.00120035742172,0.0,0.0,0.0,0.0,0.0,0.0,0.0,0.0,0.0,6.02504254606,0.0010212313497,7.51623139193,0.0,0.0,0.0,0.0,0.0,0.0,0.0,0.0,0.0
22048000000,153,22048000000,imu_link,-0.000354795219038,-0.367666600569,-0.0010208420366,0.929957043539,0.0,0.0,0.0,0.0,0.0,0.0,0.0,0.0,0.0,-0.00043759268835,-0.0127413001278,-0.00122110878313,0.0,0.0,0.0,0.0,0.0,0.0,0.0,0.0,0.0,6.0277335331,0.00104331344073,7.51284908003,0.0,0.0,0.0,0.0,0.0,0.0,0.0,0.0,0.0
22052000000,154,22052000000,imu_link,-0.000355381459907,-0.367690461354,-0.00102367643902,0.929947606277,0.0,0.0,0.0,0.0,0.0,0.0,0.0,0.0,0.0,-0.000783142065279,-0.0128294317993,-0.0012192154758,0.0,0.0,0.0,0.0,0.0,0.0,0.0,0.0,0.0,6.03002382619,0.000980275712336,7.50806995293,0.0,0.0,0.0,0.0,0.0,0.0,0.0,0.0,0.0
22056000000,155,22056000000,imu_link,-0.000356554907431,-0.367714457236,-0.0010267048239,0.929938114438,0.0,0.0,0.0,0.0,0.0,0.0,0.0,0.0,0.0,-0.00109178107654,-0.0129025484061,-0.00120150903399,0.0,0.0,0.0,0.0,0.0,0.0,0.0,0.0,0.0,6.03207316975,0.000895685584113,7.50451515669,0.0,0.0,0.0,0.0,0.0,0.0,0.0,0.0,0.0
22060000000,156,22060000000,imu_link,-0.000358294495194,-0.367738785566,-0.00102982317777,0.929928490089,0.0,0.0,0.0,0.0,0.0,0.0,0.0,0.0,0.0,-0.00137141318225,-0.0130817635921,-0.00113938015313,0.0,0.0,0.0,0.0,0.0,0.0,0.0,0.0,0.0,6.03567911866,0.000822093314592,7.50632584278,0.0,0.0,0.0,0.0,0.0,0.0,0.0,0.0,0.0
22064000000,157,22064000000,imu_link,-0.000360616676848,-0.367763764358,-0.00103293448733,0.929918607528,0.0,0.0,0.0,0.0,0.0,0.0,0.0,0.0,0.0,-0.00164071460293,-0.0134319843038,-0.0010292330961,0.0,0.0,0.0,0.0,0.0,0.0,0.0,0.0,0.0,6.03846787529,0.000795867652221,7.5067763848,0.0,0.0,0.0,0.0,0.0,0.0,0.0,0.0,0.0
22068000000,158,22068000000,imu_link,-0.00036341935933,-0.367789510131,-0.00103600428887,0.929908420684,0.0,0.0,0.0,0.0,0.0,0.0,0.0,0.0,0.0,-0.00185615410465,-0.013844806842,-0.000921873603951,0.0,0.0,0.0,0.0,0.0,0.0,0.0,0.0,0.0,6.04144603976,0.000745677466673,7.5059302376,0.0,0.0,0.0,0.0,0.0,0.0,0.0,0.0,0.0
22072000000,159,22072000000,imu_link,-0.000366338955128,-0.36781573483,-0.00103901912016,0.929898043576,0.0,0.0,0.0,0.0,0.0,0.0,0.0,0.0,0.0,-0.00190019119223,-0.0141025444262,-0.000875000794654,0.0,0.0,0.0,0.0,0.0,0.0,0.0,0.0,0.0,6.04505029978,0.000681205458201,7.50349859391,0.0,0.0,0.0,0.0,0.0,0.0,0.0,0.0,0.0
22076000000,160,22076000000,imu_link,-0.000369091541783,-0.367842077152,-0.0010419673622,0.929887619206,0.0,0.0,0.0,0.0,0.0,0.0,0.0,0.0,0.0,-0.0018102417185,-0.0141658506205,-0.000874800581217,0.0,0.0,0.0,0.0,0.0,0.0,0.0,0.0,0.0,6.04752935042,0.000679586353155,7.49819514694,0.0,0.0,0.0,0.0,0.0,0.0,0.0,0.0,0.0
22080000000,161,22080000000,imu_link,-0.000371512261725,-0.367868353964,-0.00104482215447,0.929877220109,0.0,0.0,0.0,0.0,0.0,0.0,0.0,0.0,0.0,-0.001638784431,-0.0141305881117,-0.000892363704215,0.0,0.0,0.0,0.0,0.0,0.0,0.0,0.0,0.0,6.04912973496,0.000720534604952,7.49221728276,0.0,0.0,0.0,0.0,0.0,0.0,0.0,0.0,0.0
22084000000,162,22084000000,imu_link,-0.000373514805598,-0.367894533567,-0.00104753486391,0.929866858926,0.0,0.0,0.0,0.0,0.0,0.0,0.0,0.0,0.0,-0.00141826808211,-0.014078225797,-0.000903182914502,0.0,0.0,0.0,0.0,0.0,0.0,0.0,0.0,0.0,6.05104697847,0.000785409564688,7.48812427187,0.0,0.0,0.0,0.0,0.0,0.0,0.0,0.0,0.0
22088000000,163,22088000000,imu_link,-0.000375010704122,-0.367920640243,-0.00105007612813,0.929856526132,0.0,0.0,0.0,0.0,0.0,0.0,0.0,0.0,0.0,-0.00115120773844,-0.0140388645716,-0.000916639841203,0.0,0.0,0.0,0.0,0.0,0.0,0.0,0.0,0.0,6.05356357071,0.000932680355646,7.48614087186,0.0,0.0,0.0,0.0,0.0,0.0,0.0,0.0,0.0
22092000000,164,22092000000,imu_link,-0.000376040008752,-0.367946698248,-0.00105249120864,0.929846212072,0.0,0.0,0.0,0.0,0.0,0.0,0.0,0.0,0.0,-0.000911084294796,-0.0140125683168,-0.000943789267629,0.0,0.0,0.0,0.0,0.0,0.0,0.0,0.0,0.0,6.05606840782,0.0011139724813,7.48406398017,0.0,0.0,0.0,0.0,0.0,0.0,0.0,0.0,0.0
22096000000,165,22096000000,imu_link,-0.000376922313761,-0.367972737727,-0.00105487913051,0.929835904582,0.0,0.0,0.0,0.0,0.0,0.0,0.0,0.0,0.0,-0.000837752822532,-0.0140026745605,-0.000958199661026,0.0,0.0,0.0,0.0,0.0,0.0,0.0,0.0,0.0,6.0591639002,0.00127357871724,7.48351108978,0.0,0.0,0.0,0.0,0.0,0.0,0.0,0.0,0.0
22100000000,166,22100000000,imu_link,-0.000378087566874,-0.367998752571,-0.00105732279909,0.929825605812,0.0,0.0,0.0,0.0,0.0,0.0,0.0,0.0,0.0,-0.000979568460107,-0.013989755163,-0.00093204946854,0.0,0.0,0.0,0.0,0.0,0.0,0.0,0.0,0.0,6.06238440199,0.00140696130724,7.48311118727,0.0,0.0,0.0,0.0,0.0,0.0,0.0,0.0,0.0
22104000000,167,22104000000,imu_link,-0.000379737445563,-0.368024732632,-0.00105983454669,0.929815319685,0.0,0.0,0.0,0.0,0.0,0.0,0.0,0.0,0.0,-0.00121741959019,-0.0139715013204,-0.000874516212547,0.0,0.0,0.0,0.0,0.0,0.0,0.0,0.0,0.0,6.06440208693,0.00143050318399,7.48017019264,0.0,0.0,0.0,0.0,0.0,0.0,0.0,0.0,0.0
22108000000,168,22108000000,imu_link,-0.000381959394596,-0.368050735544,-0.00106239845693,0.929805023369,0.0,0.0,0.0,0.0,0.0,0.0,0.0,0.0,0.0,-0.001492967872,-0.0139842933151,-0.000793508746768,0.0,0.0,0.0,0.0,0.0,0.0,0.0,0.0,0.0,6.06734007457,0.0014035165378,7.47968510199,0.0,0.0,0.0,0.0,0.0,0.0,0.0,0.0,0.0
22112000000,169,22112000000,imu_link,-0.00038459762815,-0.368076656747,-0.00106497146267,0.929794758363,0.0,0.0,0.0,0.0,0.0,0.0,0.0,0.0,0.0,-0.00168821081991,-0.0139407636975,-0.000721098120463,0.0,0.0,0.0,0.0,0.0,0.0,0.0,0.0,0.0,6.07045799481,0.00133920974455,7.47806521593,0.0,0.0,0.0,0.0,0.0,0.0,0.0,0.0,0.0
22116000000,170,22116000000,imu_link,-0.000387292067707,-0.368102268158,-0.00106751943347,0.929784615158,0.0,0.0,0.0,0.0,0.0,0.0,0.0,0.0,0.0,-0.00170987499145,-0.0137743611104,-0.000698990952153,0.0,0.0,0.0,0.0,0.0,0.0,0.0,0.0,0.0,6.07238743139,0.00124494710079,7.47291481679,0.0,0.0,0.0,0.0,0.0,0.0,0.0,0.0,0.0
22120000000,171,22120000000,imu_link,-0.000389626021735,-0.368127272721,-0.00107002866096,0.929774711588,0.0,0.0,0.0,0.0,0.0,0.0,0.0,0.0,0.0,-0.00153543479784,-0.0134479520247,-0.000747081831674,0.0,0.0,0.0,0.0,0.0,0.0,0.0,0.0,0.0,6.07474885105,0.00118696551091,7.46840922752,0.0,0.0,0.0,0.0,0.0,0.0,0.0,0.0,0.0
22124000000,172,22124000000,imu_link,-0.000391217905872,-0.368151518089,-0.00107246978846,0.929765108232,0.0,0.0,0.0,0.0,0.0,0.0,0.0,0.0,0.0,-0.00117826885009,-0.0130393701601,-0.000851702570699,0.0,0.0,0.0,0.0,0.0,0.0,0.0,0.0,0.0,6.07695351335,0.00119759135326,7.46476413883,0.0,0.0,0.0,0.0,0.0,0.0,0.0,0.0,0.0
22128000000,173,22128000000,imu_link,-0.000391920265888,-0.36817541434,-0.0010748131851,0.929755642871,0.0,0.0,0.0,0.0,0.0,0.0,0.0,0.0,0.0,-0.000746914939476,-0.012851211502,-0.000969866739207,0.0,0.0,0.0,0.0,0.0,0.0,0.0,0.0,0.0,6.07962705081,0.00130121469429,7.466238794,0.0,0.0,0.0,0.0,0.0,0.0,0.0,0.0,0.0
22132000000,174,22132000000,imu_link,-0.000391992552642,-0.368199678451,-0.00107706475657,0.929746031485,0.0,0.0,0.0,0.0,0.0,0.0,0.0,0.0,0.0,-0.000436934894653,-0.0130487832603,-0.00104331856169,0.0,0.0,0.0,0.0,0.0,0.0,0.0,0.0,0.0,6.08368851467,0.0015595787534,7.47290057427,0.0,0.0,0.0,0.0,0.0,0.0,0.0,0.0,0.0
22136000000,175,22136000000,imu_link,-0.000392000562337,-0.368224440305,-0.00107927548795,0.929736222303,0.0,0.0,0.0,0.0,0.0,0.0,0.0,0.0,0.0,-0.000399306286642,-0.0133165570916,-0.00103637057417,0.0,0.0,0.0,0.0,0.0,0.0,0.0,0.0,0.0,6.08573420331,0.00181703088561,7.47075264959,0.0,0.0,0.0,0.0,0.0,0.0,0.0,0.0,0.0
22140000000,176,22140000000,imu_link,-0.000392468149392,-0.368249378695,-0.00108147507696,0.929726342249,0.0,0.0,0.0,0.0,0.0,0.0,0.0,0.0,0.0,-0.000610816322941,-0.0134119225614,-0.000946649876789,0.0,0.0,0.0,0.0,0.0,0.0,0.0,0.0,0.0,6.08796553876,0.00196093074021,7.46598017668,0.0,0.0,0.0,0.0,0.0,0.0,0.0,0.0,0.0
22144000000,177,22144000000,imu_link,-0.000393651011632,-0.368274189906,-0.00108367660294,0.929716511488,0.0,0.0,0.0,0.0,0.0,0.0,0.0,0.0,0.0,-0.000943737156869,-0.0133441117168,-0.000815798874149,0.0,0.0,0.0,0.0,0.0,0.0,0.0,0.0,0.0,6.08977108838,0.00194910755005,7.46040195732,0.0,0.0,0.0,0.0,0.0,0.0,0.0,0.0,0.0
22148000000,178,22148000000,imu_link,-0.000395526774019,-0.368298826313,-0.00108587841602,0.929706748907,0.0,0.0,0.0,0.0,0.0,0.0,0.0,0.0,0.0,-0.00126597167116,-0.0132506733364,-0.00068827236271,0.0,0.0,0.0,0.0,0.0,0.0,0.0,0.0,0.0,6.09159479982,0.0018504570908,7.4571816011,0.0,0.0,0.0,0.0,0.0,0.0,0.0,0.0,0.0
22152000000,179,22152000000,imu_link,-0.000397800834674,-0.368323388419,-0.00108805361589,0.929697014859,0.0,0.0,0.0,0.0,0.0,0.0,0.0,0.0,0.0,-0.00144625585722,-0.0132111013632,-0.000602524545858,0.0,0.0,0.0,0.0,0.0,0.0,0.0,0.0,0.0,6.0931269684,0.00170688388721,7.45451839817,0.0,0.0,0.0,0.0,0.0,0.0,0.0,0.0,0.0
22156000000,180,22156000000,imu_link,-0.000400024545971,-0.368348019243,-0.00109016112721,0.929687252924,0.0,0.0,0.0,0.0,0.0,0.0,0.0,0.0,0.0,-0.00141035355761,-0.0132481671511,-0.000580360888256,0.0,0.0,0.0,0.0,0.0,0.0,0.0,0.0,0.0,6.09622468181,0.00162239323495,7.45516370901,0.0,0.0,0.0,0.0,0.0,0.0,0.0,0.0,0.0
22160000000,181,22160000000,imu_link,-0.000401934316094,-0.36837277423,-0.0010921488761,0.929677441302,0.0,0.0,0.0,0.0,0.0,0.0,0.0,0.0,0.0,-0.00124230513624,-0.0133148869127,-0.000582561807635,0.0,0.0,0.0,0.0,0.0,0.0,0.0,0.0,0.0,6.09837592778,0.00161235625889,7.45260223677,0.0,0.0,0.0,0.0,0.0,0.0,0.0,0.0,0.0
22164000000,182,22164000000,imu_link,-0.000403692072098,-0.368397545769,-0.00109401368866,0.929667622561,0.0,0.0,0.0,0.0,0.0,0.0,0.0,0.0,0.0,-0.00114899228062,-0.0133238341254,-0.000553422385831,0.0,0.0,0.0,0.0,0.0,0.0,0.0,0.0,0.0,6.10053180202,0.00171527341392,7.44897843922,0.0,0.0,0.0,0.0,0.0,0.0,0.0,0.0,0.0
22168000000,183,22168000000,imu_link,-0.000405646438258,-0.368422385607,-0.00109583324667,0.92965777595,0.0,0.0,0.0,0.0,0.0,0.0,0.0,0.0,0.0,-0.00123201576253,-0.0133608319416,-0.000496200224533,0.0,0.0,0.0,0.0,0.0,0.0,0.0,0.0,0.0,6.10331158935,0.00182000262852,7.44801374812,0.0,0.0,0.0,0.0,0.0,0.0,0.0,0.0,0.0
22172000000,184,22172000000,imu_link,-0.000407865754634,-0.368447426735,-0.00109764334739,0.929647848681,0.0,0.0,0.0,0.0,0.0,0.0,0.0,0.0,0.0,-0.0013533362057,-0.0134694024675,-0.000443082423592,0.0,0.0,0.0,0.0,0.0,0.0,0.0,0.0,0.0,6.10575376495,0.00181582797041,7.44694803536,0.0,0.0,0.0,0.0,0.0,0.0,0.0,0.0,0.0
22176000000,185,22176000000,imu_link,-0.00041031482168,-0.368472905694,-0.00109949585598,0.929637746932,0.0,0.0,0.0,0.0,0.0,0.0,0.0,0.0,0.0,-0.00146773764254,-0.0137051776857,-0.000420654146527,0.0,0.0,0.0,0.0,0.0,0.0,0.0,0.0,0.0,6.10884023497,0.00178843330748,7.44811247873,0.0,0.0,0.0,0.0,0.0,0.0,0.0,0.0,0.0
22180000000,186,22180000000,imu_link,-0.000412918832183,-0.368499022708,-0.00110142989745,0.929627391278,0.0,0.0,0.0,0.0,0.0,0.0,0.0,0.0,0.0,-0.00155448093351,-0.0140486049802,-0.000430276417015,0.0,0.0,0.0,0.0,0.0,0.0,0.0,0.0,0.0,6.11085646021,0.00182773028611,7.44670738929,0.0,0.0,0.0,0.0,0.0,0.0,0.0,0.0,0.0
22184000000,187,22184000000,imu_link,-0.000415589852941,-0.368525922619,-0.00110341616843,0.929616724309,0.0,0.0,0.0,0.0,0.0,0.0,0.0,0.0,0.0,-0.00159488460048,-0.014469891565,-0.000442539882959,0.0,0.0,0.0,0.0,0.0,0.0,0.0,0.0,0.0,6.11274203142,0.00186931267028,7.44471215311,0.0,0.0,0.0,0.0,0.0,0.0,0.0,0.0,0.0
22188000000,188,22188000000,imu_link,-0.000418227174906,-0.368553686775,-0.00110538113435,0.929605713829,0.0,0.0,0.0,0.0,0.0,0.0,0.0,0.0,0.0,-0.00157488995583,-0.0149348826132,-0.000439215658292,0.0,0.0,0.0,0.0,0.0,0.0,0.0,0.0,0.0,6.11575323049,0.00186503277193,7.44485221648,0.0,0.0,0.0,0.0,0.0,0.0,0.0,0.0,0.0
22192000000,189,22192000000,imu_link,-0.000420640945935,-0.368582048943,-0.00110725132902,0.929594465481,0.0,0.0,0.0,0.0,0.0,0.0,0.0,0.0,0.0,-0.00145323792059,-0.015256569786,-0.000436617490627,0.0,0.0,0.0,0.0,0.0,0.0,0.0,0.0,0.0,6.11812338351,0.00187037171633,7.44120570537,0.0,0.0,0.0,0.0,0.0,0.0,0.0,0.0,0.0
22196000000,190,22196000000,imu_link,-0.000422787435693,-0.368610585659,-0.0011090032987,0.92958314717,0.0,0.0,0.0,0.0,0.0,0.0,0.0,0.0,0.0,-0.00130713660116,-0.0153504694478,-0.000430999824326,0.0,0.0,0.0,0.0,0.0,0.0,0.0,0.0,0.0,6.1195436099,0.00191621740091,7.4342585919,0.0,0.0,0.0,0.0,0.0,0.0,0.0,0.0,0.0
22200000000,191,22200000000,imu_link,-0.000424860920623,-0.368638847961,-0.00111066264313,0.929571936805,0.0,0.0,0.0,0.0,0.0,0.0,0.0,0.0,0.0,-0.00125626259319,-0.0152030081349,-0.000401285701085,0.0,0.0,0.0,0.0,0.0,0.0,0.0,0.0,0.0,6.12131540538,0.00202097849164,7.42804521019,0.0,0.0,0.0,0.0,0.0,0.0,0.0,0.0,0.0
22204000000,192,22204000000,imu_link,-0.000427159759876,-0.368666619721,-0.00111228198788,0.929560919933,0.0,0.0,0.0,0.0,0.0,0.0,0.0,0.0,0.0,-0.00135386271285,-0.0149394807771,-0.000340945576176,0.0,0.0,0.0,0.0,0.0,0.0,0.0,0.0,0.0,6.12319088533,0.00211037036521,7.42374478749,0.0,0.0,0.0,0.0,0.0,0.0,0.0,0.0,0.0
22208000000,193,22208000000,imu_link,-0.000429991481763,-0.36869406656,-0.001113893666,0.929550030731,0.0,0.0,0.0,0.0,0.0,0.0,0.0,0.0,0.0,-0.00160027636533,-0.0147652276508,-0.000239013851979,0.0,0.0,0.0,0.0,0.0,0.0,0.0,0.0,0.0,6.1260872719,0.0021346029253,7.42471346391,0.0,0.0,0.0,0.0,0.0,0.0,0.0,0.0,0.0
22212000000,194,22212000000,imu_link,-0.000433318579082,-0.36872146222,-0.00111547813301,0.929539160682,0.0,0.0,0.0,0.0,0.0,0.0,0.0,0.0,0.0,-0.00182552258959,-0.0147381921251,-0.000135024150565,0.0,0.0,0.0,0.0,0.0,0.0,0.0,0.0,0.0,6.12878292766,0.00205309811188,7.42598457649,0.0,0.0,0.0,0.0,0.0,0.0,0.0,0.0,0.0
22216000000,195,22216000000,imu_link,-0.000436739105614,-0.368749109836,-0.00111696562039,0.929528189805,0.0,0.0,0.0,0.0,0.0,0.0,0.0,0.0,0.0,-0.00185094772904,-0.0148739553869,-7.28371120914e-05,0.0,0.0,0.0,0.0,0.0,0.0,0.0,0.0,0.0,6.1305263163,0.00191488471361,7.42506833039,0.0,0.0,0.0,0.0,0.0,0.0,0.0,0.0,0.0
22220000000,196,22220000000,imu_link,-0.000439846042555,-0.36877740412,-0.0011182693249,0.929516961771,0.0,0.0,0.0,0.0,0.0,0.0,0.0,0.0,0.0,-0.0016710126645,-0.0152217812186,-4.5524204242e-05,0.0,0.0,0.0,0.0,0.0,0.0,0.0,0.0,0.0,6.132612478,0.00182479514929,7.42535743949,0.0,0.0,0.0,0.0,0.0,0.0,0.0,0.0,0.0
22224000000,197,22224000000,imu_link,-0.000442629722321,-0.368806162519,-0.00111938601646,0.929505548957,0.0,0.0,0.0,0.0,0.0,0.0,0.0,0.0,0.0,-0.00148607421062,-0.0154714148089,-1.84187089594e-05,0.0,0.0,0.0,0.0,0.0,0.0,0.0,0.0,0.0,6.13399717035,0.00193907570972,7.41957656751,0.0,0.0,0.0,0.0,0.0,0.0,0.0,0.0,0.0
22228000000,198,22228000000,imu_link,-0.000445308683045,-0.368834816514,-0.00112038745228,0.929494176721,0.0,0.0,0.0,0.0,0.0,0.0,0.0,0.0,0.0,-0.0014162016834,-0.015415376844,1.58820233524e-05,0.0,0.0,0.0,0.0,0.0,0.0,0.0,0.0,0.0,6.13661669988,0.00209542713541,7.41381251605,0.0,0.0,0.0,0.0,0.0,0.0,0.0,0.0,0.0
22232000000,199,22232000000,imu_link,-0.000448051900371,-0.368862888218,-0.00112133200128,0.929483034573,0.0,0.0,0.0,0.0,0.0,0.0,0.0,0.0,0.0,-0.00143584879943,-0.0151023750407,5.44285844018e-05,0.0,0.0,0.0,0.0,0.0,0.0,0.0,0.0,0.0,6.13888191616,0.00216794223782,7.40852791737,0.0,0.0,0.0,0.0,0.0,0.0,0.0,0.0,0.0
22236000000,200,22236000000,imu_link,-0.000450818825101,-0.368890228226,-0.001122261819,0.929472181838,0.0,0.0,0.0,0.0,0.0,0.0,0.0,0.0,0.0,-0.00144449510424,-0.0147089653114,6.59733949277e-05,0.0,0.0,0.0,0.0,0.0,0.0,0.0,0.0,0.0,6.14076197525,0.00214487364178,7.4053775797,0.0,0.0,0.0,0.0,0.0,0.0,0.0,0.0,0.0
22240000000,201,22240000000,imu_link,-0.000453531974656,-0.368916856077,-0.00112319186768,0.929461610854,0.0,0.0,0.0,0.0,0.0,0.0,0.0,0.0,0.0,-0.00141988254298,-0.0143260027192,5.6266116853e-05,0.0,0.0,0.0,0.0,0.0,0.0,0.0,0.0,0.0,6.14201919238,0.00211363063253,7.40238116404,0.0,0.0,0.0,0.0,0.0,0.0,0.0,0.0,0.0
22244000000,202,22244000000,imu_link,-0.000456302824185,-0.368942892067,-0.00112417299609,0.929451273825,0.0,0.0,0.0,0.0,0.0,0.0,0.0,0.0,0.0,-0.00145639891867,-0.0140078123844,4.3436640342e-05,0.0,0.0,0.0,0.0,0.0,0.0,0.0,0.0,0.0,6.14369902121,0.00212717643234,7.40088506454,0.0,0.0,0.0,0.0,0.0,0.0,0.0,0.0,0.0
22248000000,203,22248000000,imu_link,-0.000459311940978,-0.368968381049,-0.00112525195271,0.929441152858,0.0,0.0,0.0,0.0,0.0,0.0,0.0,0.0,0.0,-0.00158543250661,-0.0137138581132,4.21731192927e-05,0.0,0.0,0.0,0.0,0.0,0.0,0.0,0.0,0.0,6.14610688426,0.00216350930466,7.40029685158,0.0,0.0,0.0,0.0,0.0,0.0,0.0,0.0,0.0
22252000000,204,22252000000,imu_link,-0.000462701171204,-0.368993568785,-0.00112649433356,0.929431150281,0.0,0.0,0.0,0.0,0.0,0.0,0.0,0.0,0.0,-0.00179237052812,-0.0135521979137,3.64872239433e-05,0.0,0.0,0.0,0.0,0.0,0.0,0.0,0.0,0.0,6.14756471197,0.00216357849886,7.39893598729,0.0,0.0,0.0,0.0,0.0,0.0,0.0,0.0,0.0
22256000000,205,22256000000,imu_link,-0.000466303376938,-0.369018765922,-0.00112796297512,0.929421142786,0.0,0.0,0.0,0.0,0.0,0.0,0.0,0.0,0.0,-0.00193308377917,-0.0135575415501,-2.93712961405e-05,0.0,0.0,0.0,0.0,0.0,0.0,0.0,0.0,0.0,6.15011206711,0.002109472526,7.40043462486,0.0,0.0,0.0,0.0,0.0,0.0,0.0,0.0,0.0
22260000000,206,22260000000,imu_link,-0.000469705180699,-0.369044054834,-0.00112966366224,0.929411097862,0.0,0.0,0.0,0.0,0.0,0.0,0.0,0.0,0.0,-0.00188272641399,-0.0136069297591,-0.000174223874627,0.0,0.0,0.0,0.0,0.0,0.0,0.0,0.0,0.0,6.15239278411,0.00203804605826,7.3995657382,0.0,0.0,0.0,0.0,0.0,0.0,0.0,0.0,0.0
22264000000,207,22264000000,imu_link,-0.000472326763987,-0.369069184959,-0.00113156760934,0.929401115329,0.0,0.0,0.0,0.0,0.0,0.0,0.0,0.0,0.0,-0.00155773460971,-0.0135211394886,-0.000412575247544,0.0,0.0,0.0,0.0,0.0,0.0,0.0,0.0,0.0,6.15488066326,0.00198655062732,7.39644218606,0.0,0.0,0.0,0.0,0.0,0.0,0.0,0.0,0.0
22268000000,208,22268000000,imu_link,-0.000473891019899,-0.369093777233,-0.00113361251759,0.929391345967,0.0,0.0,0.0,0.0,0.0,0.0,0.0,0.0,0.0,-0.00109266016154,-0.0132312306264,-0.000672945819146,0.0,0.0,0.0,0.0,0.0,0.0,0.0,0.0,0.0,6.15593971036,0.00209617579852,7.38895300859,0.0,0.0,0.0,0.0,0.0,0.0,0.0,0.0,0.0
22272000000,209,22272000000,imu_link,-0.000474348782613,-0.369117634684,-0.00113574520488,0.929381868147,0.0,0.0,0.0,0.0,0.0,0.0,0.0,0.0,0.0,-0.000595024330468,-0.0128353107977,-0.000917596875706,0.0,0.0,0.0,0.0,0.0,0.0,0.0,0.0,0.0,6.15801170144,0.00233412917388,7.38552670082,0.0,0.0,0.0,0.0,0.0,0.0,0.0,0.0,0.0
22276000000,210,22276000000,imu_link,-0.00047398603341,-0.369140779714,-0.00113795457119,0.929372672908,0.0,0.0,0.0,0.0,0.0,0.0,0.0,0.0,0.0,-0.000228229213864,-0.0124516178194,-0.00110433218938,0.0,0.0,0.0,0.0,0.0,0.0,0.0,0.0,0.0,6.15879895389,0.00261619874408,7.38140177606,0.0,0.0,0.0,0.0,0.0,0.0,0.0,0.0,0.0
22280000000,211,22280000000,imu_link,-0.000473209466335,-0.369163488928,-0.00114023799167,0.929363650232,0.0,0.0,0.0,0.0,0.0,0.0,0.0,0.0,0.0,-4.9808983996e-05,-0.0122169973032,-0.00121492120904,0.0,0.0,0.0,0.0,0.0,0.0,0.0,0.0,0.0,6.16068995722,0.00280829152887,7.38158797414,0.0,0.0,0.0,0.0,0.0,0.0,0.0,0.0,0.0
22284000000,212,22284000000,imu_link,-0.000472147445162,-0.369185987505,-0.00114258695448,0.929354710647,0.0,0.0,0.0,0.0,0.0,0.0,0.0,0.0,0.0,7.06380029517e-05,-0.0121036026492,-0.00129796994158,0.0,0.0,0.0,0.0,0.0,0.0,0.0,0.0,0.0,6.16201288817,0.00289762466688,7.37996213579,0.0,0.0,0.0,0.0,0.0,0.0,0.0,0.0,0.0
22288000000,213,22288000000,imu_link,-0.000471069015886,-0.369208459595,-0.00114505408948,0.92934578081,0.0,0.0,0.0,0.0,0.0,0.0,0.0,0.0,0.0,5.64358856703e-05,-0.0120894581659,-0.00135589888639,0.0,0.0,0.0,0.0,0.0,0.0,0.0,0.0,0.0,6.1635969338,0.00298656472053,7.37867295204,0.0,0.0,0.0,0.0,0.0,0.0,0.0,0.0,0.0
22292000000,214,22292000000,imu_link,-0.000470009541854,-0.369231146414,-0.00114765707774,0.929336764845,0.0,0.0,0.0,0.0,0.0,0.0,0.0,0.0,0.0,2.26514657155e-05,-0.012205115743,-0.00141562687699,0.0,0.0,0.0,0.0,0.0,0.0,0.0,0.0,0.0,6.16555283467,0.0030156104723,7.37832344424,0.0,0.0,0.0,0.0,0.0,0.0,0.0,0.0,0.0
22296000000,215,22296000000,imu_link,-0.000469026238708,-0.369254125248,-0.00115037724565,0.929327632019,0.0,0.0,0.0,0.0,0.0,0.0,0.0,0.0,0.0,-3.42358239547e-05,-0.0123623957867,-0.00145614991168,0.0,0.0,0.0,0.0,0.0,0.0,0.0,0.0,0.0,6.16696411904,0.0030326745313,7.37554946928,0.0,0.0,0.0,0.0,0.0,0.0,0.0,0.0,0.0
22300000000,216,22300000000,imu_link,-0.000468095010161,-0.369277449142,-0.00115315121947,0.929318361319,0.0,0.0,0.0,0.0,0.0,0.0,0.0,0.0,0.0,-6.82008897715e-05,-0.0125482054089,-0.0014716974108,0.0,0.0,0.0,0.0,0.0,0.0,0.0,0.0,0.0,6.16909934181,0.00300619553042,7.37380363866,0.0,0.0,0.0,0.0,0.0,0.0,0.0,0.0,0.0
22304000000,217,22304000000,imu_link,-0.000467170231899,-0.369300974345,-0.00115594148637,0.92930900991,0.0,0.0,0.0,0.0,0.0,0.0,0.0,0.0,0.0,-7.41092274873e-05,-0.012656647801,-0.00147817082028,0.0,0.0,0.0,0.0,0.0,0.0,0.0,0.0,0.0,6.17035010009,0.0029946658269,7.36895437821,0.0,0.0,0.0,0.0,0.0,0.0,0.0,0.0,0.0
22308000000,218,22308000000,imu_link,-0.000466077945094,-0.369324290167,-0.00115871777234,0.929299741115,0.0,0.0,0.0,0.0,0.0,0.0,0.0,0.0,0.0,6.2042373765e-06,-0.0125440094049,-0.00150250839773,0.0,0.0,0.0,0.0,0.0,0.0,0.0,0.0,0.0,6.1729115239,0.00295457499368,7.36484159855,0.0,0.0,0.0,0.0,0.0,0.0,0.0,0.0,0.0
22312000000,219,22312000000,imu_link,-0.000464757290809,-0.369346947068,-0.00116146754537,0.92929073367,0.0,0.0,0.0,0.0,0.0,0.0,0.0,0.0,0.0,0.000116890247733,-0.0121894543794,-0.00153205502067,0.0,0.0,0.0,0.0,0.0,0.0,0.0,0.0,0.0,6.17513332521,0.00296232137382,7.35966582707,0.0,0.0,0.0,0.0,0.0,0.0,0.0,0.0,0.0
22316000000,220,22316000000,imu_link,-0.000463523241831,-0.36936883916,-0.00116418820773,0.929282029564,0.0,0.0,0.0,0.0,0.0,0.0,0.0,0.0,0.0,8.165180048e-05,-0.0117781274747,-0.00150218129282,0.0,0.0,0.0,0.0,0.0,0.0,0.0,0.0,0.0,6.17661187067,0.00312670871596,7.35601730156,0.0,0.0,0.0,0.0,0.0,0.0,0.0,0.0,0.0
22320000000,221,22320000000,imu_link,-0.000462885856333,-0.36939021398,-0.00116691025146,0.929273530169,0.0,0.0,0.0,0.0,0.0,0.0,0.0,0.0,0.0,-0.000196091298675,-0.0115003218512,-0.00139238964333,0.0,0.0,0.0,0.0,0.0,0.0,0.0,0.0,0.0,6.17911193069,0.00327365294498,7.35742567422,0.0,0.0,0.0,0.0,0.0,0.0,0.0,0.0,0.0
22324000000,222,22324000000,imu_link,-0.000463233694531,-0.3694112494,-0.00116965586018,0.929265164599,0.0,0.0,0.0,0.0,0.0,0.0,0.0,0.0,0.0,-0.000658381838823,-0.0113184770302,-0.00122121617237,0.0,0.0,0.0,0.0,0.0,0.0,0.0,0.0,0.0,6.18125726093,0.0032689157376,7.35762624682,0.0,0.0,0.0,0.0,0.0,0.0,0.0,0.0,0.0
22328000000,223,22328000000,imu_link,-0.000464603692958,-0.369431971251,-0.00117240757793,0.929256922612,0.0,0.0,0.0,0.0,0.0,0.0,0.0,0.0,0.0,-0.00113459391914,-0.0111505525604,-0.0010351109837,0.0,0.0,0.0,0.0,0.0,0.0,0.0,0.0,0.0,6.18257554497,0.00313052431535,7.35479938506,0.0,0.0,0.0,0.0,0.0,0.0,0.0,0.0,0.0
22332000000,224,22332000000,imu_link,-0.000466300884665,-0.369452274737,-0.00117505704585,0.929248846379,0.0,0.0,0.0,0.0,0.0,0.0,0.0,0.0,0.0,-0.00126793679473,-0.0109257659794,-0.000926970623238,0.0,0.0,0.0,0.0,0.0,0.0,0.0,0.0,0.0,6.18561714984,0.00286971720731,7.35482451805,0.0,0.0,0.0,0.0,0.0,0.0,0.0,0.0,0.0
22336000000,225,22336000000,imu_link,-0.00046746245849,-0.369472201395,-0.00117748329546,0.929240920003,0.0,0.0,0.0,0.0,0.0,0.0,0.0,0.0,0.0,-0.000978027843565,-0.0107227379566,-0.000922024656979,0.0,0.0,0.0,0.0,0.0,0.0,0.0,0.0,0.0,6.18850775498,0.00268784003552,7.35553984764,0.0,0.0,0.0,0.0,0.0,0.0,0.0,0.0,0.0
22340000000,226,22340000000,imu_link,-0.000467507031559,-0.369491966473,-0.00117962394445,0.929233058299,0.0,0.0,0.0,0.0,0.0,0.0,0.0,0.0,0.0,-0.000406365709375,-0.0106351257821,-0.00099560329404,0.0,0.0,0.0,0.0,0.0,0.0,0.0,0.0,0.0,6.18977503178,0.00269910783647,7.35394624381,0.0,0.0,0.0,0.0,0.0,0.0,0.0,0.0,0.0
22344000000,227,22344000000,imu_link,-0.000466390122558,-0.369511938713,-0.00118149766568,0.929225114648,0.0,0.0,0.0,0.0,0.0,0.0,0.0,0.0,0.0,0.000182694921532,-0.0107458938021,-0.00108626015044,0.0,0.0,0.0,0.0,0.0,0.0,0.0,0.0,0.0,6.19211796597,0.00285843636777,7.3555385861,0.0,0.0,0.0,0.0,0.0,0.0,0.0,0.0,0.0
22348000000,228,22348000000,imu_link,-0.000464481839118,-0.369532366747,-0.00118320145985,0.929216989845,0.0,0.0,0.0,0.0,0.0,0.0,0.0,0.0,0.0,0.000581999480549,-0.0109907023195,-0.00115373435453,0.0,0.0,0.0,0.0,0.0,0.0,0.0,0.0,0.0,6.19346236646,0.00309858708296,7.35389071546,0.0,0.0,0.0,0.0,0.0,0.0,0.0,0.0,0.0
22352000000,229,22352000000,imu_link,-0.000462305371181,-0.369553255854,-0.00118483262705,0.92920868137,0.0,0.0,0.0,0.0,0.0,0.0,0.0,0.0,0.0,0.000720249397458,-0.011238715532,-0.00116975841872,0.0,0.0,0.0,0.0,0.0,0.0,0.0,0.0,0.0,6.19590453966,0.00329763269077,7.35274255575,0.0,0.0,0.0,0.0,0.0,0.0,0.0,0.0,0.0
22356000000,230,22356000000,imu_link,-0.000460202215073,-0.36957450277,-0.00118643698134,0.929200230028,0.0,0.0,0.0,0.0,0.0,0.0,0.0,0.0,0.0,0.000691321749582,-0.0114314028951,-0.00114392205707,0.0,0.0,0.0,0.0,0.0,0.0,0.0,0.0,0.0,6.19726456783,0.00337734078722,7.34845361683,0.0,0.0,0.0,0.0,0.0,0.0,0.0,0.0,0.0
22360000000,231,22360000000,imu_link,-0.000458262246936,-0.369596065443,-0.00118803994599,0.929191652441,0.0,0.0,0.0,0.0,0.0,0.0,0.0,0.0,0.0,0.000615919652326,-0.011601529426,-0.00111326891864,0.0,0.0,0.0,0.0,0.0,0.0,0.0,0.0,0.0,6.19797143769,0.00340560151574,7.34334415644,0.0,0.0,0.0,0.0,0.0,0.0,0.0,0.0,0.0
22364000000,232,22364000000,imu_link,-0.000456624500383,-0.369618092614,-0.00118968426113,0.929182889294,0.0,0.0,0.0,0.0,0.0,0.0,0.0,0.0,0.0,0.000468100680129,-0.0118517945214,-0.00107684688722,0.0,0.0,0.0,0.0,0.0,0.0,0.0,0.0,0.0,6.19978438589,0.00346021518624,7.34217624173,0.0,0.0,0.0,0.0,0.0,0.0,0.0,0.0,0.0
22368000000,233,22368000000,imu_link,-0.000455315844333,-0.369640797333,-0.0011913750236,0.929173855777,0.0,0.0,0.0,0.0,0.0,0.0,0.0,0.0,0.0,0.000306965466232,-0.0122167293607,-0.00103792253707,0.0,0.0,0.0,0.0,0.0,0.0,0.0,0.0,0.0,6.20189085237,0.00343885224553,7.34238294212,0.0,0.0,0.0,0.0,0.0,0.0,0.0,0.0,0.0
22372000000,234,22372000000,imu_link,-0.000454598858663,-0.369664218143,-0.00119314885719,0.929164536323,0.0,0.0,0.0,0.0,0.0,0.0,0.0,0.0,0.0,1.70913742921e-05,-0.0126025962337,-0.000967496891103,0.0,0.0,0.0,0.0,0.0,0.0,0.0,0.0,0.0,6.20395403003,0.00339845482665,7.34128189155,0.0,0.0,0.0,0.0,0.0,0.0,0.0,0.0,0.0
22376000000,235,22376000000,imu_link,-0.000454606755693,-0.369688252377,-0.0011950086827,0.92915497165,0.0,0.0,0.0,0.0,0.0,0.0,0.0,0.0,0.0,-0.000335260126958,-0.0129333200674,-0.000873751337674,0.0,0.0,0.0,0.0,0.0,0.0,0.0,0.0,0.0,6.2058081377,0.00331529349155,7.3387774504,0.0,0.0,0.0,0.0,0.0,0.0,0.0,0.0,0.0
22380000000,236,22380000000,imu_link,-0.000455216048693,-0.369712679421,-0.00119692491201,0.929145249584,0.0,0.0,0.0,0.0,0.0,0.0,0.0,0.0,0.0,-0.000624882135987,-0.0131452496077,-0.00078897408763,0.0,0.0,0.0,0.0,0.0,0.0,0.0,0.0,0.0,6.20786029068,0.00318213055105,7.33576017464,0.0,0.0,0.0,0.0,0.0,0.0,0.0,0.0,0.0
22384000000,237,22384000000,imu_link,-0.00045589625064,-0.369737188217,-0.00119884436976,0.929135494199,0.0,0.0,0.0,0.0,0.0,0.0,0.0,0.0,0.0,-0.000658379946983,-0.0131894309712,-0.000777404512753,0.0,0.0,0.0,0.0,0.0,0.0,0.0,0.0,0.0,6.21071880804,0.00302750289161,7.33378178437,0.0,0.0,0.0,0.0,0.0,0.0,0.0,0.0,0.0
22388000000,238,22388000000,imu_link,-0.000455995416496,-0.369761452818,-0.00120069848345,0.929125835612,0.0,0.0,0.0,0.0,0.0,0.0,0.0,0.0,0.0,-0.000376493566065,-0.013057757044,-0.000854349408829,0.0,0.0,0.0,0.0,0.0,0.0,0.0,0.0,0.0,6.21312048329,0.00292014770323,7.33090077904,0.0,0.0,0.0,0.0,0.0,0.0,0.0,0.0,0.0
22392000000,239,22392000000,imu_link,-0.000455121374178,-0.369785305028,-0.00120240662142,0.929116341084,0.0,0.0,0.0,0.0,0.0,0.0,0.0,0.0,0.0,0.000102400785835,-0.0128352931407,-0.000966269419939,0.0,0.0,0.0,0.0,0.0,0.0,0.0,0.0,0.0,6.21559484536,0.00293890656633,7.32910058852,0.0,0.0,0.0,0.0,0.0,0.0,0.0,0.0,0.0
22396000000,240,22396000000,imu_link,-0.000453286810622,-0.369808874118,-0.00120394363427,0.929106959222,0.0,0.0,0.0,0.0,0.0,0.0,0.0,0.0,0.0,0.000580113978151,-0.0126823981306,-0.00106423300801,0.0,0.0,0.0,0.0,0.0,0.0,0.0,0.0,0.0,6.21639141542,0.00307303927948,7.32613757913,0.0,0.0,0.0,0.0,0.0,0.0,0.0,0.0,0.0
22400000000,241,22400000000,imu_link,-0.00045041156714,-0.369832685889,-0.00120525358446,0.92909748086,0.0,0.0,0.0,0.0,0.0,0.0,0.0,0.0,0.0,0.00110567457008,-0.0128124046227,-0.00115128968146,0.0,0.0,0.0,0.0,0.0,0.0,0.0,0.0,0.0,6.21844688151,0.00317522553079,7.32888961086,0.0,0.0,0.0,0.0,0.0,0.0,0.0,0.0,0.0
22404000000,242,22404000000,imu_link,-0.00044654433777,-0.36985727721,-0.00120633610842,0.929087692226,0.0,0.0,0.0,0.0,0.0,0.0,0.0,0.0,0.0,0.00160895509305,-0.0132313710379,-0.00122943605554,0.0,0.0,0.0,0.0,0.0,0.0,0.0,0.0,0.0,6.22077866709,0.00331721350217,7.33198814525,0.0,0.0,0.0,0.0,0.0,0.0,0.0,0.0,0.0
22408000000,243,22408000000,imu_link,-0.000441335082036,-0.369882846897,-0.00120715099838,0.929077514302,0.0,0.0,0.0,0.0,0.0,0.0,0.0,0.0,0.0,0.00228238157508,-0.0137571064475,-0.00135374068728,0.0,0.0,0.0,0.0,0.0,0.0,0.0,0.0,0.0,6.22346648871,0.00344877992179,7.33311619467,0.0,0.0,0.0,0.0,0.0,0.0,0.0,0.0,0.0
22412000000,244,22412000000,imu_link,-0.000434532195997,-0.369909205128,-0.00120773905183,0.929067022615,0.0,0.0,0.0,0.0,0.0,0.0,0.0,0.0,0.0,0.00306504279291,-0.0141805315698,-0.00154345797626,0.0,0.0,0.0,0.0,0.0,0.0,0.0,0.0,0.0,6.22580647309,0.0036350295985,7.33064793256,0.0,0.0,0.0,0.0,0.0,0.0,0.0,0.0,0.0
22416000000,245,22416000000,imu_link,-0.000426090794438,-0.369936008434,-0.00120813987359,0.929056353785,0.0,0.0,0.0,0.0,0.0,0.0,0.0,0.0,0.0,0.00386104780235,-0.0144190987338,-0.00175973724571,0.0,0.0,0.0,0.0,0.0,0.0,0.0,0.0,0.0,6.22692551094,0.00382842669181,7.32445589689,0.0,0.0,0.0,0.0,0.0,0.0,0.0,0.0,0.0
22420000000,246,22420000000,imu_link,-0.000416079180952,-0.369963055814,-0.00120836250869,0.929045587725,0.0,0.0,0.0,0.0,0.0,0.0,0.0,0.0,0.0,0.00462354104323,-0.014549551282,-0.00196751421316,0.0,0.0,0.0,0.0,0.0,0.0,0.0,0.0,0.0,6.22840393146,0.00401120126658,7.32052862679,0.0,0.0,0.0,0.0,0.0,0.0,0.0,0.0,0.0
22424000000,247,22424000000,imu_link,-0.000404715529021,-0.369990523081,-0.00120838933379,0.929034654268,0.0,0.0,0.0,0.0,0.0,0.0,0.0,0.0,0.0,0.005288033814,-0.0147747880413,-0.00212684663795,0.0,0.0,0.0,0.0,0.0,0.0,0.0,0.0,0.0,6.23015484639,0.00419747282513,7.32037037,0.0,0.0,0.0,0.0,0.0,0.0,0.0,0.0,0.0
22428000000,248,22428000000,imu_link,-0.000392236993434,-0.370018640644,-0.00120818536287,0.929023461498,0.0,0.0,0.0,0.0,0.0,0.0,0.0,0.0,0.0,0.00584895319205,-0.0151242061929,-0.00222617434743,0.0,0.0,0.0,0.0,0.0,0.0,0.0,0.0,0.0,6.23311159083,0.00436297835188,7.3232809999,0.0,0.0,0.0,0.0,0.0,0.0,0.0,0.0,0.0
22432000000,249,22432000000,imu_link,-0.000378679508081,-0.370047535869,-0.00120770829567,0.92901195861,0.0,0.0,0.0,0.0,0.0,0.0,0.0,0.0,0.0,0.00640107233182,-0.0155422165655,-0.00229927354294,0.0,0.0,0.0,0.0,0.0,0.0,0.0,0.0,0.0,6.23426046853,0.00445441146499,7.32136767979,0.0,0.0,0.0,0.0,0.0,0.0,0.0,0.0,0.0
22436000000,250,22436000000,imu_link,-0.000364021401881,-0.370076891081,-0.00120694366601,0.929000272047,0.0,0.0,0.0,0.0,0.0,0.0,0.0,0.0,0.0,0.00696576617596,-0.0157892568737,-0.00236953808073,0.0,0.0,0.0,0.0,0.0,0.0,0.0,0.0,0.0,6.23647217805,0.00451272909983,7.31774535376,0.0,0.0,0.0,0.0,0.0,0.0,0.0,0.0,0.0
22440000000,251,22440000000,imu_link,-0.000348242550859,-0.3701063521,-0.0012058987277,0.928988542809,0.0,0.0,0.0,0.0,0.0,0.0,0.0,0.0,0.0,0.00753827626089,-0.0158456751692,-0.00244676056094,0.0,0.0,0.0,0.0,0.0,0.0,0.0,0.0,0.0,6.23808886765,0.00458461478887,7.31271465751,0.0,0.0,0.0,0.0,0.0,0.0,0.0,0.0,0.0
22444000000,252,22444000000,imu_link,-0.000331438347331,-0.37013582374,-0.00120457897921,0.928976808711,0.0,0.0,0.0,0.0,0.0,0.0,0.0,0.0,0.0,0.0080654066787,-0.0158509379031,-0.002508862332,0.0,0.0,0.0,0.0,0.0,0.0,0.0,0.0,0.0,6.23994737361,0.00467279578986,7.31044924291,0.0,0.0,0.0,0.0,0.0,0.0,0.0,0.0,0.0
22448000000,253,22448000000,imu_link,-0.000313745707642,-0.37016554866,-0.00120299300558,0.928964972944,0.0,0.0,0.0,0.0,0.0,0.0,0.0,0.0,0.0,0.00852748040476,-0.0159869078181,-0.00254972807074,0.0,0.0,0.0,0.0,0.0,0.0,0.0,0.0,0.0,6.24125416551,0.00474799740352,7.30962160209,0.0,0.0,0.0,0.0,0.0,0.0,0.0,0.0,0.0
22452000000,254,22452000000,imu_link,-0.000295544753638,-0.370195864414,-0.00120118049405,0.928952900738,0.0,0.0,0.0,0.0,0.0,0.0,0.0,0.0,0.0,0.00880583006,-0.0163048307719,-0.00253882030856,0.0,0.0,0.0,0.0,0.0,0.0,0.0,0.0,0.0,6.24337643134,0.0048711695332,7.31117160364,0.0,0.0,0.0,0.0,0.0,0.0,0.0,0.0,0.0
22456000000,255,22456000000,imu_link,-0.000277535143629,-0.370226745784,-0.00119919031042,0.928940601773,0.0,0.0,0.0,0.0,0.0,0.0,0.0,0.0,0.0,0.00875014821329,-0.0166096600707,-0.00242109819745,0.0,0.0,0.0,0.0,0.0,0.0,0.0,0.0,0.0,6.24474669997,0.00496952016553,7.30840845116,0.0,0.0,0.0,0.0,0.0,0.0,0.0,0.0,0.0
22460000000,256,22460000000,imu_link,-0.00026066023804,-0.370257925405,-0.00119708292813,0.92892818222,0.0,0.0,0.0,0.0,0.0,0.0,0.0,0.0,0.0,0.00824496884344,-0.0167712074404,-0.00215672763124,0.0,0.0,0.0,0.0,0.0,0.0,0.0,0.0,0.0,6.24749979813,0.00494492685758,7.30727324451,0.0,0.0,0.0,0.0,0.0,0.0,0.0,0.0,0.0
22464000000,257,22464000000,imu_link,-0.000245640712172,-0.370289525115,-0.00119490823268,0.928915593284,0.0,0.0,0.0,0.0,0.0,0.0,0.0,0.0,0.0,0.00739590256877,-0.0169988008669,-0.00178213469234,0.0,0.0,0.0,0.0,0.0,0.0,0.0,0.0,0.0,6.25009315562,0.00467511839555,7.30898267808,0.0,0.0,0.0,0.0,0.0,0.0,0.0,0.0,0.0
22468000000,258,22468000000,imu_link,-0.00023266220352,-0.370321692366,-0.00119263913995,0.928902776206,0.0,0.0,0.0,0.0,0.0,0.0,0.0,0.0,0.0,0.00646572442849,-0.0173058697919,-0.00136061350679,0.0,0.0,0.0,0.0,0.0,0.0,0.0,0.0,0.0,6.25138537951,0.00427542417193,7.30798833217,0.0,0.0,0.0,0.0,0.0,0.0,0.0,0.0,0.0
22472000000,259,22472000000,imu_link,-0.000221525112052,-0.370354378374,-0.00119023505456,0.928889750555,0.0,0.0,0.0,0.0,0.0,0.0,0.0,0.0,0.0,0.00563575610028,-0.0175865408355,-0.000957142330557,0.0,0.0,0.0,0.0,0.0,0.0,0.0,0.0,0.0,6.25302757848,0.00381791551178,7.30594992618,0.0,0.0,0.0,0.0,0.0,0.0,0.0,0.0,0.0
22476000000,260,22476000000,imu_link,-0.00021157733107,-0.370386961151,-0.00118766975306,0.928876764531,0.0,0.0,0.0,0.0,0.0,0.0,0.0,0.0,0.0,0.00511318343723,-0.0175319833714,-0.000661998150695,0.0,0.0,0.0,0.0,0.0,0.0,0.0,0.0,0.0,6.25697256444,0.00334968672429,7.30413534152,0.0,0.0,0.0,0.0,0.0,0.0,0.0,0.0,0.0
22480000000,261,22480000000,imu_link,-0.000202091096283,-0.370418379886,-0.00118490858752,0.928864241422,0.0,0.0,0.0,0.0,0.0,0.0,0.0,0.0,0.0,0.00493445413698,-0.0169059236765,-0.000485157985244,0.0,0.0,0.0,0.0,0.0,0.0,0.0,0.0,0.0,6.26216740907,0.0029707374742,7.30143008055,0.0,0.0,0.0,0.0,0.0,0.0,0.0,0.0,0.0
22484000000,262,22484000000,imu_link,-0.000192569959419,-0.370447943524,-0.00118194586637,0.928852457099,0.0,0.0,0.0,0.0,0.0,0.0,0.0,0.0,0.0,0.0049869693215,-0.015907526429,-0.000397388128956,0.0,0.0,0.0,0.0,0.0,0.0,0.0,0.0,0.0,6.26533481397,0.00272164517793,7.297789499,0.0,0.0,0.0,0.0,0.0,0.0,0.0,0.0,0.0
22488000000,263,22488000000,imu_link,-0.000182940355694,-0.370475611519,-0.00117884565949,0.928841427869,0.0,0.0,0.0,0.0,0.0,0.0,0.0,0.0,0.0,0.00506176226337,-0.0148872278863,-0.000352998044366,0.0,0.0,0.0,0.0,0.0,0.0,0.0,0.0,0.0,6.2649997449,0.00262931377698,7.29231109113,0.0,0.0,0.0,0.0,0.0,0.0,0.0,0.0,0.0
22492000000,264,22492000000,imu_link,-0.000173576621946,-0.370501888464,-0.00117574849675,0.928830952397,0.0,0.0,0.0,0.0,0.0,0.0,0.0,0.0,0.0,0.00493695358249,-0.0141387753088,-0.000304709002641,0.0,0.0,0.0,0.0,0.0,0.0,0.0,0.0,0.0,6.26608794795,0.00262473572906,7.29415724848,0.0,0.0,0.0,0.0,0.0,0.0,0.0,0.0,0.0
22496000000,265,22496000000,imu_link,-0.000164783060864,-0.370527333258,-0.00117274200392,0.928820807708,0.0,0.0,0.0,0.0,0.0,0.0,0.0,0.0,0.0,0.00465489939321,-0.0136913607153,-0.000240925806566,0.0,0.0,0.0,0.0,0.0,0.0,0.0,0.0,0.0,6.26613439818,0.00255909713709,7.29388410228,0.0,0.0,0.0,0.0,0.0,0.0,0.0,0.0,0.0
22500000000,266,22500000000,imu_link,-0.000156563592902,-0.370552194588,-0.00116985334395,0.928810894648,0.0,0.0,0.0,0.0,0.0,0.0,0.0,0.0,0.0,0.00436613138651,-0.013377808698,-0.000189106121814,0.0,0.0,0.0,0.0,0.0,0.0,0.0,0.0,0.0,6.26648631056,0.00246868935825,7.29148616837,0.0,0.0,0.0,0.0,0.0,0.0,0.0,0.0,0.0
22504000000,267,22504000000,imu_link,-0.000148714607325,-0.370576483245,-0.00116705634645,0.928801209048,0.0,0.0,0.0,0.0,0.0,0.0,0.0,0.0,0.0,0.0041767773161,-0.0130699225741,-0.000162855269258,0.0,0.0,0.0,0.0,0.0,0.0,0.0,0.0,0.0,6.26559064508,0.00228360168861,7.28473617733,0.0,0.0,0.0,0.0,0.0,0.0,0.0,0.0,0.0
22508000000,268,22508000000,imu_link,-0.000140844870605,-0.370600238653,-0.00116428472082,0.928791735382,0.0,0.0,0.0,0.0,0.0,0.0,0.0,0.0,0.0,0.00418141764515,-0.0127829984829,-0.000178319599433,0.0,0.0,0.0,0.0,0.0,0.0,0.0,0.0,0.0,6.26723023601,0.00202980337638,7.28367617718,0.0,0.0,0.0,0.0,0.0,0.0,0.0,0.0,0.0
22512000000,269,22512000000,imu_link,-0.000132458264656,-0.370623477443,-0.00116147997485,0.928782467205,0.0,0.0,0.0,0.0,0.0,0.0,0.0,0.0,0.0,0.00442730050788,-0.0125047077622,-0.00025855857426,0.0,0.0,0.0,0.0,0.0,0.0,0.0,0.0,0.0,6.26907231815,0.00185211658456,7.28310486503,0.0,0.0,0.0,0.0,0.0,0.0,0.0,0.0,0.0
22516000000,270,22516000000,imu_link,-0.000123206771491,-0.3706460947,-0.00115857212539,0.928773446549,0.0,0.0,0.0,0.0,0.0,0.0,0.0,0.0,0.0,0.00484770827992,-0.0121697093432,-0.000370767063978,0.0,0.0,0.0,0.0,0.0,0.0,0.0,0.0,0.0,6.27020246232,0.00179280387114,7.2799066109,0.0,0.0,0.0,0.0,0.0,0.0,0.0,0.0,0.0
22520000000,271,22520000000,imu_link,-0.000113045910925,-0.370667980258,-0.00115553846614,0.928764717441,0.0,0.0,0.0,0.0,0.0,0.0,0.0,0.0,0.0,0.00529291597917,-0.0117753681943,-0.000480655439128,0.0,0.0,0.0,0.0,0.0,0.0,0.0,0.0,0.0,6.27005071906,0.00186105280228,7.27396406234,0.0,0.0,0.0,0.0,0.0,0.0,0.0,0.0,0.0
22524000000,272,22524000000,imu_link,-0.000102119221592,-0.370689125423,-0.00115237618798,0.928756283367,0.0,0.0,0.0,0.0,0.0,0.0,0.0,0.0,0.0,0.00567197970249,-0.011376427868,-0.000562648879876,0.0,0.0,0.0,0.0,0.0,0.0,0.0,0.0,0.0,6.27028615124,0.00196480091857,7.26980045963,0.0,0.0,0.0,0.0,0.0,0.0,0.0,0.0,0.0
22528000000,273,22528000000,imu_link,-9.07734791083e-05,-0.3707096735,-0.00114917028621,0.928748087019,0.0,0.0,0.0,0.0,0.0,0.0,0.0,0.0,0.0,0.00587433233022,-0.0110548528953,-0.000619892786224,0.0,0.0,0.0,0.0,0.0,0.0,0.0,0.0,0.0,6.27182996566,0.00207668847583,7.26888538302,0.0,0.0,0.0,0.0,0.0,0.0,0.0,0.0,0.0
22532000000,274,22532000000,imu_link,-7.95048935636e-05,-0.370729854423,-0.00114602445017,0.928740036472,0.0,0.0,0.0,0.0,0.0,0.0,0.0,0.0,0.0,0.00582716483219,-0.0108573725113,-0.000633383901936,0.0,0.0,0.0,0.0,0.0,0.0,0.0,0.0,0.0,6.27446856218,0.00218152800361,7.27121669256,0.0,0.0,0.0,0.0,0.0,0.0,0.0,0.0,0.0
22536000000,275,22536000000,imu_link,-6.87662492418e-05,-0.370749836066,-0.00114302187708,0.928732064607,0.0,0.0,0.0,0.0,0.0,0.0,0.0,0.0,0.0,0.00555440902784,-0.010750545958,-0.000601625398086,0.0,0.0,0.0,0.0,0.0,0.0,0.0,0.0,0.0,6.27629461405,0.00220425165607,7.27119748351,0.0,0.0,0.0,0.0,0.0,0.0,0.0,0.0,0.0
22540000000,276,22540000000,imu_link,-5.88522183745e-05,-0.370769849294,-0.00114020623301,0.928724079219,0.0,0.0,0.0,0.0,0.0,0.0,0.0,0.0,0.0,0.00513685218375,-0.0107681847214,-0.000535575049429,0.0,0.0,0.0,0.0,0.0,0.0,0.0,0.0,0.0,6.27794523498,0.00212342122754,7.2712600676,0.0,0.0,0.0,0.0,0.0,0.0,0.0,0.0,0.0
22544000000,277,22544000000,imu_link,-4.98145557908e-05,-0.370789955242,-0.00113757415669,0.928716055926,0.0,0.0,0.0,0.0,0.0,0.0,0.0,0.0,0.0,0.00469592107032,-0.0108187615125,-0.000458375815602,0.0,0.0,0.0,0.0,0.0,0.0,0.0,0.0,0.0,6.2786139965,0.00199248092167,7.26765174031,0.0,0.0,0.0,0.0,0.0,0.0,0.0,0.0,0.0
22548000000,278,22548000000,imu_link,-4.15228824652e-05,-0.370810087917,-0.00113510819155,0.928708021126,0.0,0.0,0.0,0.0,0.0,0.0,0.0,0.0,0.0,0.00431873370846,-0.0108337263415,-0.000397215420381,0.0,0.0,0.0,0.0,0.0,0.0,0.0,0.0,0.0,6.27960212805,0.00181605902185,7.26375133906,0.0,0.0,0.0,0.0,0.0,0.0,0.0,0.0,0.0
22552000000,279,22552000000,imu_link,-3.37180117524e-05,-0.370829919818,-0.00113278464841,0.928700105648,0.0,0.0,0.0,0.0,0.0,0.0,0.0,0.0,0.0,0.00406611097548,-0.0106722106759,-0.000373020024411,0.0,0.0,0.0,0.0,0.0,0.0,0.0,0.0,0.0,6.28147732288,0.00159664108596,7.26032322978,0.0,0.0,0.0,0.0,0.0,0.0,0.0,0.0,0.0
22556000000,280,22556000000,imu_link,-2.62777070605e-05,-0.370849118703,-0.00113057444586,0.928692442237,0.0,0.0,0.0,0.0,0.0,0.0,0.0,0.0,0.0,0.00387545540025,-0.0103317377001,-0.0003579002931,0.0,0.0,0.0,0.0,0.0,0.0,0.0,0.0,0.0,6.28256019359,0.00136185973935,7.25523065227,0.0,0.0,0.0,0.0,0.0,0.0,0.0,0.0,0.0
22560000000,281,22560000000,imu_link,-1.94460947064e-05,-0.370867572177,-0.00112847106613,0.928685075837,0.0,0.0,0.0,0.0,0.0,0.0,0.0,0.0,0.0,0.00357258636724,-0.00993087821811,-0.000294458872945,0.0,0.0,0.0,0.0,0.0,0.0,0.0,0.0,0.0,6.28318068341,0.00125690802706,7.25132516245,0.0,0.0,0.0,0.0,0.0,0.0,0.0,0.0,0.0
22564000000,282,22564000000,imu_link,-1.36861725695e-05,-0.370885509752,-0.00112650291044,0.928677914812,0.0,0.0,0.0,0.0,0.0,0.0,0.0,0.0,0.0,0.00304959081603,-0.00965384418555,-0.000158400671845,0.0,0.0,0.0,0.0,0.0,0.0,0.0,0.0,0.0,6.28484085103,0.00119101828843,7.25230821846,0.0,0.0,0.0,0.0,0.0,0.0,0.0,0.0,0.0
22568000000,283,22568000000,imu_link,-9.35500431439e-06,-0.370903665901,-0.00112468809458,0.92867066585,0.0,0.0,0.0,0.0,0.0,0.0,0.0,0.0,0.0,0.00235785147624,-0.00977244742905,3.52986971697e-05,0.0,0.0,0.0,0.0,0.0,0.0,0.0,0.0,0.0,6.28788978691,0.00107321406783,7.25982301997,0.0,0.0,0.0,0.0,0.0,0.0,0.0,0.0,0.0
22572000000,284,22572000000,imu_link,-6.22693746628e-06,-0.3709228854,-0.00112296508925,0.928662991616,0.0,0.0,0.0,0.0,0.0,0.0,0.0,0.0,0.0,0.00178277853228,-0.0103457424361,0.000215541061673,0.0,0.0,0.0,0.0,0.0,0.0,0.0,0.0,0.0,6.29078150738,0.000809927241741,7.26723495379,0.0,0.0,0.0,0.0,0.0,0.0,0.0,0.0,0.0
22576000000,285,22576000000,imu_link,-3.9405870597e-06,-0.37094383932,-0.00112128465883,0.928654624053,0.0,0.0,0.0,0.0,0.0,0.0,0.0,0.0,0.0,0.00138501876273,-0.0112801465362,0.000351483446363,0.0,0.0,0.0,0.0,0.0,0.0,0.0,0.0,0.0,6.2929859544,0.000573658460441,7.27180275204,0.0,0.0,0.0,0.0,0.0,0.0,0.0,0.0,0.0
22580000000,286,22580000000,imu_link,-2.16677787166e-06,-0.37096700676,-0.00111960997914,0.928645371692,0.0,0.0,0.0,0.0,0.0,0.0,0.0,0.0,0.0,0.00114720452779,-0.0124723373443,0.000443374812657,0.0,0.0,0.0,0.0,0.0,0.0,0.0,0.0,0.0,6.29476749813,0.000410144847577,7.273801478,0.0,0.0,0.0,0.0,0.0,0.0,0.0,0.0,0.0
22584000000,287,22584000000,imu_link,-8.40020266487e-07,-0.37099225607,-0.00111795959049,0.928635286914,0.0,0.0,0.0,0.0,0.0,0.0,0.0,0.0,0.0,0.000936287287741,-0.0135936465077,0.000514548378,0.0,0.0,0.0,0.0,0.0,0.0,0.0,0.0,0.0,6.2960767194,0.000332034790559,7.26995549365,0.0,0.0,0.0,0.0,0.0,0.0,0.0,0.0,0.0
22588000000,288,22588000000,imu_link,-1.99311221177e-07,-0.371018975214,-0.00111638883616,0.92862461399,0.0,0.0,0.0,0.0,0.0,0.0,0.0,0.0,0.0,0.000603792339627,-0.0143855984632,0.000604502731517,0.0,0.0,0.0,0.0,0.0,0.0,0.0,0.0,0.0,6.29863278612,0.000329650038891,7.26483032747,0.0,0.0,0.0,0.0,0.0,0.0,0.0,0.0,0.0
22592000000,289,22592000000,imu_link,-4.24239403046e-07,-0.371046480166,-0.00111495005263,0.928613626027,0.0,0.0,0.0,0.0,0.0,0.0,0.0,0.0,0.0,0.000177823088163,-0.0148093846595,0.000703635052027,0.0,0.0,0.0,0.0,0.0,0.0,0.0,0.0,0.0,6.30079186282,0.000316398991322,7.25836741198,0.0,0.0,0.0,0.0,0.0,0.0,0.0,0.0,0.0
22596000000,290,22596000000,imu_link,-1.49104273811e-06,-0.371074283919,-0.00111365300058,0.928602517544,0.0,0.0,0.0,0.0,0.0,0.0,0.0,0.0,0.0,-0.000239193216167,-0.0149709489754,0.000793948315054,0.0,0.0,0.0,0.0,0.0,0.0,0.0,0.0,0.0,6.30118174278,0.000222234781628,7.25027748178,0.0,0.0,0.0,0.0,0.0,0.0,0.0,0.0,0.0
22600000000,291,22600000000,imu_link,-3.02975439679e-06,-0.37110207026,-0.00111247986911,0.928591414901,0.0,0.0,0.0,0.0,0.0,0.0,0.0,0.0,0.0,-0.000481302406206,-0.014962043392,0.000823971621446,0.0,0.0,0.0,0.0,0.0,0.0,0.0,0.0,0.0,6.30245718187,3.83131311753e-05,7.24598205702,0.0,0.0,0.0,0.0,0.0,0.0,0.0,0.0,0.0
22604000000,292,22604000000,imu_link,-4.46096980137e-06,-0.371129355686,-0.00111138483575,0.9285805114,0.0,0.0,0.0,0.0,0.0,0.0,0.0,0.0,0.0,-0.000446161868958,-0.0146924598979,0.000767876492911,0.0,0.0,0.0,0.0,0.0,0.0,0.0,0.0,0.0,6.30519751461,-0.000109575767704,7.24359644188,0.0,0.0,0.0,0.0,0.0,0.0,0.0,0.0,0.0
22608000000,293,22608000000,imu_link,-5.23621957049e-06,-0.371155703093,-0.00111031295209,0.928569981875,0.0,0.0,0.0,0.0,0.0,0.0,0.0,0.0,0.0,-0.000146419600483,-0.0141871852804,0.000635614165047,0.0,0.0,0.0,0.0,0.0,0.0,0.0,0.0,0.0,6.30632828132,-0.000168655141738,7.23842612428,0.0,0.0,0.0,0.0,0.0,0.0,0.0,0.0,0.0
22612000000,294,22612000000,imu_link,-5.0514990957e-06,-0.371180790325,-0.00110924187012,0.928559955227,0.0,0.0,0.0,0.0,0.0,0.0,0.0,0.0,0.0,0.000298433123372,-0.013508249312,0.0004573752145,0.0,0.0,0.0,0.0,0.0,0.0,0.0,0.0,0.0,6.30821576757,-8.46790335625e-05,7.23572533762,0.0,0.0,0.0,0.0,0.0,0.0,0.0,0.0,0.0
22616000000,295,22616000000,imu_link,-3.88952614977e-06,-0.371204586294,-0.00110818332263,0.928550443987,0.0,0.0,0.0,0.0,0.0,0.0,0.0,0.0,0.0,0.000749110740316,-0.0128125448744,0.000270476152167,0.0,0.0,0.0,0.0,0.0,0.0,0.0,0.0,0.0,6.30762243705,8.32003647344e-05,7.23042522561,0.0,0.0,0.0,0.0,0.0,0.0,0.0,0.0,0.0
22620000000,296,22620000000,imu_link,-2.14150204796e-06,-0.37122729184,-0.00110725204291,0.928541367835,0.0,0.0,0.0,0.0,0.0,0.0,0.0,0.0,0.0,0.000996975233838,-0.0122252103892,0.000102859642856,0.0,0.0,0.0,0.0,0.0,0.0,0.0,0.0,0.0,6.30929565328,0.00030228158116,7.23110593316,0.0,0.0,0.0,0.0,0.0,0.0,0.0,0.0,0.0
22624000000,297,22624000000,imu_link,-3.54096084343e-07,-0.371249055448,-0.00110654108103,0.928532667382,0.0,0.0,0.0,0.0,0.0,0.0,0.0,0.0,0.0,0.000973843999774,-0.0117181391032,-6.52827974647e-06,0.0,0.0,0.0,0.0,0.0,0.0,0.0,0.0,0.0,6.31051967822,0.000502374538667,7.23046905358,0.0,0.0,0.0,0.0,0.0,0.0,0.0,0.0,0.0
22632000000,298,22632000000,imu_link,2.81756580303e-06,-0.37129134224,-0.00110578673372,0.928515759912,0.0,0.0,0.0,0.0,0.0,0.0,0.0,0.0,0.0,0.000795757653238,-0.0113723646391,-0.000163874978828,0.0,0.0,0.0,0.0,0.0,0.0,0.0,0.0,0.0,6.31336684618,0.00057473803267,7.23409209339,0.0,0.0,0.0,0.0,0.0,0.0,0.0,0.0,0.0
22636000000,299,22636000000,imu_link,4.74999916437e-06,-0.371312950348,-0.00110559793596,0.92850711927,0.0,0.0,0.0,0.0,0.0,0.0,0.0,0.0,0.0,0.000944156055724,-0.0116347635595,-0.000275843951381,0.0,0.0,0.0,0.0,0.0,0.0,0.0,0.0,0.0,6.31681090306,0.000574254259,7.24108331422,0.0,0.0,0.0,0.0,0.0,0.0,0.0,0.0,0.0
22640000000,300,22640000000,imu_link,7.15943370258e-06,-0.371335375867,-0.00110547908491,0.928498151045,0.0,0.0,0.0,0.0,0.0,0.0,0.0,0.0,0.0,0.00115307213044,-0.0120748039154,-0.00039705446892,0.0,0.0,0.0,0.0,0.0,0.0,0.0,0.0,0.0,6.31737215129,0.00071645224012,7.23995853774,0.0,0.0,0.0,0.0,0.0,0.0,0.0,0.0,0.0
22644000000,301,22644000000,imu_link,9.77286244646e-06,-0.371358484178,-0.00110543707822,0.928488909004,0.0,0.0,0.0,0.0,0.0,0.0,0.0,0.0,0.0,0.00123388712515,-0.0124425154105,-0.000470753424214,0.0,0.0,0.0,0.0,0.0,0.0,0.0,0.0,0.0,6.31804604169,0.000872749499922,7.2356691565,0.0,0.0,0.0,0.0,0.0,0.0,0.0,0.0,0.0
22648000000,302,22648000000,imu_link,1.22404664297e-05,-0.371381853363,-0.00110547823089,0.928479561843,0.0,0.0,0.0,0.0,0.0,0.0,0.0,0.0,0.0,0.00115089252496,-0.0125832245403,-0.000482339893357,0.0,0.0,0.0,0.0,0.0,0.0,0.0,0.0,0.0,6.32086461773,0.000938532929849,7.23371797097,0.0,0.0,0.0,0.0,0.0,0.0,0.0,0.0,0.0
22652000000,303,22652000000,imu_link,1.42695259064e-05,-0.371404949519,-0.00110560874498,0.928470323111,0.0,0.0,0.0,0.0,0.0,0.0,0.0,0.0,0.0,0.000930557536606,-0.0124365825661,-0.000442333023318,0.0,0.0,0.0,0.0,0.0,0.0,0.0,0.0,0.0,6.32304618417,0.000954608027191,7.22983493218,0.0,0.0,0.0,0.0,0.0,0.0,0.0,0.0,0.0
22656000000,304,22656000000,imu_link,1.57380786481e-05,-0.371427424404,-0.00110584272115,0.928461332132,0.0,0.0,0.0,0.0,0.0,0.0,0.0,0.0,0.0,0.000650792229751,-0.0121024687862,-0.00038614374104,0.0,0.0,0.0,0.0,0.0,0.0,0.0,0.0,0.0,6.32324822186,0.000941233365244,7.22303324852,0.0,0.0,0.0,0.0,0.0,0.0,0.0,0.0,0.0
22660000000,305,22660000000,imu_link,1.67784788431e-05,-0.371449195452,-0.00110615742914,0.928452622018,0.0,0.0,0.0,0.0,0.0,0.0,0.0,0.0,0.0,0.000436646303287,-0.011723802913,-0.000343958375457,0.0,0.0,0.0,0.0,0.0,0.0,0.0,0.0,0.0,6.32342807543,0.000882951965974,7.21845276554,0.0,0.0,0.0,0.0,0.0,0.0,0.0,0.0,0.0
22664000000,306,22664000000,imu_link,1.77885714109e-05,-0.371470311338,-0.00110649033272,0.92844417342,0.0,0.0,0.0,0.0,0.0,0.0,0.0,0.0,0.0,0.000418832788286,-0.0113711063982,-0.000346637228283,0.0,0.0,0.0,0.0,0.0,0.0,0.0,0.0,0.0,6.32471292361,0.00079406587025,7.2169721577,0.0,0.0,0.0,0.0,0.0,0.0,0.0,0.0,0.0
22668000000,307,22668000000,imu_link,1.92653913481e-05,-0.37149078923,-0.00110678932216,0.928435979572,0.0,0.0,0.0,0.0,0.0,0.0,0.0,0.0,0.0,0.000641441755763,-0.0110273612772,-0.000417445955091,0.0,0.0,0.0,0.0,0.0,0.0,0.0,0.0,0.0,6.32630568365,0.000747102386239,7.21601411094,0.0,0.0,0.0,0.0,0.0,0.0,0.0,0.0,0.0
22672000000,308,22672000000,imu_link,2.1742787245e-05,-0.371510682688,-0.00110702631746,0.92842801911,0.0,0.0,0.0,0.0,0.0,0.0,0.0,0.0,0.0,0.00111711657307,-0.0107121512473,-0.000574396006408,0.0,0.0,0.0,0.0,0.0,0.0,0.0,0.0,0.0,6.32854302197,0.000757175096519,7.21678195748,0.0,0.0,0.0,0.0,0.0,0.0,0.0,0.0,0.0
22676000000,309,22676000000,imu_link,2.53457885439e-05,-0.371530240235,-0.00110721657747,0.928420192596,0.0,0.0,0.0,0.0,0.0,0.0,0.0,0.0,0.0,0.00164813231049,-0.0105307118353,-0.000761717561357,0.0,0.0,0.0,0.0,0.0,0.0,0.0,0.0,0.0,6.32990679511,0.000898922854021,7.21715407607,0.0,0.0,0.0,0.0,0.0,0.0,0.0,0.0,0.0
22680000000,310,22680000000,imu_link,2.97652369949e-05,-0.371549804584,-0.00110740733962,0.928412362841,0.0,0.0,0.0,0.0,0.0,0.0,0.0,0.0,0.0,0.00202704584929,-0.0105340197168,-0.000913619769393,0.0,0.0,0.0,0.0,0.0,0.0,0.0,0.0,0.0,6.33117490487,0.00118972617827,7.21825783238,0.0,0.0,0.0,0.0,0.0,0.0,0.0,0.0,0.0
22684000000,311,22684000000,imu_link,3.44342818995e-05,-0.37156964812,-0.00110768990808,0.928404420731,0.0,0.0,0.0,0.0,0.0,0.0,0.0,0.0,0.0,0.00212601101699,-0.0106843557806,-0.00100266363791,0.0,0.0,0.0,0.0,0.0,0.0,0.0,0.0,0.0,6.33350189762,0.00151271325277,7.2207987945,0.0,0.0,0.0,0.0,0.0,0.0,0.0,0.0,0.0
22688000000,312,22688000000,imu_link,3.89347930759e-05,-0.371589801934,-0.00110810655508,0.928396353764,0.0,0.0,0.0,0.0,0.0,0.0,0.0,0.0,0.0,0.00202304152492,-0.0108516793595,-0.0010336559931,0.0,0.0,0.0,0.0,0.0,0.0,0.0,0.0,0.0,6.33463343275,0.00165406738853,7.21901156811,0.0,0.0,0.0,0.0,0.0,0.0,0.0,0.0,0.0
22692000000,313,22692000000,imu_link,4.31431632431e-05,-0.371610272404,-0.00110863927445,0.928388159393,0.0,0.0,0.0,0.0,0.0,0.0,0.0,0.0,0.0,0.00186604247212,-0.0110225060592,-0.00103332268854,0.0,0.0,0.0,0.0,0.0,0.0,0.0,0.0,0.0,6.33614981702,0.00163230201491,7.2179657562,0.0,0.0,0.0,0.0,0.0,0.0,0.0,0.0,0.0
22696000000,314,22696000000,imu_link,4.72278499331e-05,-0.371631201526,-0.00110922860548,0.928379780819,0.0,0.0,0.0,0.0,0.0,0.0,0.0,0.0,0.0,0.00179836880797,-0.0112697049708,-0.00103671267949,0.0,0.0,0.0,0.0,0.0,0.0,0.0,0.0,0.0,6.33778772056,0.00156056288617,7.21821169702,0.0,0.0,0.0,0.0,0.0,0.0,0.0,0.0,0.0
22700000000,315,22700000000,imu_link,5.14044590492e-05,-0.371652572356,-0.00110985855455,0.928371224798,0.0,0.0,0.0,0.0,0.0,0.0,0.0,0.0,0.0,0.00183373997345,-0.0115076641971,-0.00107273576362,0.0,0.0,0.0,0.0,0.0,0.0,0.0,0.0,0.0,6.33886352001,0.00152488100833,7.21613294772,0.0,0.0,0.0,0.0,0.0,0.0,0.0,0.0,0.0
22704000000,316,22704000000,imu_link,5.56544673396e-05,-0.371674325813,-0.00111052394478,0.928362514953,0.0,0.0,0.0,0.0,0.0,0.0,0.0,0.0,0.0,0.001861441199,-0.0117138184132,-0.00110290206324,0.0,0.0,0.0,0.0,0.0,0.0,0.0,0.0,0.0,6.34031643405,0.00157863961508,7.21433186377,0.0,0.0,0.0,0.0,0.0,0.0,0.0,0.0,0.0
22708000000,317,22708000000,imu_link,5.97462871536e-05,-0.371696446684,-0.00111122035358,0.928353657364,0.0,0.0,0.0,0.0,0.0,0.0,0.0,0.0,0.0,0.00178245679241,-0.0119119104193,-0.00108797481779,0.0,0.0,0.0,0.0,0.0,0.0,0.0,0.0,0.0,6.34122567878,0.00166354232654,7.21188207698,0.0,0.0,0.0,0.0,0.0,0.0,0.0,0.0,0.0
22712000000,318,22712000000,imu_link,6.34748632663e-05,-0.371718986684,-0.00111190763024,0.928344631358,0.0,0.0,0.0,0.0,0.0,0.0,0.0,0.0,0.0,0.00161578257792,-0.0121379616342,-0.00101630874763,0.0,0.0,0.0,0.0,0.0,0.0,0.0,0.0,0.0,6.34408629567,0.0016966721491,7.21378547603,0.0,0.0,0.0,0.0,0.0,0.0,0.0,0.0,0.0
22716000000,319,22716000000,imu_link,6.67869214907e-05,-0.371741996024,-0.0011125600464,0.92833541683,0.0,0.0,0.0,0.0,0.0,0.0,0.0,0.0,0.0,0.0014291925752,-0.0123910854377,-0.000922803577475,0.0,0.0,0.0,0.0,0.0,0.0,0.0,0.0,0.0,6.34568952112,0.00168255112839,7.2128916974,0.0,0.0,0.0,0.0,0.0,0.0,0.0,0.0,0.0
22720000000,320,22720000000,imu_link,6.9825092673e-05,-0.371765391804,-0.00111314335237,0.928326046975,0.0,0.0,0.0,0.0,0.0,0.0,0.0,0.0,0.0,0.00131512878939,-0.0125994794863,-0.000839890704683,0.0,0.0,0.0,0.0,0.0,0.0,0.0,0.0,0.0,6.34763865642,0.00162611059328,7.21139361243,0.0,0.0,0.0,0.0,0.0,0.0,0.0,0.0,0.0
22728000000,321,22728000000,imu_link,7.57501361718e-05,-0.371813041291,-0.00111408977188,0.928306961835,0.0,0.0,0.0,0.0,0.0,0.0,0.0,0.0,0.0,0.00130385760179,-0.0129015272772,-0.000758332160988,0.0,0.0,0.0,0.0,0.0,0.0,0.0,0.0,0.0,6.34951110959,0.001671479523,7.20697826933,0.0,0.0,0.0,0.0,0.0,0.0,0.0,0.0,0.0
22732000000,322,22732000000,imu_link,7.86855842628e-05,-0.371837357419,-0.00111445711784,0.928297221488,0.0,0.0,0.0,0.0,0.0,0.0,0.0,0.0,0.0,0.00130812053204,-0.0130955886413,-0.00072072868338,0.0,0.0,0.0,0.0,0.0,0.0,0.0,0.0,0.0,6.35167610412,0.00176441863297,7.20590242501,0.0,0.0,0.0,0.0,0.0,0.0,0.0,0.0,0.0
22736000000,323,22736000000,imu_link,8.17667119514e-05,-0.371862106399,-0.00111474140528,0.928287307083,0.0,0.0,0.0,0.0,0.0,0.0,0.0,0.0,0.0,0.00139142769005,-0.0133287717914,-0.000709341704911,0.0,0.0,0.0,0.0,0.0,0.0,0.0,0.0,0.0,6.35279929563,0.00176843677197,7.2047443143,0.0,0.0,0.0,0.0,0.0,0.0,0.0,0.0,0.0
22740000000,324,22740000000,imu_link,8.5374069394e-05,-0.371887245797,-0.001114911027,0.928277235581,0.0,0.0,0.0,0.0,0.0,0.0,0.0,0.0,0.0,0.00165721783919,-0.0135388935553,-0.000754034391946,0.0,0.0,0.0,0.0,0.0,0.0,0.0,0.0,0.0,6.3542816847,0.00170841741261,7.20356228069,0.0,0.0,0.0,0.0,0.0,0.0,0.0,0.0,0.0
22744000000,325,22744000000,imu_link,8.98141286112e-05,-0.37191249584,-0.00111494078099,0.928267119033,0.0,0.0,0.0,0.0,0.0,0.0,0.0,0.0,0.0,0.00206977800423,-0.0135981535292,-0.000843972350332,0.0,0.0,0.0,0.0,0.0,0.0,0.0,0.0,0.0,6.35596314575,0.00172271476359,7.20090045153,0.0,0.0,0.0,0.0,0.0,0.0,0.0,0.0,0.0
22748000000,326,22748000000,imu_link,9.50653775883e-05,-0.371937500474,-0.00111483954081,0.928257100073,0.0,0.0,0.0,0.0,0.0,0.0,0.0,0.0,0.0,0.00247049639016,-0.0134656462501,-0.000933975980382,0.0,0.0,0.0,0.0,0.0,0.0,0.0,0.0,0.0,6.35763554808,0.00185160535893,7.19741189665,0.0,0.0,0.0,0.0,0.0,0.0,0.0,0.0,0.0
22752000000,327,22752000000,imu_link,0.000100551570005,-0.371962022063,-0.00111469557283,0.928247273891,0.0,0.0,0.0,0.0,0.0,0.0,0.0,0.0,0.0,0.00258720796144,-0.0132054671772,-0.000957752427571,0.0,0.0,0.0,0.0,0.0,0.0,0.0,0.0,0.0,6.36054081006,0.00207752706744,7.19786366611,0.0,0.0,0.0,0.0,0.0,0.0,0.0,0.0,0.0
22756000000,328,22756000000,imu_link,0.000105554051758,-0.371986292643,-0.0011146154697,0.928237547493,0.0,0.0,0.0,0.0,0.0,0.0,0.0,0.0,0.0,0.00235068384367,-0.0130706832655,-0.000897389621464,0.0,0.0,0.0,0.0,0.0,0.0,0.0,0.0,0.0,6.36335005155,0.00224625202902,7.20166729089,0.0,0.0,0.0,0.0,0.0,0.0,0.0,0.0,0.0
22760000000,329,22760000000,imu_link,0.000109498414443,-0.372010811481,-0.00111468661337,0.92822772078,0.0,0.0,0.0,0.0,0.0,0.0,0.0,0.0,0.0,0.00183160370044,-0.013205159686,-0.000770826012034,0.0,0.0,0.0,0.0,0.0,0.0,0.0,0.0,0.0,6.36491824811,0.00229091934762,7.20507304475,0.0,0.0,0.0,0.0,0.0,0.0,0.0,0.0,0.0
22764000000,330,22764000000,imu_link,0.000112220741416,-0.372036234001,-0.00111491070262,0.928217531062,0.0,0.0,0.0,0.0,0.0,0.0,0.0,0.0,0.0,0.00123651482028,-0.0136927816868,-0.000614657767455,0.0,0.0,0.0,0.0,0.0,0.0,0.0,0.0,0.0,6.36644652844,0.00218755937143,7.20926554687,0.0,0.0,0.0,0.0,0.0,0.0,0.0,0.0,0.0
22768000000,331,22768000000,imu_link,0.000113849663328,-0.372063021429,-0.00111521932462,0.928206793451,0.0,0.0,0.0,0.0,0.0,0.0,0.0,0.0,0.0,0.000714122940859,-0.0144287794803,-0.000450725849486,0.0,0.0,0.0,0.0,0.0,0.0,0.0,0.0,0.0,6.36861863189,0.00200526131457,7.21298025126,0.0,0.0,0.0,0.0,0.0,0.0,0.0,0.0,0.0
22772000000,332,22772000000,imu_link,0.000114832165028,-0.372091284095,-0.00111550975777,0.928195463656,0.0,0.0,0.0,0.0,0.0,0.0,0.0,0.0,0.0,0.000418357140074,-0.0152239667889,-0.000322276044378,0.0,0.0,0.0,0.0,0.0,0.0,0.0,0.0,0.0,6.37031360808,0.00184133846273,7.21274131479,0.0,0.0,0.0,0.0,0.0,0.0,0.0,0.0,0.0
22776000000,333,22776000000,imu_link,0.00011571678124,-0.372120867264,-0.00111570322593,0.928183603584,0.0,0.0,0.0,0.0,0.0,0.0,0.0,0.0,0.0,0.00039173558595,-0.0159355138717,-0.000259283587757,0.0,0.0,0.0,0.0,0.0,0.0,0.0,0.0,0.0,6.37169300242,0.00176570392171,7.20982996417,0.0,0.0,0.0,0.0,0.0,0.0,0.0,0.0,0.0
22780000000,334,22780000000,imu_link,0.000116900991312,-0.372151564447,-0.00111575225362,0.928171295888,0.0,0.0,0.0,0.0,0.0,0.0,0.0,0.0,0.0,0.000558296648992,-0.0165356285148,-0.000248177768552,0.0,0.0,0.0,0.0,0.0,0.0,0.0,0.0,0.0,6.37338731313,0.00174222026386,7.20729526977,0.0,0.0,0.0,0.0,0.0,0.0,0.0,0.0,0.0
22784000000,335,22784000000,imu_link,0.000118598226659,-0.372183142622,-0.00111563723054,0.928158633875,0.0,0.0,0.0,0.0,0.0,0.0,0.0,0.0,0.0,0.000827422387006,-0.0170101184617,-0.000267651908727,0.0,0.0,0.0,0.0,0.0,0.0,0.0,0.0,0.0,6.37469519465,0.00174804396102,7.20414122503,0.0,0.0,0.0,0.0,0.0,0.0,0.0,0.0,0.0
22788000000,336,22788000000,imu_link,0.000120831596414,-0.372215416061,-0.00111533700896,0.928145691942,0.0,0.0,0.0,0.0,0.0,0.0,0.0,0.0,0.0,0.00111109958794,-0.017384556342,-0.00028159012367,0.0,0.0,0.0,0.0,0.0,0.0,0.0,0.0,0.0,6.37574321873,0.00183126140732,7.20097008438,0.0,0.0,0.0,0.0,0.0,0.0,0.0,0.0,0.0
22792000000,337,22792000000,imu_link,0.000123597412781,-0.372248114884,-0.00111486114832,0.928132578231,0.0,0.0,0.0,0.0,0.0,0.0,0.0,0.0,0.0,0.00139112898633,-0.0176136276166,-0.000299243321116,0.0,0.0,0.0,0.0,0.0,0.0,0.0,0.0,0.0,6.37656560765,0.00193514156592,7.1964318055,0.0,0.0,0.0,0.0,0.0,0.0,0.0,0.0,0.0
22796000000,338,22796000000,imu_link,0.000126832062838,-0.372280821439,-0.00111423117135,0.928119460194,0.0,0.0,0.0,0.0,0.0,0.0,0.0,0.0,0.0,0.00163738823093,-0.0176177499317,-0.000314986289707,0.0,0.0,0.0,0.0,0.0,0.0,0.0,0.0,0.0,6.37733755645,0.00205506431297,7.19084390012,0.0,0.0,0.0,0.0,0.0,0.0,0.0,0.0,0.0
22800000000,339,22800000000,imu_link,0.000130428033589,-0.372313048167,-0.00111348083422,0.928106533386,0.0,0.0,0.0,0.0,0.0,0.0,0.0,0.0,0.0,0.00182718705801,-0.0173592770828,-0.00032631226182,0.0,0.0,0.0,0.0,0.0,0.0,0.0,0.0,0.0,6.37849555213,0.00217069993034,7.18560944991,0.0,0.0,0.0,0.0,0.0,0.0,0.0,0.0,0.0
22804000000,340,22804000000,imu_link,0.000134161880405,-0.372344317135,-0.00111265962919,0.928093989575,0.0,0.0,0.0,0.0,0.0,0.0,0.0,0.0,0.0,0.00190380321762,-0.0168434466671,-0.000318941540071,0.0,0.0,0.0,0.0,0.0,0.0,0.0,0.0,0.0,6.37899448118,0.00226347027938,7.17893783183,0.0,0.0,0.0,0.0,0.0,0.0,0.0,0.0,0.0
22808000000,341,22808000000,imu_link,0.000137771807314,-0.372374189279,-0.00111181069157,0.928082005027,0.0,0.0,0.0,0.0,0.0,0.0,0.0,0.0,0.0,0.00185064698274,-0.0160912027759,-0.000282784444999,0.0,0.0,0.0,0.0,0.0,0.0,0.0,0.0,0.0,6.38055259028,0.0023238829819,7.17512097766,0.0,0.0,0.0,0.0,0.0,0.0,0.0,0.0,0.0
22816000000,342,22816000000,imu_link,0.000144913028407,-0.372428837788,-0.00111001845827,0.928060077604,0.0,0.0,0.0,0.0,0.0,0.0,0.0,0.0,0.0,0.00185733768647,-0.0142300516605,-0.000250256182564,0.0,0.0,0.0,0.0,0.0,0.0,0.0,0.0,0.0,6.38058882279,0.00232273891757,7.16688095521,0.0,0.0,0.0,0.0,0.0,0.0,0.0,0.0,0.0
22820000000,343,22820000000,imu_link,0.00014851273405,-0.372453407223,-0.00110907212789,0.928050218119,0.0,0.0,0.0,0.0,0.0,0.0,0.0,0.0,0.0,0.00186094255911,-0.0132348676063,-0.000234883259051,0.0,0.0,0.0,0.0,0.0,0.0,0.0,0.0,0.0,6.37961492134,0.00244059298974,7.1595279341,0.0,0.0,0.0,0.0,0.0,0.0,0.0,0.0,0.0
22824000000,344,22824000000,imu_link,0.00015178512012,-0.37247613238,-0.00110813266931,0.928041098126,0.0,0.0,0.0,0.0,0.0,0.0,0.0,0.0,0.0,0.0017067007139,-0.012241545227,-0.000176843180324,0.0,0.0,0.0,0.0,0.0,0.0,0.0,0.0,0.0,6.38074414609,0.00255103996661,7.15848921908,0.0,0.0,0.0,0.0,0.0,0.0,0.0,0.0,0.0
22828000000,345,22828000000,imu_link,0.00015443875762,-0.372497214201,-0.00110725338457,0.928032637115,0.0,0.0,0.0,0.0,0.0,0.0,0.0,0.0,0.0,0.00140742147628,-0.0113566236909,-8.92901331664e-05,0.0,0.0,0.0,0.0,0.0,0.0,0.0,0.0,0.0,6.38102394599,0.00256028031233,7.15778245625,0.0,0.0,0.0,0.0,0.0,0.0,0.0,0.0,0.0
22832000000,346,22832000000,imu_link,0.000156452766942,-0.37251718558,-0.0011064496854,0.9280246213,0.0,0.0,0.0,0.0,0.0,0.0,0.0,0.0,0.0,0.00109589670723,-0.0107588032151,-5.07249257929e-06,0.0,0.0,0.0,0.0,0.0,0.0,0.0,0.0,0.0,6.38236711729,0.00243051733704,7.16179054936,0.0,0.0,0.0,0.0,0.0,0.0,0.0,0.0,0.0
22836000000,347,22836000000,imu_link,0.000158054959549,-0.372536488426,-0.00110572815506,0.928016873325,0.0,0.0,0.0,0.0,0.0,0.0,0.0,0.0,0.0,0.000889113228052,-0.01039894198,3.36004354756e-05,0.0,0.0,0.0,0.0,0.0,0.0,0.0,0.0,0.0,6.38284953586,0.00228842846688,7.16317288354,0.0,0.0,0.0,0.0,0.0,0.0,0.0,0.0,0.0
22840000000,348,22840000000,imu_link,0.000159476613741,-0.37255513265,-0.00110506994276,0.928009389243,0.0,0.0,0.0,0.0,0.0,0.0,0.0,0.0,0.0,0.000793162759235,-0.0100442861319,3.79427580666e-05,0.0,0.0,0.0,0.0,0.0,0.0,0.0,0.0,0.0,6.38222832521,0.00220671130224,7.15851405159,0.0,0.0,0.0,0.0,0.0,0.0,0.0,0.0,0.0
22844000000,349,22844000000,imu_link,0.000160822415696,-0.372573027073,-0.00110449268491,0.928002205671,0.0,0.0,0.0,0.0,0.0,0.0,0.0,0.0,0.0,0.000742448713529,-0.00964044507835,1.46153362546e-05,0.0,0.0,0.0,0.0,0.0,0.0,0.0,0.0,0.0,6.38198416804,0.00219305134474,7.15365585778,0.0,0.0,0.0,0.0,0.0,0.0,0.0,0.0,0.0
22848000000,350,22848000000,imu_link,0.000162068718922,-0.372590184467,-0.00110402851753,0.927995317495,0.0,0.0,0.0,0.0,0.0,0.0,0.0,0.0,0.0,0.000674783188463,-0.0092434985193,-1.92196318641e-05,0.0,0.0,0.0,0.0,0.0,0.0,0.0,0.0,0.0,6.38279197175,0.00221179121215,7.15147059922,0.0,0.0,0.0,0.0,0.0,0.0,0.0,0.0,0.0
22852000000,351,22852000000,imu_link,0.000163088702875,-0.372606948495,-0.0011037468632,0.927988586718,0.0,0.0,0.0,0.0,0.0,0.0,0.0,0.0,0.0,0.000535540391893,-0.00903179450771,-6.16880785415e-05,0.0,0.0,0.0,0.0,0.0,0.0,0.0,0.0,0.0,6.38493872962,0.00225117788092,7.1547010262,0.0,0.0,0.0,0.0,0.0,0.0,0.0,0.0,0.0
22856000000,352,22856000000,imu_link,0.000163788227458,-0.37262406311,-0.00110366986791,0.927981714625,0.0,0.0,0.0,0.0,0.0,0.0,0.0,0.0,0.0,0.000348925387859,-0.00922098627579,-9.69954064902e-05,0.0,0.0,0.0,0.0,0.0,0.0,0.0,0.0,0.0,6.38692668231,0.00225861824123,7.16070057851,0.0,0.0,0.0,0.0,0.0,0.0,0.0,0.0,0.0
22860000000,353,22860000000,imu_link,0.000163965599187,-0.372642277685,-0.00110384000764,0.927974400258,0.0,0.0,0.0,0.0,0.0,0.0,0.0,0.0,0.0,6.12502238382e-05,-0.00981406661807,-0.000114534422579,0.0,0.0,0.0,0.0,0.0,0.0,0.0,0.0,0.0,6.38795351715,0.00229131246626,7.16467529468,0.0,0.0,0.0,0.0,0.0,0.0,0.0,0.0,0.0
22864000000,354,22864000000,imu_link,0.000163428526087,-0.372661939958,-0.0011042597923,0.927966503926,0.0,0.0,0.0,0.0,0.0,0.0,0.0,0.0,0.0,-0.00031591043453,-0.0105946276167,-9.74528141486e-05,0.0,0.0,0.0,0.0,0.0,0.0,0.0,0.0,0.0,6.38964106599,0.00233203816232,7.16682114756,0.0,0.0,0.0,0.0,0.0,0.0,0.0,0.0,0.0
22868000000,355,22868000000,imu_link,0.000162080748693,-0.372682970055,-0.00110491326855,0.927958057634,0.0,0.0,0.0,0.0,0.0,0.0,0.0,0.0,0.0,-0.00073480747379,-0.0113322161299,-5.50143564856e-05,0.0,0.0,0.0,0.0,0.0,0.0,0.0,0.0,0.0,6.39047882201,0.00236708871885,7.16361143716,0.0,0.0,0.0,0.0,0.0,0.0,0.0,0.0,0.0
22872000000,356,22872000000,imu_link,0.000159926190918,-0.372704927007,-0.00110576820588,0.92794923842,0.0,0.0,0.0,0.0,0.0,0.0,0.0,0.0,0.0,-0.00114613494089,-0.0118322100009,1.71766765124e-06,0.0,0.0,0.0,0.0,0.0,0.0,0.0,0.0,0.0,6.39225796701,0.00231603451802,7.15935535233,0.0,0.0,0.0,0.0,0.0,0.0,0.0,0.0,0.0
22876000000,357,22876000000,imu_link,0.000157122051086,-0.372727207473,-0.00110675508592,0.927940288604,0.0,0.0,0.0,0.0,0.0,0.0,0.0,0.0,0.0,-0.00147192306644,-0.0120070205243,6.15044811739e-05,0.0,0.0,0.0,0.0,0.0,0.0,0.0,0.0,0.0,6.39449870201,0.00219150079975,7.15484160347,0.0,0.0,0.0,0.0,0.0,0.0,0.0,0.0,0.0
22880000000,358,22880000000,imu_link,0.000153864829482,-0.372749331227,-0.00110781694029,0.927931401094,0.0,0.0,0.0,0.0,0.0,0.0,0.0,0.0,0.0,-0.00169620358538,-0.0119229557132,0.000111178744316,0.0,0.0,0.0,0.0,0.0,0.0,0.0,0.0,0.0,6.39559501631,0.00210973432689,7.14938753315,0.0,0.0,0.0,0.0,0.0,0.0,0.0,0.0,0.0
22884000000,359,22884000000,imu_link,0.000150225518152,-0.37277125552,-0.00110892528967,0.927922593094,0.0,0.0,0.0,0.0,0.0,0.0,0.0,0.0,0.0,-0.00188226220392,-0.0118158089702,0.000160847200523,0.0,0.0,0.0,0.0,0.0,0.0,0.0,0.0,0.0,6.39592694358,0.00211646131542,7.14610210912,0.0,0.0,0.0,0.0,0.0,0.0,0.0,0.0,0.0
22888000000,360,22888000000,imu_link,0.000146184281526,-0.372793200348,-0.00111004844213,0.927913776273,0.0,0.0,0.0,0.0,0.0,0.0,0.0,0.0,0.0,-0.00207148701803,-0.0118272044618,0.000228888893633,0.0,0.0,0.0,0.0,0.0,0.0,0.0,0.0,0.0,6.39690616609,0.00214205094296,7.14662478392,0.0,0.0,0.0,0.0,0.0,0.0,0.0,0.0,0.0
22892000000,361,22892000000,imu_link,0.000141578866277,-0.372815562509,-0.00111121814006,0.927904791183,0.0,0.0,0.0,0.0,0.0,0.0,0.0,0.0,0.0,-0.00234167356556,-0.0120525107454,0.000312391887095,0.0,0.0,0.0,0.0,0.0,0.0,0.0,0.0,0.0,6.39914390175,0.00219741011127,7.1508681853,0.0,0.0,0.0,0.0,0.0,0.0,0.0,0.0,0.0
22896000000,362,22896000000,imu_link,0.000136477475207,-0.372838447136,-0.00111244859281,0.927895595511,0.0,0.0,0.0,0.0,0.0,0.0,0.0,0.0,0.0,-0.00258280271304,-0.0123344439332,0.000376578279804,0.0,0.0,0.0,0.0,0.0,0.0,0.0,0.0,0.0,6.39971113143,0.00217567520448,7.14920427012,0.0,0.0,0.0,0.0,0.0,0.0,0.0,0.0,0.0
22900000000,363,22900000000,imu_link,0.000131059388791,-0.372861658577,-0.0011137274767,0.927886267814,0.0,0.0,0.0,0.0,0.0,0.0,0.0,0.0,0.0,-0.00273857052563,-0.0125108595895,0.000413095728538,0.0,0.0,0.0,0.0,0.0,0.0,0.0,0.0,0.0,6.39982640105,0.00213723149375,7.14392594501,0.0,0.0,0.0,0.0,0.0,0.0,0.0,0.0,0.0
22904000000,364,22904000000,imu_link,0.000125704508403,-0.372884812155,-0.00111501293121,0.927876962646,0.0,0.0,0.0,0.0,0.0,0.0,0.0,0.0,0.0,-0.00271050518696,-0.0124797800301,0.000398272534094,0.0,0.0,0.0,0.0,0.0,0.0,0.0,0.0,0.0,6.40229891679,0.00207897693443,7.14183546938,0.0,0.0,0.0,0.0,0.0,0.0,0.0,0.0,0.0
22908000000,365,22908000000,imu_link,0.00012080837587,-0.372907660388,-0.00111625913018,0.927867779479,0.0,0.0,0.0,0.0,0.0,0.0,0.0,0.0,0.0,-0.00249053340725,-0.0123151142337,0.00033100345856,0.0,0.0,0.0,0.0,0.0,0.0,0.0,0.0,0.0,6.40391930887,0.00214604965358,7.13930410968,0.0,0.0,0.0,0.0,0.0,0.0,0.0,0.0,0.0
22912000000,366,22912000000,imu_link,0.000116633389677,-0.372930409096,-0.00111743923059,0.927858635622,0.0,0.0,0.0,0.0,0.0,0.0,0.0,0.0,0.0,-0.00214370277239,-0.0122612052282,0.000227224253983,0.0,0.0,0.0,0.0,0.0,0.0,0.0,0.0,0.0,6.40518514169,0.00235604598861,7.13996150694,0.0,0.0,0.0,0.0,0.0,0.0,0.0,0.0,0.0
22916000000,367,22916000000,imu_link,0.000113273041975,-0.372953394918,-0.00111857106644,0.927849395747,0.0,0.0,0.0,0.0,0.0,0.0,0.0,0.0,0.0,-0.00175663035173,-0.0123886552886,9.76740471981e-05,0.0,0.0,0.0,0.0,0.0,0.0,0.0,0.0,0.0,6.40623923106,0.0025864454754,7.14130554219,0.0,0.0,0.0,0.0,0.0,0.0,0.0,0.0,0.0
22920000000,368,22920000000,imu_link,0.000110671524834,-0.372976613736,-0.00111966404898,0.927840061492,0.0,0.0,0.0,0.0,0.0,0.0,0.0,0.0,0.0,-0.00139720922057,-0.0125139211567,-2.58447535376e-05,0.0,0.0,0.0,0.0,0.0,0.0,0.0,0.0,0.0,6.40651107395,0.00279894700373,7.13828393422,0.0,0.0,0.0,0.0,0.0,0.0,0.0,0.0,0.0
22924000000,369,22924000000,imu_link,0.000108780181589,-0.37299959048,-0.00112072305402,0.927830823829,0.0,0.0,0.0,0.0,0.0,0.0,0.0,0.0,0.0,-0.00106154978348,-0.0123832054754,-0.000142480355179,0.0,0.0,0.0,0.0,0.0,0.0,0.0,0.0,0.0,6.40805962615,0.00296740981737,7.13385354798,0.0,0.0,0.0,0.0,0.0,0.0,0.0,0.0,0.0
22928000000,370,22928000000,imu_link,0.000107463182971,-0.373021797862,-0.00112177937771,0.927821894753,0.0,0.0,0.0,0.0,0.0,0.0,0.0,0.0,0.0,-0.000795050291329,-0.0119684132255,-0.000248220513093,0.0,0.0,0.0,0.0,0.0,0.0,0.0,0.0,0.0,6.40982510229,0.00314398002708,7.12947899416,0.0,0.0,0.0,0.0,0.0,0.0,0.0,0.0,0.0
22932000000,371,22932000000,imu_link,0.000106768395326,-0.373042809097,-0.00112285703717,0.92781344589,0.0,0.0,0.0,0.0,0.0,0.0,0.0,0.0,0.0,-0.000511075873939,-0.0113235945193,-0.000373962466867,0.0,0.0,0.0,0.0,0.0,0.0,0.0,0.0,0.0,6.41141980317,0.00327228323337,7.12591165298,0.0,0.0,0.0,0.0,0.0,0.0,0.0,0.0,0.0
22936000000,372,22936000000,imu_link,0.000106757448808,-0.373062363759,-0.00112397500237,0.927805582021,0.0,0.0,0.0,0.0,0.0,0.0,0.0,0.0,0.0,-0.000202204252481,-0.0105383844098,-0.000519960904845,0.0,0.0,0.0,0.0,0.0,0.0,0.0,0.0,0.0,6.41168785231,0.00339665250635,7.12141511634,0.0,0.0,0.0,0.0,0.0,0.0,0.0,0.0,0.0
22940000000,373,22940000000,imu_link,0.000107389061097,-0.373080490844,-0.00112512795513,0.927798291606,0.0,0.0,0.0,0.0,0.0,0.0,0.0,0.0,0.0,8.8521412495e-05,-0.0097688020107,-0.000655802909497,0.0,0.0,0.0,0.0,0.0,0.0,0.0,0.0,0.0,6.41246711666,0.00353493679952,7.12002972059,0.0,0.0,0.0,0.0,0.0,0.0,0.0,0.0,0.0
22944000000,374,22944000000,imu_link,0.000108625929307,-0.373097408542,-0.00112628592267,0.927791487038,0.0,0.0,0.0,0.0,0.0,0.0,0.0,0.0,0.0,0.000367657211268,-0.0091167979215,-0.000770825472412,0.0,0.0,0.0,0.0,0.0,0.0,0.0,0.0,0.0,6.41273762526,0.00367212239849,7.11914440949,0.0,0.0,0.0,0.0,0.0,0.0,0.0,0.0,0.0
22948000000,375,22948000000,imu_link,0.000110457826882,-0.373113160807,-0.00112744397658,0.927785150723,0.0,0.0,0.0,0.0,0.0,0.0,0.0,0.0,0.0,0.000642990953089,-0.00848847119359,-0.000881667096508,0.0,0.0,0.0,0.0,0.0,0.0,0.0,0.0,0.0,6.41334797274,0.00379750187186,7.11731187781,0.0,0.0,0.0,0.0,0.0,0.0,0.0,0.0,0.0
22952000000,376,22952000000,imu_link,0.000112915833926,-0.373127759069,-0.00112859364305,0.927779278136,0.0,0.0,0.0,0.0,0.0,0.0,0.0,0.0,0.0,0.000934327070039,-0.00786627259381,-0.000994383388464,0.0,0.0,0.0,0.0,0.0,0.0,0.0,0.0,0.0,6.41370845039,0.00397352547573,7.11473086876,0.0,0.0,0.0,0.0,0.0,0.0,0.0,0.0,0.0
22956000000,377,22956000000,imu_link,0.000115931876646,-0.373141350463,-0.00112976006926,0.927773810137,0.0,0.0,0.0,0.0,0.0,0.0,0.0,0.0,0.0,0.00118947626328,-0.00732340188727,-0.00110609589458,0.0,0.0,0.0,0.0,0.0,0.0,0.0,0.0,0.0,6.41460035482,0.00420820109018,7.11439341784,0.0,0.0,0.0,0.0,0.0,0.0,0.0,0.0,0.0
22960000000,378,22960000000,imu_link,0.000119202569677,-0.373154349869,-0.00113096579297,0.927768579917,0.0,0.0,0.0,0.0,0.0,0.0,0.0,0.0,0.0,0.00129992525934,-0.00700428223546,-0.00117173577406,0.0,0.0,0.0,0.0,0.0,0.0,0.0,0.0,0.0,6.41675828899,0.00445993415175,7.11892101607,0.0,0.0,0.0,0.0,0.0,0.0,0.0,0.0,0.0
22964000000,379,22964000000,imu_link,0.000122409044588,-0.373167449778,-0.00113219771911,0.927763309024,0.0,0.0,0.0,0.0,0.0,0.0,0.0,0.0,0.0,0.00126530596624,-0.00705853084247,-0.00117192603965,0.0,0.0,0.0,0.0,0.0,0.0,0.0,0.0,0.0,6.42008000721,0.00458324216344,7.12820685141,0.0,0.0,0.0,0.0,0.0,0.0,0.0,0.0,0.0
22968000000,380,22968000000,imu_link,0.000125229689976,-0.373181249927,-0.00113347415443,0.927757756237,0.0,0.0,0.0,0.0,0.0,0.0,0.0,0.0,0.0,0.00107843569704,-0.00743617684945,-0.00112070024649,0.0,0.0,0.0,0.0,0.0,0.0,0.0,0.0,0.0,6.42379162972,0.00459954586035,7.13724748287,0.0,0.0,0.0,0.0,0.0,0.0,0.0,0.0,0.0
22972000000,381,22972000000,imu_link,0.00012733072292,-0.37319608723,-0.00113484609581,0.927751785979,0.0,0.0,0.0,0.0,0.0,0.0,0.0,0.0,0.0,0.000727416081632,-0.00799560069845,-0.00103090221057,0.0,0.0,0.0,0.0,0.0,0.0,0.0,0.0,0.0,6.42587503919,0.00460709133544,7.14064846636,0.0,0.0,0.0,0.0,0.0,0.0,0.0,0.0,0.0
