%time,field.header.seq,field.header.stamp,field.header.frame_id,field.orientation.x,field.orientation.y,field.orientation.z,field.orientation.w,field.orientation_covariance0,field.orientation_covariance1,field.orientation_covariance2,field.orientation_covariance3,field.orientation_covariance4,field.orientation_covariance5,field.orientation_covariance6,field.orientation_covariance7,field.orientation_covariance8,field.angular_velocity.x,field.angular_velocity.y,field.angular_velocity.z,field.angular_velocity_covariance0,field.angular_velocity_covariance1,field.angular_velocity_covariance2,field.angular_velocity_covariance3,field.angular_velocity_covariance4,field.angular_velocity_covariance5,field.angular_velocity_covariance6,field.angular_velocity_covariance7,field.angular_velocity_covariance8,field.linear_acceleration.x,field.linear_acceleration.y,field.linear_acceleration.z,field.linear_acceleration_covariance0,field.linear_acceleration_covariance1,field.linear_acceleration_covariance2,field.linear_acceleration_covariance3,field.linear_acceleration_covariance4,field.linear_acceleration_covariance5,field.linear_acceleration_covariance6,field.linear_acceleration_covariance7,field.linear_acceleration_covariance8
25412000000,0,25412000000,imu_link,0.000175554459153,-0.375024173235,-7.12214101103e-05,0.927015012607,0.0,0.0,0.0,0.0,0.0,0.0,0.0,0.0,0.0,0.000395033228909,-0.0113680457498,-0.000696586226373,0.0,0.0,0.0,0.0,0.0,0.0,0.0,0.0,0.0,6.54492854908,0.00691508411941,7.07338109574,0.0,0.0,0.0,0.0,0.0,0.0,0.0,0.0,0.0
25416000000,1,25416000000,imu_link,0.000176417823369,-0.375045754275,-7.22883956698e-05,0.927006281452,0.0,0.0,0.0,0.0,0.0,0.0,0.0,0.0,0.0,0.000201638018895,-0.0116402341633,-0.000654863640435,0.0,0.0,0.0,0.0,0.0,0.0,0.0,0.0,0.0,6.54696342126,0.00682567649189,7.07367015348,0.0,0.0,0.0,0.0,0.0,0.0,0.0,0.0,0.0
25420000000,2,25420000000,imu_link,0.000177204550934,-0.375067549346,-7.33876065563e-05,0.926997463125,0.0,0.0,0.0,0.0,0.0,0.0,0.0,0.0,0.0,0.00016008912981,-0.0117557903811,-0.00065541332683,0.0,0.0,0.0,0.0,0.0,0.0,0.0,0.0,0.0,6.54880918897,0.00677017033755,7.0721054611,0.0,0.0,0.0,0.0,0.0,0.0,0.0,0.0,0.0
25424000000,3,25424000000,imu_link,0.000178204278857,-0.375089292346,-7.45273218305e-05,0.926988665226,0.0,0.0,0.0,0.0,0.0,0.0,0.0,0.0,0.0,0.000251214863994,-0.011727820353,-0.000714135684273,0.0,0.0,0.0,0.0,0.0,0.0,0.0,0.0,0.0,6.5505694227,0.00671793351167,7.07113219919,0.0,0.0,0.0,0.0,0.0,0.0,0.0,0.0,0.0
25428000000,4,25428000000,imu_link,0.000179646050647,-0.375110785532,-7.57118543701e-05,0.92697996773,0.0,0.0,0.0,0.0,0.0,0.0,0.0,0.0,0.0,0.000447676197836,-0.0115931908141,-0.000817829710893,0.0,0.0,0.0,0.0,0.0,0.0,0.0,0.0,0.0,6.55178414179,0.00667323128112,7.06982115588,0.0,0.0,0.0,0.0,0.0,0.0,0.0,0.0,0.0
25432000000,5,25432000000,imu_link,0.000181535517947,-0.375131874823,-7.69425592544e-05,0.92697143301,0.0,0.0,0.0,0.0,0.0,0.0,0.0,0.0,0.0,0.000646488799785,-0.0113754466423,-0.000923227954673,0.0,0.0,0.0,0.0,0.0,0.0,0.0,0.0,0.0,6.55231164858,0.00670550388919,7.06761200528,0.0,0.0,0.0,0.0,0.0,0.0,0.0,0.0,0.0
25436000000,6,25436000000,imu_link,0.000183766254334,-0.375152531493,-7.82041691482e-05,0.926963072743,0.0,0.0,0.0,0.0,0.0,0.0,0.0,0.0,0.0,0.000798832941582,-0.01114220152,-0.00100159499785,0.0,0.0,0.0,0.0,0.0,0.0,0.0,0.0,0.0,6.55306856668,0.00677666025347,7.0668574493,0.0,0.0,0.0,0.0,0.0,0.0,0.0,0.0,0.0
25440000000,7,25440000000,imu_link,0.000186285336971,-0.375172684901,-7.94716465677e-05,0.926954915563,0.0,0.0,0.0,0.0,0.0,0.0,0.0,0.0,0.0,0.000931337157238,-0.0108708442372,-0.0010584397006,0.0,0.0,0.0,0.0,0.0,0.0,0.0,0.0,0.0,6.5531967132,0.00682189997406,7.06471101877,0.0,0.0,0.0,0.0,0.0,0.0,0.0,0.0,0.0
25444000000,8,25444000000,imu_link,0.000189316359307,-0.375192165937,-8.06980229383e-05,0.926947029914,0.0,0.0,0.0,0.0,0.0,0.0,0.0,0.0,0.0,0.00117626765474,-0.0105082548022,-0.00113547502385,0.0,0.0,0.0,0.0,0.0,0.0,0.0,0.0,0.0,6.55352715447,0.00680510677971,7.06170313142,0.0,0.0,0.0,0.0,0.0,0.0,0.0,0.0,0.0
25448000000,9,25448000000,imu_link,0.000193130474629,-0.37521074909,-8.17996690744e-05,0.926939507075,0.0,0.0,0.0,0.0,0.0,0.0,0.0,0.0,0.0,0.00156253884528,-0.0100240045355,-0.00122464139336,0.0,0.0,0.0,0.0,0.0,0.0,0.0,0.0,0.0,6.55556349558,0.00680980359007,7.06104278824,0.0,0.0,0.0,0.0,0.0,0.0,0.0,0.0,0.0
25452000000,10,25452000000,imu_link,0.000197796707235,-0.375228319245,-8.26634273579e-05,0.926932393694,0.0,0.0,0.0,0.0,0.0,0.0,0.0,0.0,0.0,0.00200201750154,-0.00947763666597,-0.00127433042456,0.0,0.0,0.0,0.0,0.0,0.0,0.0,0.0,0.0,6.55802804128,0.00687259742211,7.06255019139,0.0,0.0,0.0,0.0,0.0,0.0,0.0,0.0,0.0
25456000000,11,25456000000,imu_link,0.000203131946119,-0.375244886276,-8.32631539504e-05,0.926925685872,0.0,0.0,0.0,0.0,0.0,0.0,0.0,0.0,0.0,0.00236153381099,-0.00893657991017,-0.00127755815657,0.0,0.0,0.0,0.0,0.0,0.0,0.0,0.0,0.0,6.55829005511,0.00697774803972,7.06092884152,0.0,0.0,0.0,0.0,0.0,0.0,0.0,0.0,0.0
25460000000,12,25460000000,imu_link,0.000208460247293,-0.375260698158,-8.36851429429e-05,0.926919283411,0.0,0.0,0.0,0.0,0.0,0.0,0.0,0.0,0.0,0.00239160355043,-0.00852928595069,-0.00119394569777,0.0,0.0,0.0,0.0,0.0,0.0,0.0,0.0,0.0,6.55977715544,0.00720257911954,7.06395894524,0.0,0.0,0.0,0.0,0.0,0.0,0.0,0.0,0.0
25464000000,13,25464000000,imu_link,0.000213052415421,-0.375276156416,-8.40742095469e-05,0.926913023949,0.0,0.0,0.0,0.0,0.0,0.0,0.0,0.0,0.0,0.00205658313088,-0.00833859246341,-0.00104059747383,0.0,0.0,0.0,0.0,0.0,0.0,0.0,0.0,0.0,6.56148380407,0.00738668337086,7.06851559217,0.0,0.0,0.0,0.0,0.0,0.0,0.0,0.0,0.0
25468000000,14,25468000000,imu_link,0.000216744686466,-0.375291611246,-8.44691863916e-05,0.926906765762,0.0,0.0,0.0,0.0,0.0,0.0,0.0,0.0,0.0,0.00163841070104,-0.00833680255961,-0.000874481965577,0.0,0.0,0.0,0.0,0.0,0.0,0.0,0.0,0.0,6.56190059568,0.00728553032439,7.07026410084,0.0,0.0,0.0,0.0,0.0,0.0,0.0,0.0,0.0
25472000000,15,25472000000,imu_link,0.000219858567541,-0.37530741965,-8.47820540668e-05,0.926900364241,0.0,0.0,0.0,0.0,0.0,0.0,0.0,0.0,0.0,0.00138579182059,-0.00852757921932,-0.000727863477341,0.0,0.0,0.0,0.0,0.0,0.0,0.0,0.0,0.0,6.56202020692,0.00701292923131,7.07140914233,0.0,0.0,0.0,0.0,0.0,0.0,0.0,0.0,0.0
25476000000,16,25476000000,imu_link,0.000222831009374,-0.375323844048,-8.49415885609e-05,0.926893713012,0.0,0.0,0.0,0.0,0.0,0.0,0.0,0.0,0.0,0.00134906888154,-0.00885990952072,-0.000630202457867,0.0,0.0,0.0,0.0,0.0,0.0,0.0,0.0,0.0,6.56246810902,0.00679104601023,7.07237376273,0.0,0.0,0.0,0.0,0.0,0.0,0.0,0.0,0.0
25480000000,17,25480000000,imu_link,0.000225831350527,-0.375340826455,-8.49507266742e-05,0.926886835477,0.0,0.0,0.0,0.0,0.0,0.0,0.0,0.0,0.0,0.00139027132025,-0.00916096829582,-0.00056568480828,0.0,0.0,0.0,0.0,0.0,0.0,0.0,0.0,0.0,6.56236714983,0.00670391719516,7.06934803007,0.0,0.0,0.0,0.0,0.0,0.0,0.0,0.0,0.0
25484000000,18,25484000000,imu_link,0.000228715270571,-0.375358197177,-8.48489805719e-05,0.926879800353,0.0,0.0,0.0,0.0,0.0,0.0,0.0,0.0,0.0,0.00135716069849,-0.00937049728671,-0.000492410297729,0.0,0.0,0.0,0.0,0.0,0.0,0.0,0.0,0.0,6.56142165693,0.00670684569018,7.06378863015,0.0,0.0,0.0,0.0,0.0,0.0,0.0,0.0,0.0
25488000000,19,25488000000,imu_link,0.000231117962072,-0.375375804951,-8.46949800829e-05,0.926872668962,0.0,0.0,0.0,0.0,0.0,0.0,0.0,0.0,0.0,0.00114396831227,-0.00949843852854,-0.000377853966091,0.0,0.0,0.0,0.0,0.0,0.0,0.0,0.0,0.0,6.56266941991,0.00672635484507,7.06258009468,0.0,0.0,0.0,0.0,0.0,0.0,0.0,0.0,0.0
25492000000,20,25492000000,imu_link,0.000232889430576,-0.375393749755,-8.44969749887e-05,0.926865400836,0.0,0.0,0.0,0.0,0.0,0.0,0.0,0.0,0.0,0.000859725846011,-0.00968031554186,-0.000238954556501,0.0,0.0,0.0,0.0,0.0,0.0,0.0,0.0,0.0,6.56326048593,0.00664630262135,7.06218898413,0.0,0.0,0.0,0.0,0.0,0.0,0.0,0.0,0.0
25496000000,21,25496000000,imu_link,0.000234014529713,-0.375412290947,-8.42290464814e-05,0.926857890914,0.0,0.0,0.0,0.0,0.0,0.0,0.0,0.0,0.0,0.000573354902712,-0.0100021048727,-8.5169019252e-05,0.0,0.0,0.0,0.0,0.0,0.0,0.0,0.0,0.0,6.56369314837,0.00652813940431,7.06295481358,0.0,0.0,0.0,0.0,0.0,0.0,0.0,0.0,0.0
25500000000,22,25500000000,imu_link,0.000234763303312,-0.375431721639,-8.38210405971e-05,0.926850020363,0.0,0.0,0.0,0.0,0.0,0.0,0.0,0.0,0.0,0.000425327797471,-0.0104820166629,5.0474398183e-05,0.0,0.0,0.0,0.0,0.0,0.0,0.0,0.0,0.0,6.56381272039,0.0063486295199,7.0632977658,0.0,0.0,0.0,0.0,0.0,0.0,0.0,0.0,0.0
25504000000,23,25504000000,imu_link,0.000235589041215,-0.37545189705,-8.32240741843e-05,0.92684184766,0.0,0.0,0.0,0.0,0.0,0.0,0.0,0.0,0.0,0.000496532547593,-0.0108838313926,0.000123670765529,0.0,0.0,0.0,0.0,0.0,0.0,0.0,0.0,0.0,6.56502128083,0.00621775499156,7.06178195679,0.0,0.0,0.0,0.0,0.0,0.0,0.0,0.0,0.0
25508000000,24,25508000000,imu_link,0.000236988154055,-0.37547240613,-8.2419231904e-05,0.926833539142,0.0,0.0,0.0,0.0,0.0,0.0,0.0,0.0,0.0,0.000801300068328,-0.0110639083526,0.00011240109095,0.0,0.0,0.0,0.0,0.0,0.0,0.0,0.0,0.0,6.56630347855,0.00616763711852,7.05821049223,0.0,0.0,0.0,0.0,0.0,0.0,0.0,0.0,0.0
25512000000,25,25512000000,imu_link,0.000239196765947,-0.375492900009,-8.14098052835e-05,0.926825236061,0.0,0.0,0.0,0.0,0.0,0.0,0.0,0.0,0.0,0.00121484211994,-0.0110557851805,5.52350495248e-05,0.0,0.0,0.0,0.0,0.0,0.0,0.0,0.0,0.0,6.56762293489,0.00621663920866,7.05545573171,0.0,0.0,0.0,0.0,0.0,0.0,0.0,0.0,0.0
25516000000,26,25516000000,imu_link,0.000242240139985,-0.375513312038,-8.0195920833e-05,0.926816965409,0.0,0.0,0.0,0.0,0.0,0.0,0.0,0.0,0.0,0.00164006045381,-0.0110117086786,-6.74871089902e-06,0.0,0.0,0.0,0.0,0.0,0.0,0.0,0.0,0.0,6.56763572204,0.00628593912255,7.05289960694,0.0,0.0,0.0,0.0,0.0,0.0,0.0,0.0,0.0
25520000000,27,25520000000,imu_link,0.000246105378823,-0.375533652424,-7.87715788307e-05,0.926808723052,0.0,0.0,0.0,0.0,0.0,0.0,0.0,0.0,0.0,0.00206042807972,-0.0109731369992,-6.35390255358e-05,0.0,0.0,0.0,0.0,0.0,0.0,0.0,0.0,0.0,6.56671118171,0.00632156186489,7.04923335266,0.0,0.0,0.0,0.0,0.0,0.0,0.0,0.0,0.0
25524000000,28,25524000000,imu_link,0.00025078082037,-0.375553713249,-7.71326977587e-05,0.926800593237,0.0,0.0,0.0,0.0,0.0,0.0,0.0,0.0,0.0,0.00247613801038,-0.0108223977328,-0.000116279844475,0.0,0.0,0.0,0.0,0.0,0.0,0.0,0.0,0.0,6.56634517384,0.00636866092966,7.04476312026,0.0,0.0,0.0,0.0,0.0,0.0,0.0,0.0,0.0
25528000000,29,25528000000,imu_link,0.000255873597058,-0.375573156071,-7.53362883929e-05,0.926792713228,0.0,0.0,0.0,0.0,0.0,0.0,0.0,0.0,0.0,0.0026990562486,-0.0104890711823,-0.000121714924771,0.0,0.0,0.0,0.0,0.0,0.0,0.0,0.0,0.0,6.56716789538,0.00648453078373,7.04147125262,0.0,0.0,0.0,0.0,0.0,0.0,0.0,0.0,0.0
25532000000,30,25532000000,imu_link,0.000260908434214,-0.375591709113,-7.34816376746e-05,0.926785193328,0.0,0.0,0.0,0.0,0.0,0.0,0.0,0.0,0.0,0.00268306463684,-0.0100091211762,-8.39460986128e-05,0.0,0.0,0.0,0.0,0.0,0.0,0.0,0.0,0.0,6.56834694325,0.00657320789146,7.03962522881,0.0,0.0,0.0,0.0,0.0,0.0,0.0,0.0,0.0
25536000000,31,25536000000,imu_link,0.000265584565272,-0.375609397319,-7.16505786734e-05,0.926778023572,0.0,0.0,0.0,0.0,0.0,0.0,0.0,0.0,0.0,0.00251233500768,-0.00954262351942,-2.76147644582e-05,0.0,0.0,0.0,0.0,0.0,0.0,0.0,0.0,0.0,6.56972000065,0.00655020143551,7.04054270892,0.0,0.0,0.0,0.0,0.0,0.0,0.0,0.0,0.0
25540000000,32,25540000000,imu_link,0.000269811705155,-0.375626371625,-6.98858742256e-05,0.92677114287,0.0,0.0,0.0,0.0,0.0,0.0,0.0,0.0,0.0,0.00229175177438,-0.00915754952989,2.58754718645e-05,0.0,0.0,0.0,0.0,0.0,0.0,0.0,0.0,0.0,6.56985012625,0.00644467585204,7.03999547944,0.0,0.0,0.0,0.0,0.0,0.0,0.0,0.0,0.0
25544000000,33,25544000000,imu_link,0.000273503723452,-0.375642848717,-6.81994903006e-05,0.926764463471,0.0,0.0,0.0,0.0,0.0,0.0,0.0,0.0,0.0,0.00202902999429,-0.00888936930063,9.00257185584e-05,0.0,0.0,0.0,0.0,0.0,0.0,0.0,0.0,0.0,6.57079642352,0.00632824876901,7.04162577801,0.0,0.0,0.0,0.0,0.0,0.0,0.0,0.0,0.0
25548000000,34,25548000000,imu_link,0.000276449120458,-0.375659152767,-6.6629313318e-05,0.926757854069,0.0,0.0,0.0,0.0,0.0,0.0,0.0,0.0,0.0,0.00166121732745,-0.00879607929348,0.000176387683834,0.0,0.0,0.0,0.0,0.0,0.0,0.0,0.0,0.0,6.57152608857,0.00623916288439,7.0435614795,0.0,0.0,0.0,0.0,0.0,0.0,0.0,0.0,0.0
25552000000,35,25552000000,imu_link,0.000278466236726,-0.375675479967,-6.5203578554e-05,0.926751235206,0.0,0.0,0.0,0.0,0.0,0.0,0.0,0.0,0.0,0.00120394315334,-0.00880863414001,0.000283817665949,0.0,0.0,0.0,0.0,0.0,0.0,0.0,0.0,0.0,6.57264738781,0.00616339110983,7.04511849228,0.0,0.0,0.0,0.0,0.0,0.0,0.0,0.0,0.0
25556000000,36,25556000000,imu_link,0.00027950984017,-0.375691900457,-6.39141383969e-05,0.926744578468,0.0,0.0,0.0,0.0,0.0,0.0,0.0,0.0,0.0,0.00072724809139,-0.008859027871,0.000403536271275,0.0,0.0,0.0,0.0,0.0,0.0,0.0,0.0,0.0,6.57276328092,0.00606542519688,7.04362417121,0.0,0.0,0.0,0.0,0.0,0.0,0.0,0.0,0.0
25560000000,37,25560000000,imu_link,0.000279634990591,-0.375708479746,-6.27062321659e-05,0.926737857282,0.0,0.0,0.0,0.0,0.0,0.0,0.0,0.0,0.0,0.000286360674834,-0.0089447578585,0.000538303523677,0.0,0.0,0.0,0.0,0.0,0.0,0.0,0.0,0.0,6.57310348925,0.00587934273043,7.0425914198,0.0,0.0,0.0,0.0,0.0,0.0,0.0,0.0,0.0
25564000000,38,25564000000,imu_link,0.000278953178495,-0.375725264363,-6.15340231003e-05,0.926731052743,0.0,0.0,0.0,0.0,0.0,0.0,0.0,0.0,0.0,-9.42484537547e-05,-0.009055588757,0.000673379991542,0.0,0.0,0.0,0.0,0.0,0.0,0.0,0.0,0.0,6.57378160671,0.00563911610249,7.04228074698,0.0,0.0,0.0,0.0,0.0,0.0,0.0,0.0,0.0
25568000000,39,25568000000,imu_link,0.000277746349713,-0.375742518205,-6.03459087801e-05,0.926724057758,0.0,0.0,0.0,0.0,0.0,0.0,0.0,0.0,0.0,-0.000334494084522,-0.0093088036102,0.000779440541399,0.0,0.0,0.0,0.0,0.0,0.0,0.0,0.0,0.0,6.57498723021,0.00541657736091,7.04501705703,0.0,0.0,0.0,0.0,0.0,0.0,0.0,0.0,0.0
25572000000,40,25572000000,imu_link,0.000276394238423,-0.375760414567,-5.91074732973e-05,0.926716801918,0.0,0.0,0.0,0.0,0.0,0.0,0.0,0.0,0.0,-0.000392302969485,-0.00965552727168,0.000830133223067,0.0,0.0,0.0,0.0,0.0,0.0,0.0,0.0,0.0,6.57649056032,0.00524299691917,7.04741765266,0.0,0.0,0.0,0.0,0.0,0.0,0.0,0.0,0.0
25576000000,41,25576000000,imu_link,0.000275325782159,-0.375778836559,-5.78155043775e-05,0.926709332449,0.0,0.0,0.0,0.0,0.0,0.0,0.0,0.0,0.0,-0.000250766099704,-0.00993920311237,0.000801711552719,0.0,0.0,0.0,0.0,0.0,0.0,0.0,0.0,0.0,6.57788659627,0.00513101265455,7.04707904298,0.0,0.0,0.0,0.0,0.0,0.0,0.0,0.0,0.0
25580000000,42,25580000000,imu_link,0.000274715949196,-0.375797461629,-5.64618540491e-05,0.926701780066,0.0,0.0,0.0,0.0,0.0,0.0,0.0,0.0,0.0,-2.66542843616e-05,-0.0100488570283,0.000744147015364,0.0,0.0,0.0,0.0,0.0,0.0,0.0,0.0,0.0,6.57926942225,0.0051282393449,7.04448363883,0.0,0.0,0.0,0.0,0.0,0.0,0.0,0.0,0.0
25584000000,43,25584000000,imu_link,0.000274240901451,-0.375815915564,-5.50772198341e-05,0.926694296609,0.0,0.0,0.0,0.0,0.0,0.0,0.0,0.0,0.0,4.16061001214e-05,-0.00995660269077,0.000733155894789,0.0,0.0,0.0,0.0,0.0,0.0,0.0,0.0,0.0,6.57971042676,0.00521818498147,7.03982228755,0.0,0.0,0.0,0.0,0.0,0.0,0.0,0.0,0.0
25588000000,44,25588000000,imu_link,0.000273427091831,-0.375833942442,-5.37037771927e-05,0.926686986022,0.0,0.0,0.0,0.0,0.0,0.0,0.0,0.0,0.0,-0.000117496698481,-0.00972625423761,0.000791572565322,0.0,0.0,0.0,0.0,0.0,0.0,0.0,0.0,0.0,6.58080274225,0.00528609928306,7.0376587881,0.0,0.0,0.0,0.0,0.0,0.0,0.0,0.0,0.0
25592000000,45,25592000000,imu_link,0.000272108296549,-0.375851454808,-5.23616297235e-05,0.926679883851,0.0,0.0,0.0,0.0,0.0,0.0,0.0,0.0,0.0,-0.000357401722366,-0.00944871118115,0.000871902782771,0.0,0.0,0.0,0.0,0.0,0.0,0.0,0.0,0.0,6.58109106624,0.00522731472772,7.03530834519,0.0,0.0,0.0,0.0,0.0,0.0,0.0,0.0,0.0
25596000000,46,25596000000,imu_link,0.000270437663863,-0.375868434884,-5.10453383198e-05,0.926672997295,0.0,0.0,0.0,0.0,0.0,0.0,0.0,0.0,0.0,-0.000525324335731,-0.00916157299822,0.000925975159594,0.0,0.0,0.0,0.0,0.0,0.0,0.0,0.0,0.0,6.58120786813,0.00515314198936,7.03329886068,0.0,0.0,0.0,0.0,0.0,0.0,0.0,0.0,0.0
25600000000,47,25600000000,imu_link,0.000268778430728,-0.375884864193,-4.97310430198e-05,0.926666333777,0.0,0.0,0.0,0.0,0.0,0.0,0.0,0.0,0.0,-0.000520461859421,-0.00886446589053,0.000922839144462,0.0,0.0,0.0,0.0,0.0,0.0,0.0,0.0,0.0,6.58083435257,0.00511432872804,7.03045420178,0.0,0.0,0.0,0.0,0.0,0.0,0.0,0.0,0.0
25604000000,48,25604000000,imu_link,0.000267622141962,-0.375900821838,-4.83705064652e-05,0.926659861103,0.0,0.0,0.0,0.0,0.0,0.0,0.0,0.0,0.0,-0.000278777733993,-0.00861004251435,0.000849681022583,0.0,0.0,0.0,0.0,0.0,0.0,0.0,0.0,0.0,6.58193718556,0.00503428338818,7.03145636772,0.0,0.0,0.0,0.0,0.0,0.0,0.0,0.0,0.0
25608000000,49,25608000000,imu_link,0.000267371973273,-0.375916557209,-4.69123140473e-05,0.926653478021,0.0,0.0,0.0,0.0,0.0,0.0,0.0,0.0,0.0,0.000159391913594,-0.00849018212111,0.000724594690158,0.0,0.0,0.0,0.0,0.0,0.0,0.0,0.0,0.0,6.5836063356,0.00499803625041,7.035050016,0.0,0.0,0.0,0.0,0.0,0.0,0.0,0.0,0.0
25612000000,50,25612000000,imu_link,0.000268137743044,-0.375932430145,-4.53462097529e-05,0.926647038527,0.0,0.0,0.0,0.0,0.0,0.0,0.0,0.0,0.0,0.000650397066337,-0.00856448419524,0.00058365617104,0.0,0.0,0.0,0.0,0.0,0.0,0.0,0.0,0.0,6.58430939058,0.00506527103028,7.03747930725,0.0,0.0,0.0,0.0,0.0,0.0,0.0,0.0,0.0
25616000000,51,25616000000,imu_link,0.000269629688297,-0.375948689488,-4.37252551114e-05,0.926640441736,0.0,0.0,0.0,0.0,0.0,0.0,0.0,0.0,0.0,0.000997191108477,-0.00877305927042,0.000472621408943,0.0,0.0,0.0,0.0,0.0,0.0,0.0,0.0,0.0,6.58574850433,0.00522806685553,7.04035806082,0.0,0.0,0.0,0.0,0.0,0.0,0.0,0.0,0.0
25620000000,52,25620000000,imu_link,0.0002712773294,-0.375965401985,-4.21110482921e-05,0.926633660702,0.0,0.0,0.0,0.0,0.0,0.0,0.0,0.0,0.0,0.00106809447197,-0.00901764451963,0.000440285244918,0.0,0.0,0.0,0.0,0.0,0.0,0.0,0.0,0.0,6.58716193056,0.00539601562546,7.0415555105,0.0,0.0,0.0,0.0,0.0,0.0,0.0,0.0,0.0
25624000000,53,25624000000,imu_link,0.000272577258968,-0.375982445917,-4.05703951854e-05,0.926626744929,0.0,0.0,0.0,0.0,0.0,0.0,0.0,0.0,0.0,0.000893192294993,-0.00919654956681,0.000471612443596,0.0,0.0,0.0,0.0,0.0,0.0,0.0,0.0,0.0,6.58905693337,0.00547339817997,7.04196080601,0.0,0.0,0.0,0.0,0.0,0.0,0.0,0.0,0.0
25628000000,54,25628000000,imu_link,0.000273380590267,-0.375999638749,-3.91263675717e-05,0.92661976851,0.0,0.0,0.0,0.0,0.0,0.0,0.0,0.0,0.0,0.000644958217232,-0.00927696165128,0.000520219739874,0.0,0.0,0.0,0.0,0.0,0.0,0.0,0.0,0.0,6.58941776622,0.00541073133502,7.0387299306,0.0,0.0,0.0,0.0,0.0,0.0,0.0,0.0,0.0
25632000000,55,25632000000,imu_link,0.000273838512049,-0.37601676673,-3.77934514034e-05,0.92661281813,0.0,0.0,0.0,0.0,0.0,0.0,0.0,0.0,0.0,0.00046403281379,-0.00924204198841,0.000533669280826,0.0,0.0,0.0,0.0,0.0,0.0,0.0,0.0,0.0,6.5912618246,0.00528526843414,7.03834532108,0.0,0.0,0.0,0.0,0.0,0.0,0.0,0.0,0.0
25636000000,56,25636000000,imu_link,0.000274403702542,-0.376033610097,-3.65634407151e-05,0.926605982844,0.0,0.0,0.0,0.0,0.0,0.0,0.0,0.0,0.0,0.000494362865714,-0.00908855175044,0.000465788300995,0.0,0.0,0.0,0.0,0.0,0.0,0.0,0.0,0.0,6.59230084447,0.0051180801013,7.0363034396,0.0,0.0,0.0,0.0,0.0,0.0,0.0,0.0,0.0
25640000000,57,25640000000,imu_link,0.000275456557529,-0.376049918235,-3.54178500066e-05,0.926599364269,0.0,0.0,0.0,0.0,0.0,0.0,0.0,0.0,0.0,0.000704387391548,-0.00879983605555,0.000334917679234,0.0,0.0,0.0,0.0,0.0,0.0,0.0,0.0,0.0,6.59258323844,0.00507680050389,7.03263644093,0.0,0.0,0.0,0.0,0.0,0.0,0.0,0.0,0.0
25644000000,58,25644000000,imu_link,0.00027712224058,-0.376065507758,-3.43398115549e-05,0.926593036828,0.0,0.0,0.0,0.0,0.0,0.0,0.0,0.0,0.0,0.000975556105352,-0.00841215961156,0.000188299950327,0.0,0.0,0.0,0.0,0.0,0.0,0.0,0.0,0.0,6.59229097498,0.00515943687925,7.02835955087,0.0,0.0,0.0,0.0,0.0,0.0,0.0,0.0,0.0
25648000000,59,25648000000,imu_link,0.000279381821001,-0.376080357057,-3.33135518465e-05,0.926587009337,0.0,0.0,0.0,0.0,0.0,0.0,0.0,0.0,0.0,0.00124091631848,-0.00801281366979,5.25414648457e-05,0.0,0.0,0.0,0.0,0.0,0.0,0.0,0.0,0.0,6.59316545376,0.00528100815905,7.02765192348,0.0,0.0,0.0,0.0,0.0,0.0,0.0,0.0,0.0
25652000000,60,25652000000,imu_link,0.000282035422976,-0.376094493181,-3.23273946426e-05,0.926581270915,0.0,0.0,0.0,0.0,0.0,0.0,0.0,0.0,0.0,0.00141587080363,-0.00762804644356,-4.02244575876e-05,0.0,0.0,0.0,0.0,0.0,0.0,0.0,0.0,0.0,6.59325042582,0.0053642445396,7.02643823316,0.0,0.0,0.0,0.0,0.0,0.0,0.0,0.0,0.0
25656000000,61,25656000000,imu_link,0.000284944905565,-0.376108138277,-3.13657185938e-05,0.926575731467,0.0,0.0,0.0,0.0,0.0,0.0,0.0,0.0,0.0,0.0015297782858,-0.00736314010345,-9.97500197898e-05,0.0,0.0,0.0,0.0,0.0,0.0,0.0,0.0,0.0,6.59492031708,0.00535687512864,7.02975101757,0.0,0.0,0.0,0.0,0.0,0.0,0.0,0.0,0.0
25660000000,62,25660000000,imu_link,0.00028790716716,-0.376121396332,-3.04479699269e-05,0.926570348869,0.0,0.0,0.0,0.0,0.0,0.0,0.0,0.0,0.0,0.00154594101981,-0.00715433832718,-0.000130079032592,0.0,0.0,0.0,0.0,0.0,0.0,0.0,0.0,0.0,6.59492107882,0.0053715147346,7.02899772528,0.0,0.0,0.0,0.0,0.0,0.0,0.0,0.0,0.0
25664000000,63,25664000000,imu_link,0.000290585986367,-0.376134504676,-2.96678128065e-05,0.926565026899,0.0,0.0,0.0,0.0,0.0,0.0,0.0,0.0,0.0,0.00138873979463,-0.00707360161452,-0.000140539411408,0.0,0.0,0.0,0.0,0.0,0.0,0.0,0.0,0.0,6.59645922831,0.00539971265885,7.03230611004,0.0,0.0,0.0,0.0,0.0,0.0,0.0,0.0,0.0
25668000000,64,25668000000,imu_link,0.00029271446108,-0.376147799826,-2.91609759481e-05,0.926559629033,0.0,0.0,0.0,0.0,0.0,0.0,0.0,0.0,0.0,0.00108238602138,-0.00717446735432,-0.000163636116462,0.0,0.0,0.0,0.0,0.0,0.0,0.0,0.0,0.0,6.60008908959,0.00537871647903,7.04026079843,0.0,0.0,0.0,0.0,0.0,0.0,0.0,0.0,0.0
25672000000,65,25672000000,imu_link,0.000294182015754,-0.376161645868,-2.90228298102e-05,0.926554007488,0.0,0.0,0.0,0.0,0.0,0.0,0.0,0.0,0.0,0.000706894775624,-0.0074718161852,-0.000210063910112,0.0,0.0,0.0,0.0,0.0,0.0,0.0,0.0,0.0,6.60094876638,0.00530030664495,7.04300920077,0.0,0.0,0.0,0.0,0.0,0.0,0.0,0.0,0.0
25676000000,66,25676000000,imu_link,0.00029507834024,-0.376176243499,-2.9271664804e-05,0.926548080727,0.0,0.0,0.0,0.0,0.0,0.0,0.0,0.0,0.0,0.000369529037809,-0.00787748013791,-0.000281799802972,0.0,0.0,0.0,0.0,0.0,0.0,0.0,0.0,0.0,6.60175183897,0.00518102327864,7.04400844001,0.0,0.0,0.0,0.0,0.0,0.0,0.0,0.0,0.0
25680000000,67,25680000000,imu_link,0.000295594595178,-0.376191574753,-2.98771769171e-05,0.926541855944,0.0,0.0,0.0,0.0,0.0,0.0,0.0,0.0,0.0,0.000126420659832,-0.00827346159763,-0.000375448609129,0.0,0.0,0.0,0.0,0.0,0.0,0.0,0.0,0.0,6.60164977564,0.00506029300346,7.04136382011,0.0,0.0,0.0,0.0,0.0,0.0,0.0,0.0,0.0
25684000000,68,25684000000,imu_link,0.000295755067635,-0.376207395483,-3.08122522559e-05,0.926535432222,0.0,0.0,0.0,0.0,0.0,0.0,0.0,0.0,0.0,-0.000100355760124,-0.00853769524917,-0.00046113511324,0.0,0.0,0.0,0.0,0.0,0.0,0.0,0.0,0.0,6.60193666647,0.00500843846098,7.03738686572,0.0,0.0,0.0,0.0,0.0,0.0,0.0,0.0,0.0
25688000000,69,25688000000,imu_link,0.000295508173619,-0.376223107271,-3.20710339362e-05,0.926529052541,0.0,0.0,0.0,0.0,0.0,0.0,0.0,0.0,0.0,-0.000349974046129,-0.0084789954899,-0.000534486102709,0.0,0.0,0.0,0.0,0.0,0.0,0.0,0.0,0.0,6.60355593361,0.00501852573968,7.03293060086,0.0,0.0,0.0,0.0,0.0,0.0,0.0,0.0,0.0
25692000000,70,25692000000,imu_link,0.000294885504161,-0.376238133638,-3.36277116847e-05,0.926522950988,0.0,0.0,0.0,0.0,0.0,0.0,0.0,0.0,0.0,-0.000580147256861,-0.00810919537045,-0.000601899894894,0.0,0.0,0.0,0.0,0.0,0.0,0.0,0.0,0.0,6.60496021995,0.00504990427075,7.02836710707,0.0,0.0,0.0,0.0,0.0,0.0,0.0,0.0,0.0
25696000000,71,25696000000,imu_link,0.00029401684765,-0.376252052784,-3.54395392375e-05,0.926517298853,0.0,0.0,0.0,0.0,0.0,0.0,0.0,0.0,0.0,-0.000742187004498,-0.00751176036575,-0.000673981810342,0.0,0.0,0.0,0.0,0.0,0.0,0.0,0.0,0.0,6.60628098539,0.00502290495096,7.02536343672,0.0,0.0,0.0,0.0,0.0,0.0,0.0,0.0,0.0
25700000000,72,25700000000,imu_link,0.000292861539206,-0.376264692913,-3.74515859411e-05,0.926512165973,0.0,0.0,0.0,0.0,0.0,0.0,0.0,0.0,0.0,-0.000912746423879,-0.00682159381757,-0.000712987199713,0.0,0.0,0.0,0.0,0.0,0.0,0.0,0.0,0.0,6.60663446313,0.00499204276184,7.02322813964,0.0,0.0,0.0,0.0,0.0,0.0,0.0,0.0,0.0
25704000000,73,25704000000,imu_link,0.00029156639412,-0.376276167412,-3.96145242999e-05,0.926507506315,0.0,0.0,0.0,0.0,0.0,0.0,0.0,0.0,0.0,-0.00100600532197,-0.00619260460253,-0.000756742703943,0.0,0.0,0.0,0.0,0.0,0.0,0.0,0.0,0.0,6.60669654026,0.00494146158619,7.02289347741,0.0,0.0,0.0,0.0,0.0,0.0,0.0,0.0,0.0
25708000000,74,25708000000,imu_link,0.00029049783204,-0.37628668357,-4.18607805543e-05,0.926503235627,0.0,0.0,0.0,0.0,0.0,0.0,0.0,0.0,0.0,-0.000916790850443,-0.00567547754402,-0.000838100929869,0.0,0.0,0.0,0.0,0.0,0.0,0.0,0.0,0.0,6.60765162992,0.00489615283967,7.02483098961,0.0,0.0,0.0,0.0,0.0,0.0,0.0,0.0,0.0
25712000000,75,25712000000,imu_link,0.000289748072301,-0.376296148915,-4.41557460112e-05,0.926499391477,0.0,0.0,0.0,0.0,0.0,0.0,0.0,0.0,0.0,-0.000778353410381,-0.00510843656348,-0.000920789786478,0.0,0.0,0.0,0.0,0.0,0.0,0.0,0.0,0.0,6.60790559263,0.00494254473674,7.02285584229,0.0,0.0,0.0,0.0,0.0,0.0,0.0,0.0,0.0
25716000000,76,25716000000,imu_link,0.000289465731755,-0.376304355539,-4.64497922553e-05,0.926496058305,0.0,0.0,0.0,0.0,0.0,0.0,0.0,0.0,0.0,-0.000561750480419,-0.00442918462245,-0.00100847905726,0.0,0.0,0.0,0.0,0.0,0.0,0.0,0.0,0.0,6.60860390614,0.00499821619403,7.02066056239,0.0,0.0,0.0,0.0,0.0,0.0,0.0,0.0,0.0
25720000000,77,25720000000,imu_link,0.000289464645628,-0.376311145415,-4.87391502046e-05,0.926493300392,0.0,0.0,0.0,0.0,0.0,0.0,0.0,0.0,0.0,-0.000430693975548,-0.00366463545687,-0.00105941753478,0.0,0.0,0.0,0.0,0.0,0.0,0.0,0.0,0.0,6.60917490472,0.00511094772131,7.01874701382,0.0,0.0,0.0,0.0,0.0,0.0,0.0,0.0,0.0
25724000000,78,25724000000,imu_link,0.000289623037325,-0.376316769815,-5.10473226847e-05,0.926491015752,0.0,0.0,0.0,0.0,0.0,0.0,0.0,0.0,0.0,-0.000360453366273,-0.00303568246579,-0.00109829709322,0.0,0.0,0.0,0.0,0.0,0.0,0.0,0.0,0.0,6.60921008072,0.00518915051067,7.01919693903,0.0,0.0,0.0,0.0,0.0,0.0,0.0,0.0,0.0
25728000000,79,25728000000,imu_link,0.000290002993755,-0.376321828131,-5.33583423174e-05,0.926488960929,0.0,0.0,0.0,0.0,0.0,0.0,0.0,0.0,0.0,-0.000258397943635,-0.00273019887728,-0.00114138139591,0.0,0.0,0.0,0.0,0.0,0.0,0.0,0.0,0.0,6.61103789688,0.0052263199598,7.02599527954,0.0,0.0,0.0,0.0,0.0,0.0,0.0,0.0,0.0
25732000000,80,25732000000,imu_link,0.000290393047564,-0.376326872087,-5.56877469982e-05,0.926486911897,0.0,0.0,0.0,0.0,0.0,0.0,0.0,0.0,0.0,-0.00025718095857,-0.00272246024409,-0.00115180002761,0.0,0.0,0.0,0.0,0.0,0.0,0.0,0.0,0.0,6.61315670341,0.00537330832125,7.03304757791,0.0,0.0,0.0,0.0,0.0,0.0,0.0,0.0,0.0
25736000000,81,25736000000,imu_link,0.000290448149177,-0.376332050535,-5.80473776989e-05,0.9264848083,0.0,0.0,0.0,0.0,0.0,0.0,0.0,0.0,0.0,-0.000418021135673,-0.00279504300177,-0.00110275826917,0.0,0.0,0.0,0.0,0.0,0.0,0.0,0.0,0.0,6.61424529604,0.00555196380069,7.03455399206,0.0,0.0,0.0,0.0,0.0,0.0,0.0,0.0,0.0
25740000000,82,25740000000,imu_link,0.000289685437805,-0.376337526218,-6.04995180587e-05,0.926482584176,0.0,0.0,0.0,0.0,0.0,0.0,0.0,0.0,0.0,-0.000814247833634,-0.00295545149022,-0.000991688379601,0.0,0.0,0.0,0.0,0.0,0.0,0.0,0.0,0.0,6.6150339256,0.00567544250145,7.0353960871,0.0,0.0,0.0,0.0,0.0,0.0,0.0,0.0,0.0
25744000000,83,25744000000,imu_link,0.000287537388391,-0.37634342841,-6.30920173645e-05,0.926480187178,0.0,0.0,0.0,0.0,0.0,0.0,0.0,0.0,0.0,-0.00148236684611,-0.00318561974469,-0.000795974545926,0.0,0.0,0.0,0.0,0.0,0.0,0.0,0.0,0.0,6.61550549195,0.0056931043433,7.03564282693,0.0,0.0,0.0,0.0,0.0,0.0,0.0,0.0,0.0
25748000000,84,25748000000,imu_link,0.000283580286286,-0.376350125179,-6.58664305999e-05,0.926477467898,0.0,0.0,0.0,0.0,0.0,0.0,0.0,0.0,0.0,-0.00235455224033,-0.00361442691984,-0.000539727757236,0.0,0.0,0.0,0.0,0.0,0.0,0.0,0.0,0.0,6.61619802904,0.00557576694478,7.03823813314,0.0,0.0,0.0,0.0,0.0,0.0,0.0,0.0,0.0
25752000000,85,25752000000,imu_link,0.000277963586442,-0.376357987442,-6.87661957578e-05,0.926474275572,0.0,0.0,0.0,0.0,0.0,0.0,0.0,0.0,0.0,-0.00314682484507,-0.00424341697359,-0.000285351038007,0.0,0.0,0.0,0.0,0.0,0.0,0.0,0.0,0.0,6.617704396,0.00533051235349,7.04203275687,0.0,0.0,0.0,0.0,0.0,0.0,0.0,0.0,0.0
25756000000,86,25756000000,imu_link,0.000271094676247,-0.376367274739,-7.17286937839e-05,0.926470504586,0.0,0.0,0.0,0.0,0.0,0.0,0.0,0.0,0.0,-0.00373857077194,-0.00501248905851,-7.8593390771e-05,0.0,0.0,0.0,0.0,0.0,0.0,0.0,0.0,0.0,6.61761719404,0.00507189127827,7.04193313884,0.0,0.0,0.0,0.0,0.0,0.0,0.0,0.0,0.0
25760000000,87,25760000000,imu_link,0.000263336165354,-0.376377978892,-7.4737981657e-05,0.926466158083,0.0,0.0,0.0,0.0,0.0,0.0,0.0,0.0,0.0,-0.00415934143453,-0.00577716815097,6.73116082101e-05,0.0,0.0,0.0,0.0,0.0,0.0,0.0,0.0,0.0,6.61851403162,0.00488507780839,7.04154682273,0.0,0.0,0.0,0.0,0.0,0.0,0.0,0.0,0.0
25764000000,88,25764000000,imu_link,0.000254715996521,-0.376389947205,-7.77987847695e-05,0.92646129801,0.0,0.0,0.0,0.0,0.0,0.0,0.0,0.0,0.0,-0.00456806963541,-0.00645945587522,0.000205749840261,0.0,0.0,0.0,0.0,0.0,0.0,0.0,0.0,0.0,6.61951803795,0.0048112912636,7.03980187631,0.0,0.0,0.0,0.0,0.0,0.0,0.0,0.0,0.0
25768000000,89,25768000000,imu_link,0.000245106943938,-0.376402836741,-8.09415305414e-05,0.926456063645,0.0,0.0,0.0,0.0,0.0,0.0,0.0,0.0,0.0,-0.00504148858932,-0.00695668337797,0.000353997205583,0.0,0.0,0.0,0.0,0.0,0.0,0.0,0.0,0.0,6.61943469826,0.00476978408813,7.0341312379,0.0,0.0,0.0,0.0,0.0,0.0,0.0,0.0,0.0
25772000000,90,25772000000,imu_link,0.000234448140134,-0.376416163062,-8.42073296795e-05,0.926450651751,0.0,0.0,0.0,0.0,0.0,0.0,0.0,0.0,0.0,-0.00555088216559,-0.00719248303576,0.000494606450382,0.0,0.0,0.0,0.0,0.0,0.0,0.0,0.0,0.0,6.62135503319,0.00469845465942,7.0309216382,0.0,0.0,0.0,0.0,0.0,0.0,0.0,0.0,0.0
25776000000,91,25776000000,imu_link,0.000222947212586,-0.376429369444,-8.76070445007e-05,0.926445288422,0.0,0.0,0.0,0.0,0.0,0.0,0.0,0.0,0.0,-0.0059661899685,-0.00712783516832,0.00059105579392,0.0,0.0,0.0,0.0,0.0,0.0,0.0,0.0,0.0,6.62362430191,0.00462858621215,7.02820803667,0.0,0.0,0.0,0.0,0.0,0.0,0.0,0.0,0.0
25780000000,92,25780000000,imu_link,0.000211124284585,-0.376442114393,-9.11374962033e-05,0.926440112275,0.0,0.0,0.0,0.0,0.0,0.0,0.0,0.0,0.0,-0.00613999554836,-0.00687888731905,0.000591057485219,0.0,0.0,0.0,0.0,0.0,0.0,0.0,0.0,0.0,6.62545462208,0.00458514006075,7.02725159394,0.0,0.0,0.0,0.0,0.0,0.0,0.0,0.0,0.0
25784000000,93,25784000000,imu_link,0.000199493555754,-0.376454370203,-9.4789671285e-05,0.926435134466,0.0,0.0,0.0,0.0,0.0,0.0,0.0,0.0,0.0,-0.00607391916787,-0.00661498126435,0.000498454247338,0.0,0.0,0.0,0.0,0.0,0.0,0.0,0.0,0.0,6.62567471032,0.00461358956663,7.02596398439,0.0,0.0,0.0,0.0,0.0,0.0,0.0,0.0,0.0
25788000000,94,25788000000,imu_link,0.000188382068917,-0.376466318863,-9.85557578365e-05,0.926430281004,0.0,0.0,0.0,0.0,0.0,0.0,0.0,0.0,0.0,-0.00585486535051,-0.00644928472443,0.000347928250601,0.0,0.0,0.0,0.0,0.0,0.0,0.0,0.0,0.0,6.6272168119,0.00471134416794,7.02903959621,0.0,0.0,0.0,0.0,0.0,0.0,0.0,0.0,0.0
25792000000,95,25792000000,imu_link,0.000177700284667,-0.376478150984,-0.000102431563105,0.926425474478,0.0,0.0,0.0,0.0,0.0,0.0,0.0,0.0,0.0,-0.00567648347029,-0.00638645690374,0.000216211940085,0.0,0.0,0.0,0.0,0.0,0.0,0.0,0.0,0.0,6.62746068188,0.00490169552665,7.02960252294,0.0,0.0,0.0,0.0,0.0,0.0,0.0,0.0,0.0
25796000000,96,25796000000,imu_link,0.000167113072321,-0.37648986802,-0.000106437662028,0.926420714375,0.0,0.0,0.0,0.0,0.0,0.0,0.0,0.0,0.0,-0.00565721293603,-0.00632441559771,0.000138048284168,0.0,0.0,0.0,0.0,0.0,0.0,0.0,0.0,0.0,6.62818323138,0.00511659364123,7.02929687337,0.0,0.0,0.0,0.0,0.0,0.0,0.0,0.0,0.0
25800000000,97,25800000000,imu_link,0.000156254632173,-0.376501514415,-0.000110632184958,0.926415982693,0.0,0.0,0.0,0.0,0.0,0.0,0.0,0.0,0.0,-0.00581832446211,-0.00628637448893,0.000101821202286,0.0,0.0,0.0,0.0,0.0,0.0,0.0,0.0,0.0,6.62919102652,0.00530111825185,7.02982447639,0.0,0.0,0.0,0.0,0.0,0.0,0.0,0.0,0.0
25804000000,98,25804000000,imu_link,0.00014498959506,-0.376513121248,-0.000115064821549,0.926411266807,0.0,0.0,0.0,0.0,0.0,0.0,0.0,0.0,0.0,-0.00605149192498,-0.00626511641996,6.80650212489e-05,0.0,0.0,0.0,0.0,0.0,0.0,0.0,0.0,0.0,6.62959316017,0.00538735047903,7.02922257256,0.0,0.0,0.0,0.0,0.0,0.0,0.0,0.0,0.0
25808000000,99,25808000000,imu_link,0.000133455507399,-0.376524574962,-0.000119747708178,0.926406612833,0.0,0.0,0.0,0.0,0.0,0.0,0.0,0.0,0.0,-0.00622324216348,-0.00618256899502,2.79078591572e-06,0.0,0.0,0.0,0.0,0.0,0.0,0.0,0.0,0.0,6.63005759221,0.00541870879287,7.027512254,0.0,0.0,0.0,0.0,0.0,0.0,0.0,0.0,0.0
25812000000,100,25812000000,imu_link,0.000122022737464,-0.376535837178,-0.000124604922129,0.926402036324,0.0,0.0,0.0,0.0,0.0,0.0,0.0,0.0,0.0,-0.00620914735304,-0.00607928864296,-9.70406525493e-05,0.0,0.0,0.0,0.0,0.0,0.0,0.0,0.0,0.0,6.63088198818,0.00541145639687,7.02691008151,0.0,0.0,0.0,0.0,0.0,0.0,0.0,0.0,0.0
25816000000,101,25816000000,imu_link,0.000111216141906,-0.376546999742,-0.000129496127458,0.926397499914,0.0,0.0,0.0,0.0,0.0,0.0,0.0,0.0,0.0,-0.00592551088511,-0.00602554282478,-0.0002306776221,0.0,0.0,0.0,0.0,0.0,0.0,0.0,0.0,0.0,6.63319855977,0.00540893119016,7.02986253012,0.0,0.0,0.0,0.0,0.0,0.0,0.0,0.0,0.0
25820000000,102,25820000000,imu_link,0.00010124434243,-0.376558252614,-0.000134323265618,0.926392926406,0.0,0.0,0.0,0.0,0.0,0.0,0.0,0.0,0.0,-0.00552676432308,-0.00607430062001,-0.000358169149268,0.0,0.0,0.0,0.0,0.0,0.0,0.0,0.0,0.0,6.63382268577,0.00557993855053,7.03086369293,0.0,0.0,0.0,0.0,0.0,0.0,0.0,0.0,0.0
25824000000,103,25824000000,imu_link,9.19524051776e-05,-0.376569806286,-0.000139031756509,0.926388230284,0.0,0.0,0.0,0.0,0.0,0.0,0.0,0.0,0.0,-0.00518948933212,-0.00623666428155,-0.000431209027448,0.0,0.0,0.0,0.0,0.0,0.0,0.0,0.0,0.0,6.63404559017,0.00586012728205,7.03157304519,0.0,0.0,0.0,0.0,0.0,0.0,0.0,0.0,0.0
25828000000,104,25828000000,imu_link,8.29688702954e-05,-0.376582177667,-0.000143664973751,0.926383201456,0.0,0.0,0.0,0.0,0.0,0.0,0.0,0.0,0.0,-0.00503239413704,-0.00667804080796,-0.000454395759634,0.0,0.0,0.0,0.0,0.0,0.0,0.0,0.0,0.0,6.63610330638,0.00618359537986,7.03822406662,0.0,0.0,0.0,0.0,0.0,0.0,0.0,0.0,0.0
25832000000,105,25832000000,imu_link,7.39078571727e-05,-0.376595810344,-0.000148317015183,0.926377659581,0.0,0.0,0.0,0.0,0.0,0.0,0.0,0.0,0.0,-0.00507171394934,-0.00735887076184,-0.000448511033745,0.0,0.0,0.0,0.0,0.0,0.0,0.0,0.0,0.0,6.63765669029,0.00644627542855,7.04314755593,0.0,0.0,0.0,0.0,0.0,0.0,0.0,0.0,0.0
25836000000,106,25836000000,imu_link,6.46215875439e-05,-0.376610759483,-0.000152999197253,0.926371582173,0.0,0.0,0.0,0.0,0.0,0.0,0.0,0.0,0.0,-0.00518160824884,-0.00806949933224,-0.000420047578052,0.0,0.0,0.0,0.0,0.0,0.0,0.0,0.0,0.0,6.63798899226,0.00657211807403,7.0422714468,0.0,0.0,0.0,0.0,0.0,0.0,0.0,0.0,0.0
25840000000,107,25840000000,imu_link,5.51505350675e-05,-0.376626810075,-0.000157702053374,0.926365056563,0.0,0.0,0.0,0.0,0.0,0.0,0.0,0.0,0.0,-0.00527099133105,-0.00866408999776,-0.000394826598917,0.0,0.0,0.0,0.0,0.0,0.0,0.0,0.0,0.0,6.63746544025,0.00663178301147,7.03721116677,0.0,0.0,0.0,0.0,0.0,0.0,0.0,0.0,0.0
25844000000,108,25844000000,imu_link,4.57383622729e-05,-0.376643643546,-0.000162401120156,0.9263582122,0.0,0.0,0.0,0.0,0.0,0.0,0.0,0.0,0.0,-0.00524293518739,-0.00908672681285,-0.000404162822643,0.0,0.0,0.0,0.0,0.0,0.0,0.0,0.0,0.0,6.63780324505,0.00665517303793,7.03282055709,0.0,0.0,0.0,0.0,0.0,0.0,0.0,0.0,0.0
25848000000,109,25848000000,imu_link,3.66138905134e-05,-0.376661069129,-0.000167062933908,0.9263511266,0.0,0.0,0.0,0.0,0.0,0.0,0.0,0.0,0.0,-0.00510260892392,-0.00940638652319,-0.000441094427894,0.0,0.0,0.0,0.0,0.0,0.0,0.0,0.0,0.0,6.63840390498,0.00669014883791,7.03038752271,0.0,0.0,0.0,0.0,0.0,0.0,0.0,0.0,0.0
25852000000,110,25852000000,imu_link,2.81316379351e-05,-0.37667895581,-0.000171701847741,0.926343852993,0.0,0.0,0.0,0.0,0.0,0.0,0.0,0.0,0.0,-0.00480079398098,-0.00965530940076,-0.000551444490297,0.0,0.0,0.0,0.0,0.0,0.0,0.0,0.0,0.0,6.63929675278,0.00674233397989,7.02969142004,0.0,0.0,0.0,0.0,0.0,0.0,0.0,0.0,0.0
25856000000,111,25856000000,imu_link,2.03803724697e-05,-0.376697085337,-0.000176346769625,0.926336480111,0.0,0.0,0.0,0.0,0.0,0.0,0.0,0.0,0.0,-0.00446333057957,-0.00978642356525,-0.000691906088449,0.0,0.0,0.0,0.0,0.0,0.0,0.0,0.0,0.0,6.63951336589,0.0068718646672,7.02647894498,0.0,0.0,0.0,0.0,0.0,0.0,0.0,0.0,0.0
25860000000,112,25860000000,imu_link,1.30746609845e-05,-0.376715169261,-0.000181032510242,0.92632912526,0.0,0.0,0.0,0.0,0.0,0.0,0.0,0.0,0.0,-0.0042646564804,-0.00976186661171,-0.000794730347401,0.0,0.0,0.0,0.0,0.0,0.0,0.0,0.0,0.0,6.64010206008,0.00705680872653,7.02310599123,0.0,0.0,0.0,0.0,0.0,0.0,0.0,0.0,0.0
25864000000,113,25864000000,imu_link,5.63557119864e-06,-0.376732559438,-0.00018579762343,0.926322052046,0.0,0.0,0.0,0.0,0.0,0.0,0.0,0.0,0.0,-0.0043414476449,-0.0093875115741,-0.000806349137252,0.0,0.0,0.0,0.0,0.0,0.0,0.0,0.0,0.0,6.64316426138,0.00726185585794,7.02137667286,0.0,0.0,0.0,0.0,0.0,0.0,0.0,0.0,0.0
25868000000,114,25868000000,imu_link,-2.3809304185e-06,-0.376748837603,-0.00019065526864,0.926315430623,0.0,0.0,0.0,0.0,0.0,0.0,0.0,0.0,0.0,-0.00462641679146,-0.00878742295366,-0.00074040260761,0.0,0.0,0.0,0.0,0.0,0.0,0.0,0.0,0.0,6.64412008387,0.00741267786675,7.0182660895,0.0,0.0,0.0,0.0,0.0,0.0,0.0,0.0,0.0
25872000000,115,25872000000,imu_link,-1.11972926104e-05,-0.376764022096,-0.000195597937346,0.926309253581,0.0,0.0,0.0,0.0,0.0,0.0,0.0,0.0,0.0,-0.00501299836784,-0.00819724616668,-0.000629064961391,0.0,0.0,0.0,0.0,0.0,0.0,0.0,0.0,0.0,6.64426205652,0.0075422083069,7.01773815077,0.0,0.0,0.0,0.0,0.0,0.0,0.0,0.0,0.0
25876000000,116,25876000000,imu_link,-2.06086480266e-05,-0.376778582353,-0.000200528242261,0.92630333004,0.0,0.0,0.0,0.0,0.0,0.0,0.0,0.0,0.0,-0.00528630274699,-0.00786043185931,-0.000511224306947,0.0,0.0,0.0,0.0,0.0,0.0,0.0,0.0,0.0,6.64457943676,0.00754446136168,7.02102755385,0.0,0.0,0.0,0.0,0.0,0.0,0.0,0.0,0.0
25880000000,117,25880000000,imu_link,-3.02726141186e-05,-0.376792751281,-0.000205357157405,0.926297565307,0.0,0.0,0.0,0.0,0.0,0.0,0.0,0.0,0.0,-0.00538423665478,-0.00764929564385,-0.00041665636415,0.0,0.0,0.0,0.0,0.0,0.0,0.0,0.0,0.0,6.64499723769,0.00748755681607,7.02236797738,0.0,0.0,0.0,0.0,0.0,0.0,0.0,0.0,0.0
25884000000,118,25884000000,imu_link,-3.9833744683e-05,-0.376806547381,-0.000210047970405,0.926291951894,0.0,0.0,0.0,0.0,0.0,0.0,0.0,0.0,0.0,-0.00531062655295,-0.00744810446626,-0.000372047184515,0.0,0.0,0.0,0.0,0.0,0.0,0.0,0.0,0.0,6.64519350632,0.00745468193648,7.0215654244,0.0,0.0,0.0,0.0,0.0,0.0,0.0,0.0,0.0
25888000000,119,25888000000,imu_link,-4.91606989809e-05,-0.376819753439,-0.000214616211597,0.926286578193,0.0,0.0,0.0,0.0,0.0,0.0,0.0,0.0,0.0,-0.00517913302173,-0.00712964408452,-0.000359361192794,0.0,0.0,0.0,0.0,0.0,0.0,0.0,0.0,0.0,6.64549105752,0.00751513871858,7.01862459875,0.0,0.0,0.0,0.0,0.0,0.0,0.0,0.0,0.0
25892000000,120,25892000000,imu_link,-5.84228802941e-05,-0.37683207619,-0.000219107913174,0.926281563529,0.0,0.0,0.0,0.0,0.0,0.0,0.0,0.0,0.0,-0.00513479898998,-0.00665289511552,-0.000336056014633,0.0,0.0,0.0,0.0,0.0,0.0,0.0,0.0,0.0,6.64472288672,0.00763573419196,7.01322402904,0.0,0.0,0.0,0.0,0.0,0.0,0.0,0.0,0.0
25896000000,121,25896000000,imu_link,-6.78083150305e-05,-0.376843347181,-0.000223559152932,0.926276976454,0.0,0.0,0.0,0.0,0.0,0.0,0.0,0.0,0.0,-0.00518436175493,-0.00608523208027,-0.000294016006572,0.0,0.0,0.0,0.0,0.0,0.0,0.0,0.0,0.0,6.64400073322,0.00772643127811,7.00886144118,0.0,0.0,0.0,0.0,0.0,0.0,0.0,0.0,0.0
25900000000,122,25900000000,imu_link,-7.75696998544e-05,-0.376853640367,-0.000228003103736,0.926272786894,0.0,0.0,0.0,0.0,0.0,0.0,0.0,0.0,0.0,-0.00535720113434,-0.00555751514568,-0.000219725481128,0.0,0.0,0.0,0.0,0.0,0.0,0.0,0.0,0.0,6.64410034896,0.00779601776525,7.00840532523,0.0,0.0,0.0,0.0,0.0,0.0,0.0,0.0,0.0
25904000000,123,25904000000,imu_link,-8.78066092923e-05,-0.376863254062,-0.000232470323702,0.926268873484,0.0,0.0,0.0,0.0,0.0,0.0,0.0,0.0,0.0,-0.00558188517573,-0.00519083741501,-0.000140842850253,0.0,0.0,0.0,0.0,0.0,0.0,0.0,0.0,0.0,6.64460816155,0.00778311368412,7.01017943497,0.0,0.0,0.0,0.0,0.0,0.0,0.0,0.0,0.0
25908000000,124,25908000000,imu_link,-9.84098695629e-05,-0.376872312926,-0.000236946131609,0.926265185528,0.0,0.0,0.0,0.0,0.0,0.0,0.0,0.0,0.0,-0.00575322769487,-0.00489143516492,-7.57375736576e-05,0.0,0.0,0.0,0.0,0.0,0.0,0.0,0.0,0.0,6.64465716289,0.00771619579955,7.00960776313,0.0,0.0,0.0,0.0,0.0,0.0,0.0,0.0,0.0
25912000000,125,25912000000,imu_link,-0.000108931226756,-0.376880770898,-0.000241352122913,0.926261741848,0.0,0.0,0.0,0.0,0.0,0.0,0.0,0.0,0.0,-0.00570219890814,-0.00456710586753,-5.87782234983e-05,0.0,0.0,0.0,0.0,0.0,0.0,0.0,0.0,0.0,6.64611913942,0.00768408407409,7.01051484835,0.0,0.0,0.0,0.0,0.0,0.0,0.0,0.0,0.0
25916000000,126,25916000000,imu_link,-0.000118935940591,-0.376888543628,-0.000245626726808,0.926258576859,0.0,0.0,0.0,0.0,0.0,0.0,0.0,0.0,0.0,-0.00543823423802,-0.00419717754234,-9.52141783205e-05,0.0,0.0,0.0,0.0,0.0,0.0,0.0,0.0,0.0,6.64745050123,0.00778712104977,7.01064183268,0.0,0.0,0.0,0.0,0.0,0.0,0.0,0.0,0.0
25920000000,127,25920000000,imu_link,-0.000127847735413,-0.376895782168,-0.0002496952011,0.926255629236,0.0,0.0,0.0,0.0,0.0,0.0,0.0,0.0,0.0,-0.00489328017021,-0.003908695248,-0.000205645386789,0.0,0.0,0.0,0.0,0.0,0.0,0.0,0.0,0.0,6.64815347315,0.00788283938546,7.01187450045,0.0,0.0,0.0,0.0,0.0,0.0,0.0,0.0,0.0
25924000000,128,25924000000,imu_link,-0.00013525652207,-0.376902734881,-0.000253515524179,0.926252798039,0.0,0.0,0.0,0.0,0.0,0.0,0.0,0.0,0.0,-0.00415045995247,-0.00375420881278,-0.000373925570411,0.0,0.0,0.0,0.0,0.0,0.0,0.0,0.0,0.0,6.64795605911,0.0080446798055,7.01221826293,0.0,0.0,0.0,0.0,0.0,0.0,0.0,0.0,0.0
25928000000,129,25928000000,imu_link,-0.000140985860753,-0.37690970071,-0.000257082146362,0.926249961696,0.0,0.0,0.0,0.0,0.0,0.0,0.0,0.0,0.0,-0.00332485166471,-0.00376105655998,-0.000572925793996,0.0,0.0,0.0,0.0,0.0,0.0,0.0,0.0,0.0,6.64858025187,0.00828422231377,7.0145268677,0.0,0.0,0.0,0.0,0.0,0.0,0.0,0.0,0.0
25932000000,130,25932000000,imu_link,-0.00014521864158,-0.376916683605,-0.000260439306215,0.926247118594,0.0,0.0,0.0,0.0,0.0,0.0,0.0,0.0,0.0,-0.00259228242722,-0.00377005716894,-0.000757954215498,0.0,0.0,0.0,0.0,0.0,0.0,0.0,0.0,0.0,6.64867380379,0.00860021284662,7.01297549795,0.0,0.0,0.0,0.0,0.0,0.0,0.0,0.0,0.0
25936000000,131,25936000000,imu_link,-0.00014829951412,-0.37692360883,-0.000263617786215,0.926244299102,0.0,0.0,0.0,0.0,0.0,0.0,0.0,0.0,0.0,-0.00202513864775,-0.00373876176514,-0.000892282829681,0.0,0.0,0.0,0.0,0.0,0.0,0.0,0.0,0.0,6.65009578862,0.00891127047109,7.01323126111,0.0,0.0,0.0,0.0,0.0,0.0,0.0,0.0,0.0
25940000000,132,25940000000,imu_link,-0.00015060092052,-0.376930380678,-0.000266659974637,0.926241542112,0.0,0.0,0.0,0.0,0.0,0.0,0.0,0.0,0.0,-0.00163848043892,-0.00365585808509,-0.000976043165179,0.0,0.0,0.0,0.0,0.0,0.0,0.0,0.0,0.0,6.65004555876,0.00913717738454,7.01071273065,0.0,0.0,0.0,0.0,0.0,0.0,0.0,0.0,0.0
25944000000,133,25944000000,imu_link,-0.000152510067909,-0.37693705675,-0.00026963095209,0.92623882411,0.0,0.0,0.0,0.0,0.0,0.0,0.0,0.0,0.0,-0.00144340618817,-0.00360410748893,-0.0010169786454,0.0,0.0,0.0,0.0,0.0,0.0,0.0,0.0,0.0,6.65032640401,0.00930251922569,7.01020932602,0.0,0.0,0.0,0.0,0.0,0.0,0.0,0.0,0.0
25948000000,134,25948000000,imu_link,-0.000154418821841,-0.376943810843,-0.000272612537397,0.926236074284,0.0,0.0,0.0,0.0,0.0,0.0,0.0,0.0,0.0,-0.00144521512569,-0.00364623719069,-0.00102197574257,0.0,0.0,0.0,0.0,0.0,0.0,0.0,0.0,0.0,6.65091432405,0.00939612572006,7.01117570131,0.0,0.0,0.0,0.0,0.0,0.0,0.0,0.0,0.0
25952000000,135,25952000000,imu_link,-0.000156573920188,-0.376950883032,-0.000275648655448,0.926233194873,0.0,0.0,0.0,0.0,0.0,0.0,0.0,0.0,0.0,-0.00156954620476,-0.00381800563615,-0.00100084406192,0.0,0.0,0.0,0.0,0.0,0.0,0.0,0.0,0.0,6.65114271769,0.00940423636857,7.0119469523,0.0,0.0,0.0,0.0,0.0,0.0,0.0,0.0,0.0
25956000000,136,25956000000,imu_link,-0.000158848417451,-0.376958430538,-0.000278706694942,0.926230121912,0.0,0.0,0.0,0.0,0.0,0.0,0.0,0.0,0.0,-0.00162892311983,-0.00407462690098,-0.000988556369508,0.0,0.0,0.0,0.0,0.0,0.0,0.0,0.0,0.0,6.65119280813,0.00935863120468,7.01165119342,0.0,0.0,0.0,0.0,0.0,0.0,0.0,0.0,0.0
25960000000,137,25960000000,imu_link,-0.000161013714636,-0.37696637649,-0.000281733691156,0.926226886728,0.0,0.0,0.0,0.0,0.0,0.0,0.0,0.0,0.0,-0.00157245726585,-0.00428971629359,-0.000994815956243,0.0,0.0,0.0,0.0,0.0,0.0,0.0,0.0,0.0,6.65141406431,0.00933801872756,7.00948108943,0.0,0.0,0.0,0.0,0.0,0.0,0.0,0.0,0.0
25964000000,138,25964000000,imu_link,-0.000162641744252,-0.376974757272,-0.000284658972058,0.926223474598,0.0,0.0,0.0,0.0,0.0,0.0,0.0,0.0,0.0,-0.00130442279797,-0.00452437601415,-0.00104903606549,0.0,0.0,0.0,0.0,0.0,0.0,0.0,0.0,0.0,6.65279390093,0.00932428833198,7.0105493431,0.0,0.0,0.0,0.0,0.0,0.0,0.0,0.0,0.0
25968000000,139,25968000000,imu_link,-0.000163461082318,-0.37698371901,-0.000287443957525,0.926219826099,0.0,0.0,0.0,0.0,0.0,0.0,0.0,0.0,0.0,-0.000903400864822,-0.00483787191571,-0.00113657263886,0.0,0.0,0.0,0.0,0.0,0.0,0.0,0.0,0.0,6.65344389539,0.00939348894856,7.01121532726,0.0,0.0,0.0,0.0,0.0,0.0,0.0,0.0,0.0
25972000000,140,25972000000,imu_link,-0.000163409028281,-0.376993361036,-0.000290058358528,0.926215900802,0.0,0.0,0.0,0.0,0.0,0.0,0.0,0.0,0.0,-0.000467621611496,-0.00520498332256,-0.00122191898339,0.0,0.0,0.0,0.0,0.0,0.0,0.0,0.0,0.0,6.65377548728,0.00948184972027,7.01090421272,0.0,0.0,0.0,0.0,0.0,0.0,0.0,0.0,0.0
25976000000,141,25976000000,imu_link,-0.00016246314939,-0.377003796378,-0.000292482461187,0.926211652689,0.0,0.0,0.0,0.0,0.0,0.0,0.0,0.0,0.0,-1.77249310055e-05,-0.00563310960727,-0.00130238495963,0.0,0.0,0.0,0.0,0.0,0.0,0.0,0.0,0.0,6.65362511751,0.009563380125,7.00985529447,0.0,0.0,0.0,0.0,0.0,0.0,0.0,0.0,0.0
25980000000,142,25980000000,imu_link,-0.00016065919088,-0.377015036906,-0.000294721339264,0.926207076887,0.0,0.0,0.0,0.0,0.0,0.0,0.0,0.0,0.0,0.000414663058416,-0.00606765592681,-0.00137846934224,0.0,0.0,0.0,0.0,0.0,0.0,0.0,0.0,0.0,6.65293652016,0.00965549666328,7.00697383552,0.0,0.0,0.0,0.0,0.0,0.0,0.0,0.0,0.0
25984000000,143,25984000000,imu_link,-0.00015810764578,-0.377026878893,-0.000296803056158,0.926202256261,0.0,0.0,0.0,0.0,0.0,0.0,0.0,0.0,0.0,0.000790568082451,-0.00639224716527,-0.00144669752746,0.0,0.0,0.0,0.0,0.0,0.0,0.0,0.0,0.0,6.65397030251,0.00974797903691,7.00535896316,0.0,0.0,0.0,0.0,0.0,0.0,0.0,0.0,0.0
25988000000,144,25988000000,imu_link,-0.000155184354961,-0.377038838256,-0.000298773451969,0.926197387763,0.0,0.0,0.0,0.0,0.0,0.0,0.0,0.0,0.0,0.000983723099081,-0.00645558185306,-0.00146524005573,0.0,0.0,0.0,0.0,0.0,0.0,0.0,0.0,0.0,6.65563941897,0.009872547257,7.00254843755,0.0,0.0,0.0,0.0,0.0,0.0,0.0,0.0,0.0
25992000000,145,25992000000,imu_link,-0.000152472183145,-0.377050398125,-0.000300679920643,0.926192681691,0.0,0.0,0.0,0.0,0.0,0.0,0.0,0.0,0.0,0.000897958595265,-0.00623999324335,-0.00139578018861,0.0,0.0,0.0,0.0,0.0,0.0,0.0,0.0,0.0,6.65718570366,0.00996389462208,6.99909853216,0.0,0.0,0.0,0.0,0.0,0.0,0.0,0.0,0.0
25996000000,146,25996000000,imu_link,-0.000150503546296,-0.37706143548,-0.000302560671367,0.926188188048,0.0,0.0,0.0,0.0,0.0,0.0,0.0,0.0,0.0,0.000558416394787,-0.00595808420378,-0.00124362345095,0.0,0.0,0.0,0.0,0.0,0.0,0.0,0.0,0.0,6.65754852807,0.00995375429027,6.99745174379,0.0,0.0,0.0,0.0,0.0,0.0,0.0,0.0,0.0
26000000000,147,26000000000,imu_link,-0.000149457828668,-0.377072356988,-0.000304410698828,0.92618374127,0.0,0.0,0.0,0.0,0.0,0.0,0.0,0.0,0.0,0.000136796233626,-0.00589574294607,-0.00105538125927,0.0,0.0,0.0,0.0,0.0,0.0,0.0,0.0,0.0,6.65746451837,0.00982193994516,6.9993053879,0.0,0.0,0.0,0.0,0.0,0.0,0.0,0.0,0.0
26004000000,148,26004000000,imu_link,-0.000149023736664,-0.377083935437,-0.000306165949892,0.926179026803,0.0,0.0,0.0,0.0,0.0,0.0,0.0,0.0,0.0,-0.00012849385451,-0.00625053594742,-0.000896267358289,0.0,0.0,0.0,0.0,0.0,0.0,0.0,0.0,0.0,6.65976732805,0.00962216472233,7.00866512149,0.0,0.0,0.0,0.0,0.0,0.0,0.0,0.0,0.0
26008000000,149,26008000000,imu_link,-0.000148776619601,-0.377096552686,-0.000307779778004,0.926173889229,0.0,0.0,0.0,0.0,0.0,0.0,0.0,0.0,0.0,-0.000188288331776,-0.00681140583025,-0.000795665422322,0.0,0.0,0.0,0.0,0.0,0.0,0.0,0.0,0.0,6.65986976399,0.00946506130884,7.01062830488,0.0,0.0,0.0,0.0,0.0,0.0,0.0,0.0,0.0
26012000000,150,26012000000,imu_link,-0.00014827903565,-0.377110140934,-0.000309226868186,0.926168356184,0.0,0.0,0.0,0.0,0.0,0.0,0.0,0.0,0.0,-4.07422276564e-05,-0.00733560235299,-0.00076580945355,0.0,0.0,0.0,0.0,0.0,0.0,0.0,0.0,0.0,6.66164591518,0.00936460820322,7.01160241466,0.0,0.0,0.0,0.0,0.0,0.0,0.0,0.0,0.0
26016000000,151,26016000000,imu_link,-0.000147109218454,-0.377124168823,-0.000310469468349,0.926162644062,0.0,0.0,0.0,0.0,0.0,0.0,0.0,0.0,0.0,0.000309170679758,-0.00757286999212,-0.000797926630961,0.0,0.0,0.0,0.0,0.0,0.0,0.0,0.0,0.0,6.6627903643,0.00928766663007,7.00736882969,0.0,0.0,0.0,0.0,0.0,0.0,0.0,0.0,0.0
26020000000,152,26020000000,imu_link,-0.000144865111663,-0.377138087788,-0.000311471630221,0.926156976295,0.0,0.0,0.0,0.0,0.0,0.0,0.0,0.0,0.0,0.000851978024365,-0.00751391649959,-0.000889139537127,0.0,0.0,0.0,0.0,0.0,0.0,0.0,0.0,0.0,6.66467804219,0.00923999350158,7.00424925446,0.0,0.0,0.0,0.0,0.0,0.0,0.0,0.0,0.0
26024000000,153,26024000000,imu_link,-0.000141325473641,-0.377151725918,-0.000312229277003,0.92615142292,0.0,0.0,0.0,0.0,0.0,0.0,0.0,0.0,0.0,0.00149798319499,-0.00736211291276,-0.00102016878791,0.0,0.0,0.0,0.0,0.0,0.0,0.0,0.0,0.0,6.66362386716,0.00929177359112,6.99938182097,0.0,0.0,0.0,0.0,0.0,0.0,0.0,0.0,0.0
26028000000,154,26028000000,imu_link,-0.000136597258171,-0.377164926632,-0.000312777323789,0.926146047678,0.0,0.0,0.0,0.0,0.0,0.0,0.0,0.0,0.0,0.00208785434253,-0.00712579429883,-0.00114718642052,0.0,0.0,0.0,0.0,0.0,0.0,0.0,0.0,0.0,6.66274240504,0.00942551778727,6.99502284617,0.0,0.0,0.0,0.0,0.0,0.0,0.0,0.0,0.0
26032000000,155,26032000000,imu_link,-0.000131032973231,-0.377177466599,-0.000313193134635,0.92614094145,0.0,0.0,0.0,0.0,0.0,0.0,0.0,0.0,0.0,0.00249986797973,-0.00676896698189,-0.00124353236542,0.0,0.0,0.0,0.0,0.0,0.0,0.0,0.0,0.0,6.66433080843,0.00959097626698,6.99468619988,0.0,0.0,0.0,0.0,0.0,0.0,0.0,0.0,0.0
26036000000,156,26036000000,imu_link,-0.000125189434361,-0.377189201197,-0.000313580005737,0.926136163043,0.0,0.0,0.0,0.0,0.0,0.0,0.0,0.0,0.0,0.00263453529767,-0.00633415912189,-0.0012826912689,0.0,0.0,0.0,0.0,0.0,0.0,0.0,0.0,0.0,6.66623206196,0.00973805797566,6.99577344424,0.0,0.0,0.0,0.0,0.0,0.0,0.0,0.0,0.0
26040000000,157,26040000000,imu_link,-0.000119413251248,-0.377200046996,-0.00031397168967,0.92613174641,0.0,0.0,0.0,0.0,0.0,0.0,0.0,0.0,0.0,0.00260232061273,-0.0058543663318,-0.00127210464816,0.0,0.0,0.0,0.0,0.0,0.0,0.0,0.0,0.0,6.66561901693,0.00974700005466,6.99257732878,0.0,0.0,0.0,0.0,0.0,0.0,0.0,0.0,0.0
26044000000,158,26044000000,imu_link,-0.000113929413798,-0.377210262106,-0.000314386614801,0.926127586428,0.0,0.0,0.0,0.0,0.0,0.0,0.0,0.0,0.0,0.00246247833725,-0.00551395568458,-0.00122765250815,0.0,0.0,0.0,0.0,0.0,0.0,0.0,0.0,0.0,6.66594634135,0.00968712464798,6.99405886557,0.0,0.0,0.0,0.0,0.0,0.0,0.0,0.0,0.0
26048000000,159,26048000000,imu_link,-0.00010876324457,-0.377220427911,-0.000314806631809,0.926123446325,0.0,0.0,0.0,0.0,0.0,0.0,0.0,0.0,0.0,0.00231441071341,-0.00548742494939,-0.00117009058157,0.0,0.0,0.0,0.0,0.0,0.0,0.0,0.0,0.0,6.66788114394,0.00961127443898,7.00152461885,0.0,0.0,0.0,0.0,0.0,0.0,0.0,0.0,0.0
26052000000,160,26052000000,imu_link,-0.000103867713293,-0.377231048864,-0.000315218710337,0.926119120644,0.0,0.0,0.0,0.0,0.0,0.0,0.0,0.0,0.0,0.00219064746498,-0.00573323136504,-0.00111542345638,0.0,0.0,0.0,0.0,0.0,0.0,0.0,0.0,0.0,6.66799674602,0.00954060708596,7.0047362108,0.0,0.0,0.0,0.0,0.0,0.0,0.0,0.0,0.0
26056000000,161,26056000000,imu_link,-9.92881350109e-05,-0.377242391135,-0.000315640604062,0.926114500936,0.0,0.0,0.0,0.0,0.0,0.0,0.0,0.0,0.0,0.00204258952865,-0.00612275181787,-0.0010604586395,0.0,0.0,0.0,0.0,0.0,0.0,0.0,0.0,0.0,6.66756846455,0.0094786331771,7.00457001372,0.0,0.0,0.0,0.0,0.0,0.0,0.0,0.0,0.0
26060000000,162,26060000000,imu_link,-9.50467836217e-05,-0.377254425394,-0.000316083320364,0.926109599118,0.0,0.0,0.0,0.0,0.0,0.0,0.0,0.0,0.0,0.00188213873882,-0.00649644639026,-0.00100638279925,0.0,0.0,0.0,0.0,0.0,0.0,0.0,0.0,0.0,6.66695439914,0.00937450468119,7.00146941304,0.0,0.0,0.0,0.0,0.0,0.0,0.0,0.0,0.0
26064000000,163,26064000000,imu_link,-9.11556379201e-05,-0.377266885277,-0.000316552385644,0.926104523668,0.0,0.0,0.0,0.0,0.0,0.0,0.0,0.0,0.0,0.00171506319483,-0.00672633936112,-0.000952573165463,0.0,0.0,0.0,0.0,0.0,0.0,0.0,0.0,0.0,6.66701109331,0.00923749920866,6.99763680877,0.0,0.0,0.0,0.0,0.0,0.0,0.0,0.0,0.0
26068000000,164,26068000000,imu_link,-8.76729399423e-05,-0.377279252058,-0.000317071799556,0.926099485879,0.0,0.0,0.0,0.0,0.0,0.0,0.0,0.0,0.0,0.00151642009729,-0.00667618660289,-0.000898830109147,0.0,0.0,0.0,0.0,0.0,0.0,0.0,0.0,0.0,6.66745267668,0.0090912712883,6.99221404959,0.0,0.0,0.0,0.0,0.0,0.0,0.0,0.0,0.0
26072000000,165,26072000000,imu_link,-8.43704919616e-05,-0.377291026014,-0.000317627837541,0.926094689372,0.0,0.0,0.0,0.0,0.0,0.0,0.0,0.0,0.0,0.00142596322382,-0.00635619056924,-0.000881722345397,0.0,0.0,0.0,0.0,0.0,0.0,0.0,0.0,0.0,6.6688351838,0.00891954281502,6.9889071431,0.0,0.0,0.0,0.0,0.0,0.0,0.0,0.0,0.0
26076000000,166,26076000000,imu_link,-8.08793264369e-05,-0.377302059623,-0.000318171763868,0.926090194328,0.0,0.0,0.0,0.0,0.0,0.0,0.0,0.0,0.0,0.00151552833132,-0.00595647581522,-0.000911635683939,0.0,0.0,0.0,0.0,0.0,0.0,0.0,0.0,0.0,6.66879860315,0.0087667788143,6.98625150068,0.0,0.0,0.0,0.0,0.0,0.0,0.0,0.0,0.0
26080000000,167,26080000000,imu_link,-7.67993789333e-05,-0.377312639473,-0.000318620551497,0.926085884072,0.0,0.0,0.0,0.0,0.0,0.0,0.0,0.0,0.0,0.00180604423933,-0.00571141466354,-0.000978608756171,0.0,0.0,0.0,0.0,0.0,0.0,0.0,0.0,0.0,6.66896412401,0.00867319761544,6.98788366334,0.0,0.0,0.0,0.0,0.0,0.0,0.0,0.0,0.0
26084000000,168,26084000000,imu_link,-7.20077060716e-05,-0.377322922809,-0.000318954024139,0.926081694564,0.0,0.0,0.0,0.0,0.0,0.0,0.0,0.0,0.0,0.00215731594337,-0.00555122736306,-0.0010594538292,0.0,0.0,0.0,0.0,0.0,0.0,0.0,0.0,0.0,6.66921632822,0.00867129222151,6.98840443191,0.0,0.0,0.0,0.0,0.0,0.0,0.0,0.0,0.0
26088000000,169,26088000000,imu_link,-6.68235807034e-05,-0.37733311684,-0.0003192139773,0.926077541339,0.0,0.0,0.0,0.0,0.0,0.0,0.0,0.0,0.0,0.00235289484125,-0.0055029698242,-0.00109944296846,0.0,0.0,0.0,0.0,0.0,0.0,0.0,0.0,0.0,6.66879503914,0.00875047421869,6.98797413681,0.0,0.0,0.0,0.0,0.0,0.0,0.0,0.0,0.0
26092000000,170,26092000000,imu_link,-6.17995993743e-05,-0.377343328862,-0.000319431799095,0.926073380628,0.0,0.0,0.0,0.0,0.0,0.0,0.0,0.0,0.0,0.0022866933436,-0.00551274036387,-0.00104972248369,0.0,0.0,0.0,0.0,0.0,0.0,0.0,0.0,0.0,6.66982988146,0.00885930491187,6.989668326,0.0,0.0,0.0,0.0,0.0,0.0,0.0,0.0,0.0
26096000000,171,26096000000,imu_link,-5.73240959728e-05,-0.377353648923,-0.000319629284896,0.926069175707,0.0,0.0,0.0,0.0,0.0,0.0,0.0,0.0,0.0,0.00203658065447,-0.00557119535846,-0.00093683432834,0.0,0.0,0.0,0.0,0.0,0.0,0.0,0.0,0.0,6.67047507379,0.00887096548251,6.99031645988,0.0,0.0,0.0,0.0,0.0,0.0,0.0,0.0,0.0
26100000000,172,26100000000,imu_link,-5.34616335397e-05,-0.377364097745,-0.000319802387826,0.926064918136,0.0,0.0,0.0,0.0,0.0,0.0,0.0,0.0,0.0,0.00175734103377,-0.00564084874005,-0.000809889697339,0.0,0.0,0.0,0.0,0.0,0.0,0.0,0.0,0.0,6.66975776032,0.0087780875939,6.98766028795,0.0,0.0,0.0,0.0,0.0,0.0,0.0,0.0,0.0
26104000000,173,26104000000,imu_link,-5.00694909185e-05,-0.377374665715,-0.00031995243942,0.926060611839,0.0,0.0,0.0,0.0,0.0,0.0,0.0,0.0,0.0,0.00154393481759,-0.00570528767963,-0.000710486250702,0.0,0.0,0.0,0.0,0.0,0.0,0.0,0.0,0.0,6.6693456561,0.00864536279511,6.98506496277,0.0,0.0,0.0,0.0,0.0,0.0,0.0,0.0,0.0
26108000000,174,26108000000,imu_link,-4.70020669082e-05,-0.377385309934,-0.000320119896055,0.926056274294,0.0,0.0,0.0,0.0,0.0,0.0,0.0,0.0,0.0,0.00139030756472,-0.00574654058913,-0.000657281931421,0.0,0.0,0.0,0.0,0.0,0.0,0.0,0.0,0.0,6.67029339473,0.00848444282669,6.98521203918,0.0,0.0,0.0,0.0,0.0,0.0,0.0,0.0,0.0
26112000000,175,26112000000,imu_link,-4.41508979415e-05,-0.377396000678,-0.000320337800437,0.926051917609,0.0,0.0,0.0,0.0,0.0,0.0,0.0,0.0,0.0,0.00128066327233,-0.00577172835897,-0.000639839076761,0.0,0.0,0.0,0.0,0.0,0.0,0.0,0.0,0.0,6.67094106562,0.00830954239582,6.98489820997,0.0,0.0,0.0,0.0,0.0,0.0,0.0,0.0,0.0
26116000000,176,26116000000,imu_link,-4.12858079599e-05,-0.377406705123,-0.000320595667281,0.926047555173,0.0,0.0,0.0,0.0,0.0,0.0,0.0,0.0,0.0,0.00127957029464,-0.00577915423137,-0.000660970824648,0.0,0.0,0.0,0.0,0.0,0.0,0.0,0.0,0.0,6.67088748226,0.00816067447804,6.9830936464,0.0,0.0,0.0,0.0,0.0,0.0,0.0,0.0,0.0
26120000000,177,26120000000,imu_link,-3.8140436544e-05,-0.377417331602,-0.000320864883265,0.926043224368,0.0,0.0,0.0,0.0,0.0,0.0,0.0,0.0,0.0,0.00140719379741,-0.00573704052105,-0.000719109113648,0.0,0.0,0.0,0.0,0.0,0.0,0.0,0.0,0.0,6.67058015463,0.00804606849157,6.98027815493,0.0,0.0,0.0,0.0,0.0,0.0,0.0,0.0,0.0
26124000000,178,26124000000,imu_link,-3.46867079589e-05,-0.37742786112,-0.000321137528186,0.926038932938,0.0,0.0,0.0,0.0,0.0,0.0,0.0,0.0,0.0,0.00154930795615,-0.00568466494668,-0.000778878288831,0.0,0.0,0.0,0.0,0.0,0.0,0.0,0.0,0.0,6.67066464409,0.00802749079731,6.97876860365,0.0,0.0,0.0,0.0,0.0,0.0,0.0,0.0,0.0
26128000000,179,26128000000,imu_link,-3.11444864248e-05,-0.377438444079,-0.000321429788148,0.926034619571,0.0,0.0,0.0,0.0,0.0,0.0,0.0,0.0,0.0,0.00158658848306,-0.00571353443452,-0.000804664736522,0.0,0.0,0.0,0.0,0.0,0.0,0.0,0.0,0.0,6.67073690323,0.00805888177931,6.97878465207,0.0,0.0,0.0,0.0,0.0,0.0,0.0,0.0,0.0
26132000000,180,26132000000,imu_link,-2.78761055678e-05,-0.377449278129,-0.000321784251359,0.926030203674,0.0,0.0,0.0,0.0,0.0,0.0,0.0,0.0,0.0,0.00144809531842,-0.00584918671633,-0.000781807305605,0.0,0.0,0.0,0.0,0.0,0.0,0.0,0.0,0.0,6.67271000648,0.0080715855609,6.98269247922,0.0,0.0,0.0,0.0,0.0,0.0,0.0,0.0,0.0
26136000000,181,26136000000,imu_link,-2.49710511301e-05,-0.377460346853,-0.000322201477111,0.926025691931,0.0,0.0,0.0,0.0,0.0,0.0,0.0,0.0,0.0,0.00126806128249,-0.00597599007432,-0.000742317354773,0.0,0.0,0.0,0.0,0.0,0.0,0.0,0.0,0.0,6.67353841653,0.00799749744168,6.98226353249,0.0,0.0,0.0,0.0,0.0,0.0,0.0,0.0,0.0
26140000000,182,26140000000,imu_link,-2.20638249233e-05,-0.37747148354,-0.000322645133149,0.926021152311,0.0,0.0,0.0,0.0,0.0,0.0,0.0,0.0,0.0,0.00126408924787,-0.00601271848388,-0.000754970134769,0.0,0.0,0.0,0.0,0.0,0.0,0.0,0.0,0.0,6.67392181757,0.00787239762526,6.98002823702,0.0,0.0,0.0,0.0,0.0,0.0,0.0,0.0,0.0
26144000000,183,26144000000,imu_link,-1.85406336076e-05,-0.377482528281,-0.000323036405712,0.926016650037,0.0,0.0,0.0,0.0,0.0,0.0,0.0,0.0,0.0,0.00155915982102,-0.00596299947702,-0.000846963624282,0.0,0.0,0.0,0.0,0.0,0.0,0.0,0.0,0.0,6.67590485891,0.00778521713928,6.98075250736,0.0,0.0,0.0,0.0,0.0,0.0,0.0,0.0,0.0
26148000000,184,26148000000,imu_link,-1.39361190274e-05,-0.377493386587,-0.000323354079396,0.92601222364,0.0,0.0,0.0,0.0,0.0,0.0,0.0,0.0,0.0,0.00207368323074,-0.00586218321506,-0.00101696306671,0.0,0.0,0.0,0.0,0.0,0.0,0.0,0.0,0.0,6.6768296031,0.00781188039949,6.98043342453,0.0,0.0,0.0,0.0,0.0,0.0,0.0,0.0,0.0
26152000000,185,26152000000,imu_link,-8.15901873259e-06,-0.377504007645,-0.000323601639966,0.926007893826,0.0,0.0,0.0,0.0,0.0,0.0,0.0,0.0,0.0,0.00262979351705,-0.00573391685072,-0.00120580467423,0.0,0.0,0.0,0.0,0.0,0.0,0.0,0.0,0.0,6.67776761809,0.00790733219217,6.98040810315,0.0,0.0,0.0,0.0,0.0,0.0,0.0,0.0,0.0
26156000000,186,26156000000,imu_link,-1.40816533296e-06,-0.377514302191,-0.000323800673228,0.926003696965,0.0,0.0,0.0,0.0,0.0,0.0,0.0,0.0,0.0,0.00308975238707,-0.00555748809507,-0.00136711134496,0.0,0.0,0.0,0.0,0.0,0.0,0.0,0.0,0.0,6.67743090117,0.00802185038587,6.97761740839,0.0,0.0,0.0,0.0,0.0,0.0,0.0,0.0,0.0
26160000000,187,26160000000,imu_link,6.15191655607e-06,-0.377524199862,-0.0003239687251,0.92599966173,0.0,0.0,0.0,0.0,0.0,0.0,0.0,0.0,0.0,0.00347021049219,-0.00534309544532,-0.00150548812157,0.0,0.0,0.0,0.0,0.0,0.0,0.0,0.0,0.0,6.6771967453,0.00810157891427,6.97514823518,0.0,0.0,0.0,0.0,0.0,0.0,0.0,0.0,0.0
26164000000,188,26164000000,imu_link,1.43838213805e-05,-0.377533646369,-0.000324121579144,0.925995810249,0.0,0.0,0.0,0.0,0.0,0.0,0.0,0.0,0.0,0.00378405952489,-0.00509941181321,-0.00162523786016,0.0,0.0,0.0,0.0,0.0,0.0,0.0,0.0,0.0,6.6769574062,0.00815606580959,6.97302784429,0.0,0.0,0.0,0.0,0.0,0.0,0.0,0.0,0.0
26168000000,189,26168000000,imu_link,2.33273504961e-05,-0.377542844054,-0.000324220369076,0.925992060031,0.0,0.0,0.0,0.0,0.0,0.0,0.0,0.0,0.0,0.00412370453896,-0.00496497695984,-0.00173452272541,0.0,0.0,0.0,0.0,0.0,0.0,0.0,0.0,0.0,6.67726256146,0.00817578232131,6.9741518344,0.0,0.0,0.0,0.0,0.0,0.0,0.0,0.0,0.0
26172000000,190,26172000000,imu_link,3.29854946787e-05,-0.377552167279,-0.000324176348209,0.925988258459,0.0,0.0,0.0,0.0,0.0,0.0,0.0,0.0,0.0,0.00448154802606,-0.00503267810214,-0.00180330765534,0.0,0.0,0.0,0.0,0.0,0.0,0.0,0.0,0.0,6.67928456035,0.00821298985053,6.97993942588,0.0,0.0,0.0,0.0,0.0,0.0,0.0,0.0,0.0
26176000000,191,26176000000,imu_link,4.30188535156e-05,-0.377561917797,-0.000323982944328,0.925984282487,0.0,0.0,0.0,0.0,0.0,0.0,0.0,0.0,0.0,0.00468354228404,-0.00526337178874,-0.00180499697109,0.0,0.0,0.0,0.0,0.0,0.0,0.0,0.0,0.0,6.68072297191,0.00829613834886,6.98393117493,0.0,0.0,0.0,0.0,0.0,0.0,0.0,0.0,0.0
26180000000,192,26180000000,imu_link,5.28969687277e-05,-0.377572192467,-0.000323664161303,0.925980092615,0.0,0.0,0.0,0.0,0.0,0.0,0.0,0.0,0.0,0.00463542440968,-0.00554645219409,-0.00171766374804,0.0,0.0,0.0,0.0,0.0,0.0,0.0,0.0,0.0,6.68172022937,0.00836211004843,6.98535284288,0.0,0.0,0.0,0.0,0.0,0.0,0.0,0.0,0.0
26184000000,193,26184000000,imu_link,6.23362466983e-05,-0.377582737045,-0.000323247302219,0.925975792508,0.0,0.0,0.0,0.0,0.0,0.0,0.0,0.0,0.0,0.00445080912683,-0.00569229655841,-0.00158941983976,0.0,0.0,0.0,0.0,0.0,0.0,0.0,0.0,0.0,6.68235321889,0.00832856128011,6.98258213981,0.0,0.0,0.0,0.0,0.0,0.0,0.0,0.0,0.0
26188000000,194,26188000000,imu_link,7.13667653779e-05,-0.377593159454,-0.000322735024146,0.925971542048,0.0,0.0,0.0,0.0,0.0,0.0,0.0,0.0,0.0,0.00427955151108,-0.00562642382253,-0.00146806756083,0.0,0.0,0.0,0.0,0.0,0.0,0.0,0.0,0.0,6.68394680653,0.00821448868972,6.98015314548,0.0,0.0,0.0,0.0,0.0,0.0,0.0,0.0,0.0
26192000000,195,26192000000,imu_link,8.02560558636e-05,-0.377603421074,-0.000322093423644,0.925967356989,0.0,0.0,0.0,0.0,0.0,0.0,0.0,0.0,0.0,0.00423855221916,-0.00553965149202,-0.00138152490052,0.0,0.0,0.0,0.0,0.0,0.0,0.0,0.0,0.0,6.68468603063,0.00807806361239,6.97959492193,0.0,0.0,0.0,0.0,0.0,0.0,0.0,0.0,0.0
26196000000,196,26196000000,imu_link,8.94167934037e-05,-0.377613714417,-0.000321287083205,0.925963158805,0.0,0.0,0.0,0.0,0.0,0.0,0.0,0.0,0.0,0.00439533659253,-0.0055567665896,-0.00135650350709,0.0,0.0,0.0,0.0,0.0,0.0,0.0,0.0,0.0,6.68595607065,0.00794373155934,6.9822148986,0.0,0.0,0.0,0.0,0.0,0.0,0.0,0.0,0.0
26200000000,197,26200000000,imu_link,9.91244005422e-05,-0.377624285024,-0.000320314821582,0.925958847321,0.0,0.0,0.0,0.0,0.0,0.0,0.0,0.0,0.0,0.0046799038065,-0.00570643116294,-0.00138294359021,0.0,0.0,0.0,0.0,0.0,0.0,0.0,0.0,0.0,6.68727755583,0.00784378756613,6.98564676811,0.0,0.0,0.0,0.0,0.0,0.0,0.0,0.0,0.0
26204000000,198,26204000000,imu_link,0.000109387062944,-0.377635088226,-0.000319178131839,0.925954440726,0.0,0.0,0.0,0.0,0.0,0.0,0.0,0.0,0.0,0.00496797096379,-0.00583197878509,-0.00141162163239,0.0,0.0,0.0,0.0,0.0,0.0,0.0,0.0,0.0,6.68736034246,0.00777649216586,6.983968373,0.0,0.0,0.0,0.0,0.0,0.0,0.0,0.0,0.0
26208000000,199,26208000000,imu_link,0.000119955105308,-0.377645900603,-0.000317909382779,0.925950030132,0.0,0.0,0.0,0.0,0.0,0.0,0.0,0.0,0.0,0.00513429172884,-0.00583692595496,-0.00140814240759,0.0,0.0,0.0,0.0,0.0,0.0,0.0,0.0,0.0,6.68763751845,0.0077856308111,6.98121538826,0.0,0.0,0.0,0.0,0.0,0.0,0.0,0.0,0.0
26212000000,200,26212000000,imu_link,0.000130116904162,-0.377656531248,-0.000316579053492,0.925945693469,0.0,0.0,0.0,0.0,0.0,0.0,0.0,0.0,0.0,0.00495780557243,-0.00573888964594,-0.00130292335155,0.0,0.0,0.0,0.0,0.0,0.0,0.0,0.0,0.0,6.68937905834,0.00785439213537,6.98165202755,0.0,0.0,0.0,0.0,0.0,0.0,0.0,0.0,0.0
26216000000,201,26216000000,imu_link,0.000139124446853,-0.377667077654,-0.000315253286862,0.925941391081,0.0,0.0,0.0,0.0,0.0,0.0,0.0,0.0,0.0,0.00442253918754,-0.0056935998905,-0.00108707960326,0.0,0.0,0.0,0.0,0.0,0.0,0.0,0.0,0.0,6.69074853065,0.00783366225889,6.98417782663,0.0,0.0,0.0,0.0,0.0,0.0,0.0,0.0,0.0
26220000000,202,26220000000,imu_link,0.00014664209532,-0.377677705767,-0.000313970813663,0.925937055358,0.0,0.0,0.0,0.0,0.0,0.0,0.0,0.0,0.0,0.00372460176902,-0.0057379606388,-0.000825780764998,0.0,0.0,0.0,0.0,0.0,0.0,0.0,0.0,0.0,6.69111044194,0.00763683158699,6.98501162406,0.0,0.0,0.0,0.0,0.0,0.0,0.0,0.0,0.0
26224000000,203,26224000000,imu_link,0.000152786256527,-0.377688434244,-0.00031274080352,0.925932678702,0.0,0.0,0.0,0.0,0.0,0.0,0.0,0.0,0.0,0.00307883208756,-0.00579237503055,-0.000590700817359,0.0,0.0,0.0,0.0,0.0,0.0,0.0,0.0,0.0,6.69076805403,0.00730846167395,6.9829827771,0.0,0.0,0.0,0.0,0.0,0.0,0.0,0.0,0.0
26228000000,204,26228000000,imu_link,0.000157980224364,-0.377699287804,-0.000311524439492,0.925928250993,0.0,0.0,0.0,0.0,0.0,0.0,0.0,0.0,0.0,0.00263637101139,-0.0058600753372,-0.000417578413642,0.0,0.0,0.0,0.0,0.0,0.0,0.0,0.0,0.0,6.69154015082,0.00698089738906,6.98313979711,0.0,0.0,0.0,0.0,0.0,0.0,0.0,0.0,0.0
26232000000,205,26232000000,imu_link,0.000162806512181,-0.377710431468,-0.000310211124725,0.925923704861,0.0,0.0,0.0,0.0,0.0,0.0,0.0,0.0,0.0,0.00248451200604,-0.00601679639642,-0.000303252989516,0.0,0.0,0.0,0.0,0.0,0.0,0.0,0.0,0.0,6.69328503417,0.00669852728427,6.98622838586,0.0,0.0,0.0,0.0,0.0,0.0,0.0,0.0,0.0
26236000000,206,26236000000,imu_link,0.000167789409651,-0.377722086541,-0.000308686635108,0.925918949962,0.0,0.0,0.0,0.0,0.0,0.0,0.0,0.0,0.0,0.0025969940898,-0.00629294454934,-0.000235054390178,0.0,0.0,0.0,0.0,0.0,0.0,0.0,0.0,0.0,6.6952506514,0.00652586437198,6.99019088174,0.0,0.0,0.0,0.0,0.0,0.0,0.0,0.0,0.0
26240000000,207,26240000000,imu_link,0.000173259622448,-0.377734324405,-0.00030689521065,0.925913957106,0.0,0.0,0.0,0.0,0.0,0.0,0.0,0.0,0.0,0.00287312484358,-0.00660759656165,-0.000203497091073,0.0,0.0,0.0,0.0,0.0,0.0,0.0,0.0,0.0,6.69560499084,0.00647084121881,6.98989187478,0.0,0.0,0.0,0.0,0.0,0.0,0.0,0.0,0.0
26244000000,208,26244000000,imu_link,0.000179575952267,-0.377747019051,-0.00030482428932,0.925908777598,0.0,0.0,0.0,0.0,0.0,0.0,0.0,0.0,0.0,0.00331771466637,-0.00685416515288,-0.00023389485513,0.0,0.0,0.0,0.0,0.0,0.0,0.0,0.0,0.0,6.69590306652,0.00641122254133,6.98818657281,0.0,0.0,0.0,0.0,0.0,0.0,0.0,0.0,0.0
26248000000,209,26248000000,imu_link,0.000186852249219,-0.377760010459,-0.000302477057068,0.925903476661,0.0,0.0,0.0,0.0,0.0,0.0,0.0,0.0,0.0,0.0038143796106,-0.00701431622327,-0.00028727972412,0.0,0.0,0.0,0.0,0.0,0.0,0.0,0.0,0.0,6.69512000894,0.00637673998403,6.98389858822,0.0,0.0,0.0,0.0,0.0,0.0,0.0,0.0,0.0
26252000000,210,26252000000,imu_link,0.000195168851772,-0.377772999956,-0.00029987039346,0.925898176092,0.0,0.0,0.0,0.0,0.0,0.0,0.0,0.0,0.0,0.00434499196954,-0.00701318069969,-0.000363668577098,0.0,0.0,0.0,0.0,0.0,0.0,0.0,0.0,0.0,6.69640470942,0.00639112188331,6.98251083121,0.0,0.0,0.0,0.0,0.0,0.0,0.0,0.0,0.0
26256000000,211,26256000000,imu_link,0.000204404539114,-0.377785649335,-0.000297037979235,0.925893013876,0.0,0.0,0.0,0.0,0.0,0.0,0.0,0.0,0.0,0.00481305818172,-0.00682943032042,-0.000432772689662,0.0,0.0,0.0,0.0,0.0,0.0,0.0,0.0,0.0,6.6968771708,0.00646432437051,6.97910771003,0.0,0.0,0.0,0.0,0.0,0.0,0.0,0.0,0.0
26260000000,212,26260000000,imu_link,0.000214221514693,-0.377797656315,-0.00029404878638,0.925888113396,0.0,0.0,0.0,0.0,0.0,0.0,0.0,0.0,0.0,0.00511165574037,-0.00648249138863,-0.000470020529891,0.0,0.0,0.0,0.0,0.0,0.0,0.0,0.0,0.0,6.6984119204,0.00657165402857,6.97824219718,0.0,0.0,0.0,0.0,0.0,0.0,0.0,0.0,0.0
26264000000,213,26264000000,imu_link,0.000224037431916,-0.377808915217,-0.000290984285436,0.925883517899,0.0,0.0,0.0,0.0,0.0,0.0,0.0,0.0,0.0,0.00512524873754,-0.00607855419997,-0.000434992462547,0.0,0.0,0.0,0.0,0.0,0.0,0.0,0.0,0.0,6.69976443827,0.00667537524705,6.97881243766,0.0,0.0,0.0,0.0,0.0,0.0,0.0,0.0,0.0
26268000000,214,26268000000,imu_link,0.000233099330704,-0.377819393647,-0.000287943568774,0.925879240796,0.0,0.0,0.0,0.0,0.0,0.0,0.0,0.0,0.0,0.00477153994145,-0.0056572073232,-0.000303606860138,0.0,0.0,0.0,0.0,0.0,0.0,0.0,0.0,0.0,6.70236156711,0.00670817326476,6.98216518503,0.0,0.0,0.0,0.0,0.0,0.0,0.0,0.0,0.0
26272000000,215,26272000000,imu_link,0.000240604237148,-0.377829244052,-0.00028502967966,0.925875220106,0.0,0.0,0.0,0.0,0.0,0.0,0.0,0.0,0.0,0.00402666724025,-0.00531827030808,-6.82256853604e-05,0.0,0.0,0.0,0.0,0.0,0.0,0.0,0.0,0.0,6.70423504657,0.00664865631731,6.98604971426,0.0,0.0,0.0,0.0,0.0,0.0,0.0,0.0,0.0
26276000000,216,26276000000,imu_link,0.000246335446535,-0.377838665116,-0.00028224991981,0.925871374867,0.0,0.0,0.0,0.0,0.0,0.0,0.0,0.0,0.0,0.00318013488977,-0.0050866354904,0.000204731496826,0.0,0.0,0.0,0.0,0.0,0.0,0.0,0.0,0.0,6.70429650954,0.0064105301758,6.98688490853,0.0,0.0,0.0,0.0,0.0,0.0,0.0,0.0,0.0
26280000000,217,26280000000,imu_link,0.000250638373861,-0.377847767701,-0.000279536889446,0.925867659811,0.0,0.0,0.0,0.0,0.0,0.0,0.0,0.0,0.0,0.00250626468232,-0.00491481585614,0.000443649275408,0.0,0.0,0.0,0.0,0.0,0.0,0.0,0.0,0.0,6.70399364585,0.00605317666346,6.98617746464,0.0,0.0,0.0,0.0,0.0,0.0,0.0,0.0,0.0
26284000000,218,26284000000,imu_link,0.000254130015205,-0.377856616485,-0.000276850313405,0.925864048416,0.0,0.0,0.0,0.0,0.0,0.0,0.0,0.0,0.0,0.00212564663813,-0.0047778556251,0.000584656655893,0.0,0.0,0.0,0.0,0.0,0.0,0.0,0.0,0.0,6.70457946473,0.00571965692608,6.98666736397,0.0,0.0,0.0,0.0,0.0,0.0,0.0,0.0,0.0
26288000000,219,26288000000,imu_link,0.000257211303303,-0.377865118694,-0.000274188969072,0.925860578455,0.0,0.0,0.0,0.0,0.0,0.0,0.0,0.0,0.0,0.00193084804899,-0.00459075366877,0.000650478974593,0.0,0.0,0.0,0.0,0.0,0.0,0.0,0.0,0.0,6.70459601587,0.00546712204383,6.98476328739,0.0,0.0,0.0,0.0,0.0,0.0,0.0,0.0,0.0
26292000000,220,26292000000,imu_link,0.000259766481629,-0.377873150203,-0.000271629999133,0.925857300611,0.0,0.0,0.0,0.0,0.0,0.0,0.0,0.0,0.0,0.00166786480608,-0.00433664120142,0.000702451836613,0.0,0.0,0.0,0.0,0.0,0.0,0.0,0.0,0.0,6.70560776173,0.00533737016805,6.98441830296,0.0,0.0,0.0,0.0,0.0,0.0,0.0,0.0,0.0
26296000000,221,26296000000,imu_link,0.000261568126372,-0.377880407773,-0.000269225422604,0.925854338717,0.0,0.0,0.0,0.0,0.0,0.0,0.0,0.0,0.0,0.00128971581058,-0.00391878985016,0.000773291146894,0.0,0.0,0.0,0.0,0.0,0.0,0.0,0.0,0.0,6.70575043795,0.00519156827189,6.98086350779,0.0,0.0,0.0,0.0,0.0,0.0,0.0,0.0,0.0
26300000000,222,26300000000,imu_link,0.000262324267304,-0.377886772357,-0.000267002235616,0.925851741465,0.0,0.0,0.0,0.0,0.0,0.0,0.0,0.0,0.0,0.000771284017426,-0.00343667214954,0.000886791000395,0.0,0.0,0.0,0.0,0.0,0.0,0.0,0.0,0.0,6.70556012606,0.00505167150125,6.97867405365,0.0,0.0,0.0,0.0,0.0,0.0,0.0,0.0,0.0
26304000000,223,26304000000,imu_link,0.000261825876183,-0.377892257312,-0.000264920295063,0.925849503498,0.0,0.0,0.0,0.0,0.0,0.0,0.0,0.0,0.0,0.000163676538208,-0.00296176984533,0.00105837249674,0.0,0.0,0.0,0.0,0.0,0.0,0.0,0.0,0.0,6.70611816982,0.00488374174627,6.97896797464,0.0,0.0,0.0,0.0,0.0,0.0,0.0,0.0,0.0
26308000000,224,26308000000,imu_link,0.000260213330897,-0.377897265186,-0.000262904791811,0.925847460511,0.0,0.0,0.0,0.0,0.0,0.0,0.0,0.0,0.0,-0.000364734792332,-0.00270423295629,0.0012380955129,0.0,0.0,0.0,0.0,0.0,0.0,0.0,0.0,0.0,6.70662157724,0.00464000878499,6.98236970124,0.0,0.0,0.0,0.0,0.0,0.0,0.0,0.0,0.0
26312000000,225,26312000000,imu_link,0.000257836668241,-0.377902280382,-0.000260931702919,0.925845414698,0.0,0.0,0.0,0.0,0.0,0.0,0.0,0.0,0.0,-0.000726475660524,-0.00270826261888,0.00136284041261,0.0,0.0,0.0,0.0,0.0,0.0,0.0,0.0,0.0,6.70725343487,0.00437876911402,6.98657802567,0.0,0.0,0.0,0.0,0.0,0.0,0.0,0.0,0.0
26316000000,226,26316000000,imu_link,0.000255040109192,-0.377907775566,-0.00025901657347,0.925843173022,0.0,0.0,0.0,0.0,0.0,0.0,0.0,0.0,0.0,-0.000931718866381,-0.00296753063494,0.00141538589817,0.0,0.0,0.0,0.0,0.0,0.0,0.0,0.0,0.0,6.70885332428,0.00418070769597,6.99237718428,0.0,0.0,0.0,0.0,0.0,0.0,0.0,0.0,0.0
26320000000,227,26320000000,imu_link,0.000251912520304,-0.377913908433,-0.000257167673063,0.925840671076,0.0,0.0,0.0,0.0,0.0,0.0,0.0,0.0,0.0,-0.00109735818465,-0.0033119579933,0.00144732403021,0.0,0.0,0.0,0.0,0.0,0.0,0.0,0.0,0.0,6.70757000779,0.00412621575093,6.99016247687,0.0,0.0,0.0,0.0,0.0,0.0,0.0,0.0,0.0
26324000000,228,26324000000,imu_link,0.000248313566084,-0.377920677112,-0.000255408212049,0.925837909635,0.0,0.0,0.0,0.0,0.0,0.0,0.0,0.0,0.0,-0.00133234853732,-0.003655394055,0.00149503519185,0.0,0.0,0.0,0.0,0.0,0.0,0.0,0.0,0.0,6.70710938975,0.00414744201836,6.98784871683,0.0,0.0,0.0,0.0,0.0,0.0,0.0,0.0,0.0
26328000000,229,26328000000,imu_link,0.00024407710259,-0.377927912498,-0.000253773440514,0.925834957744,0.0,0.0,0.0,0.0,0.0,0.0,0.0,0.0,0.0,-0.00165094178423,-0.00390752566643,0.00155781165981,0.0,0.0,0.0,0.0,0.0,0.0,0.0,0.0,0.0,6.70774691559,0.0041461046203,6.98595959579,0.0,0.0,0.0,0.0,0.0,0.0,0.0,0.0,0.0
26332000000,230,26332000000,imu_link,0.000239426992871,-0.377935357125,-0.000252237758169,0.925831920429,0.0,0.0,0.0,0.0,0.0,0.0,0.0,0.0,0.0,-0.00186111316235,-0.00402059380462,0.00159012046592,0.0,0.0,0.0,0.0,0.0,0.0,0.0,0.0,0.0,6.70869037696,0.00405773421612,6.98383435947,0.0,0.0,0.0,0.0,0.0,0.0,0.0,0.0,0.0
26336000000,231,26336000000,imu_link,0.000234615889759,-0.377942657576,-0.000250760726734,0.9258289419,0.0,0.0,0.0,0.0,0.0,0.0,0.0,0.0,0.0,-0.00194674792068,-0.00394277076548,0.00159338272514,0.0,0.0,0.0,0.0,0.0,0.0,0.0,0.0,0.0,6.70981197905,0.0039549469332,6.98135870166,0.0,0.0,0.0,0.0,0.0,0.0,0.0,0.0,0.0
26340000000,232,26340000000,imu_link,0.00022987423127,-0.377949528845,-0.000249347802012,0.925826138446,0.0,0.0,0.0,0.0,0.0,0.0,0.0,0.0,0.0,-0.00192678967935,-0.00371101114302,0.00155055536179,0.0,0.0,0.0,0.0,0.0,0.0,0.0,0.0,0.0,6.71094826204,0.00387248808584,6.97974337158,0.0,0.0,0.0,0.0,0.0,0.0,0.0,0.0,0.0
26344000000,233,26344000000,imu_link,0.000225262107577,-0.377955992956,-0.000248095791417,0.925823501049,0.0,0.0,0.0,0.0,0.0,0.0,0.0,0.0,0.0,-0.00189730488631,-0.00349115413587,0.00145156120737,0.0,0.0,0.0,0.0,0.0,0.0,0.0,0.0,0.0,6.71308064252,0.0038741134029,6.98299497909,0.0,0.0,0.0,0.0,0.0,0.0,0.0,0.0,0.0
26348000000,234,26348000000,imu_link,0.000220706236709,-0.377962467567,-0.000247129042631,0.925820859198,0.0,0.0,0.0,0.0,0.0,0.0,0.0,0.0,0.0,-0.00192517119377,-0.00349688106384,0.00130888024796,0.0,0.0,0.0,0.0,0.0,0.0,0.0,0.0,0.0,6.71472281179,0.00391604482559,6.98884658274,0.0,0.0,0.0,0.0,0.0,0.0,0.0,0.0,0.0
26352000000,235,26352000000,imu_link,0.000216100107074,-0.377969484516,-0.000246520245734,0.925817995776,0.0,0.0,0.0,0.0,0.0,0.0,0.0,0.0,0.0,-0.00201599122612,-0.00378985395658,0.00115271101935,0.0,0.0,0.0,0.0,0.0,0.0,0.0,0.0,0.0,6.7137208972,0.00395629719306,6.99058724236,0.0,0.0,0.0,0.0,0.0,0.0,0.0,0.0,0.0
26356000000,236,26356000000,imu_link,0.000211494632324,-0.377977362448,-0.000246259375555,0.925814780668,0.0,0.0,0.0,0.0,0.0,0.0,0.0,0.0,0.0,-0.00208129679033,-0.00425491173764,0.000991578528252,0.0,0.0,0.0,0.0,0.0,0.0,0.0,0.0,0.0,6.71434183313,0.00395831421439,6.99311973626,0.0,0.0,0.0,0.0,0.0,0.0,0.0,0.0,0.0
26360000000,237,26360000000,imu_link,0.000207086482857,-0.377985955936,-0.000246308457334,0.925811273188,0.0,0.0,0.0,0.0,0.0,0.0,0.0,0.0,0.0,-0.00204841184665,-0.00464141073216,0.000810846899773,0.0,0.0,0.0,0.0,0.0,0.0,0.0,0.0,0.0,6.71341701372,0.00393382304551,6.98834556042,0.0,0.0,0.0,0.0,0.0,0.0,0.0,0.0,0.0
26364000000,238,26364000000,imu_link,0.000203016324693,-0.377994533623,-0.000246628964374,0.9258077719,0.0,0.0,0.0,0.0,0.0,0.0,0.0,0.0,0.0,-0.0019432538228,-0.0046329129992,0.000621323759656,0.0,0.0,0.0,0.0,0.0,0.0,0.0,0.0,0.0,6.71588916139,0.00399498436259,6.98455336927,0.0,0.0,0.0,0.0,0.0,0.0,0.0,0.0,0.0
26368000000,239,26368000000,imu_link,0.000199368943817,-0.378002485256,-0.000247172583839,0.925804525966,0.0,0.0,0.0,0.0,0.0,0.0,0.0,0.0,0.0,-0.00178981933365,-0.00429481949934,0.000438108338858,0.0,0.0,0.0,0.0,0.0,0.0,0.0,0.0,0.0,6.71632032682,0.00411449275007,6.97846294488,0.0,0.0,0.0,0.0,0.0,0.0,0.0,0.0,0.0
26372000000,240,26372000000,imu_link,0.000196134812052,-0.378009483928,-0.000247895913981,0.9258016689,0.0,0.0,0.0,0.0,0.0,0.0,0.0,0.0,0.0,-0.0016326474638,-0.0037801621269,0.000276768327752,0.0,0.0,0.0,0.0,0.0,0.0,0.0,0.0,0.0,6.71718610384,0.00424676937491,6.97623050387,0.0,0.0,0.0,0.0,0.0,0.0,0.0,0.0,0.0
26376000000,241,26376000000,imu_link,0.00019360395994,-0.378015910972,-0.000248713461916,0.925799044994,0.0,0.0,0.0,0.0,0.0,0.0,0.0,0.0,0.0,-0.00132500005249,-0.00347140828262,0.000100204484441,0.0,0.0,0.0,0.0,0.0,0.0,0.0,0.0,0.0,6.71794181837,0.00432506020114,6.98011593258,0.0,0.0,0.0,0.0,0.0,0.0,0.0,0.0,0.0
26380000000,242,26380000000,imu_link,0.000192069025819,-0.37802258685,-0.000249557338017,0.925796319209,0.0,0.0,0.0,0.0,0.0,0.0,0.0,0.0,0.0,-0.000868925516375,-0.00360572863546,-0.000100207815333,0.0,0.0,0.0,0.0,0.0,0.0,0.0,0.0,0.0,6.71946134359,0.00441244550501,6.98910578827,0.0,0.0,0.0,0.0,0.0,0.0,0.0,0.0,0.0
26384000000,243,26384000000,imu_link,0.000191811238148,-0.378030311699,-0.000250352723044,0.925793164788,0.0,0.0,0.0,0.0,0.0,0.0,0.0,0.0,0.0,-0.00026839936165,-0.00417214823158,-0.000319109236473,0.0,0.0,0.0,0.0,0.0,0.0,0.0,0.0,0.0,6.72024945612,0.00452420797812,6.99637604367,0.0,0.0,0.0,0.0,0.0,0.0,0.0,0.0,0.0
26388000000,244,26388000000,imu_link,0.00019294014357,-0.378039476103,-0.000251037265733,0.925789422202,0.0,0.0,0.0,0.0,0.0,0.0,0.0,0.0,0.0,0.000394683620673,-0.00494950095913,-0.000529842270881,0.0,0.0,0.0,0.0,0.0,0.0,0.0,0.0,0.0,6.71916493469,0.0047103633528,6.99651538699,0.0,0.0,0.0,0.0,0.0,0.0,0.0,0.0,0.0
26392000000,245,26392000000,imu_link,0.000195361518987,-0.37804987448,-0.00025158307941,0.925785175376,0.0,0.0,0.0,0.0,0.0,0.0,0.0,0.0,0.0,0.00101938719744,-0.00561583646893,-0.00070987193502,0.0,0.0,0.0,0.0,0.0,0.0,0.0,0.0,0.0,6.71937764236,0.00492676735324,6.99379709143,0.0,0.0,0.0,0.0,0.0,0.0,0.0,0.0,0.0
26396000000,246,26396000000,imu_link,0.0001988620819,-0.378060973025,-0.000252017191423,0.925780642278,0.0,0.0,0.0,0.0,0.0,0.0,0.0,0.0,0.0,0.00154016552877,-0.00599390468731,-0.000862127029346,0.0,0.0,0.0,0.0,0.0,0.0,0.0,0.0,0.0,6.72059900658,0.00514770889577,6.98988941007,0.0,0.0,0.0,0.0,0.0,0.0,0.0,0.0,0.0
26400000000,247,26400000000,imu_link,0.000203101096344,-0.378072302871,-0.000252384033874,0.925776014409,0.0,0.0,0.0,0.0,0.0,0.0,0.0,0.0,0.0,0.00189474216221,-0.00611878667631,-0.000970567395548,0.0,0.0,0.0,0.0,0.0,0.0,0.0,0.0,0.0,6.72019612541,0.00535362799773,6.98381428376,0.0,0.0,0.0,0.0,0.0,0.0,0.0,0.0,0.0
26404000000,248,26404000000,imu_link,0.000207761592513,-0.378083584718,-0.000252735159571,0.92577140587,0.0,0.0,0.0,0.0,0.0,0.0,0.0,0.0,0.0,0.00209280401299,-0.00609285992364,-0.00104297001681,0.0,0.0,0.0,0.0,0.0,0.0,0.0,0.0,0.0,6.71963864649,0.00548687617968,6.97909842682,0.0,0.0,0.0,0.0,0.0,0.0,0.0,0.0,0.0
26408000000,249,26408000000,imu_link,0.000212738202787,-0.378094597578,-0.000253108425867,0.925766906927,0.0,0.0,0.0,0.0,0.0,0.0,0.0,0.0,0.0,0.00223489783757,-0.005947593309,-0.00111299145392,0.0,0.0,0.0,0.0,0.0,0.0,0.0,0.0,0.0,6.71884758205,0.0055648070074,6.97461555867,0.0,0.0,0.0,0.0,0.0,0.0,0.0,0.0,0.0
26412000000,250,26412000000,imu_link,0.000218165388321,-0.378105044874,-0.000253525727844,0.925762638677,0.0,0.0,0.0,0.0,0.0,0.0,0.0,0.0,0.0,0.00243504073067,-0.00564213915192,-0.00121858584148,0.0,0.0,0.0,0.0,0.0,0.0,0.0,0.0,0.0,6.71866404619,0.00560359412515,6.9706759348,0.0,0.0,0.0,0.0,0.0,0.0,0.0,0.0,0.0
26416000000,251,26416000000,imu_link,0.000224209327186,-0.378114563381,-0.000253990150217,0.925758749447,0.0,0.0,0.0,0.0,0.0,0.0,0.0,0.0,0.0,0.00271145701564,-0.00514049232626,-0.0013570490337,0.0,0.0,0.0,0.0,0.0,0.0,0.0,0.0,0.0,6.71877568507,0.00566137489796,6.96663499044,0.0,0.0,0.0,0.0,0.0,0.0,0.0,0.0,0.0
26420000000,252,26420000000,imu_link,0.000230784278992,-0.378123000572,-0.00025451911244,0.925755301577,0.0,0.0,0.0,0.0,0.0,0.0,0.0,0.0,0.0,0.00294486342497,-0.00455647094794,-0.0014873802332,0.0,0.0,0.0,0.0,0.0,0.0,0.0,0.0,0.0,6.71801276517,0.00578511397857,6.96291307044,0.0,0.0,0.0,0.0,0.0,0.0,0.0,0.0,0.0
26424000000,253,26424000000,imu_link,0.000237398589562,-0.378130321079,-0.000255147919978,0.92575230965,0.0,0.0,0.0,0.0,0.0,0.0,0.0,0.0,0.0,0.00294401009141,-0.00395338830457,-0.00154110845808,0.0,0.0,0.0,0.0,0.0,0.0,0.0,0.0,0.0,6.71834580566,0.00595523616355,6.96244209886,0.0,0.0,0.0,0.0,0.0,0.0,0.0,0.0,0.0
26428000000,254,26428000000,imu_link,0.000243667854889,-0.378136571236,-0.00025588816018,0.925749754869,0.0,0.0,0.0,0.0,0.0,0.0,0.0,0.0,0.0,0.00276304040332,-0.00337535678257,-0.00152752322789,0.0,0.0,0.0,0.0,0.0,0.0,0.0,0.0,0.0,6.71783089039,0.00598436611399,6.96123371551,0.0,0.0,0.0,0.0,0.0,0.0,0.0,0.0,0.0
26432000000,255,26432000000,imu_link,0.000249254637052,-0.378141908431,-0.00025672051948,0.925747573075,0.0,0.0,0.0,0.0,0.0,0.0,0.0,0.0,0.0,0.00242955704229,-0.00288234812955,-0.00144119043131,0.0,0.0,0.0,0.0,0.0,0.0,0.0,0.0,0.0,6.71849660229,0.00591315320827,6.96322147547,0.0,0.0,0.0,0.0,0.0,0.0,0.0,0.0,0.0
26436000000,256,26436000000,imu_link,0.000254064027248,-0.378146246745,-0.000257639864709,0.925745799421,0.0,0.0,0.0,0.0,0.0,0.0,0.0,0.0,0.0,0.00205309708407,-0.00234293563285,-0.00133454379507,0.0,0.0,0.0,0.0,0.0,0.0,0.0,0.0,0.0,6.71822572822,0.00578084236341,6.96116630091,0.0,0.0,0.0,0.0,0.0,0.0,0.0,0.0,0.0
26440000000,257,26440000000,imu_link,0.000258232944689,-0.378149395898,-0.000258624794097,0.925744511629,0.0,0.0,0.0,0.0,0.0,0.0,0.0,0.0,0.0,0.00174402449373,-0.00170073227396,-0.00124389321349,0.0,0.0,0.0,0.0,0.0,0.0,0.0,0.0,0.0,6.71833189596,0.00561977396094,6.95866436494,0.0,0.0,0.0,0.0,0.0,0.0,0.0,0.0,0.0
26444000000,258,26444000000,imu_link,0.000261877894391,-0.378151205648,-0.000259654982311,0.925743771065,0.0,0.0,0.0,0.0,0.0,0.0,0.0,0.0,0.0,0.00149269320714,-0.000977366444344,-0.00116587540185,0.0,0.0,0.0,0.0,0.0,0.0,0.0,0.0,0.0,6.71836568188,0.00549020876433,6.95640394741,0.0,0.0,0.0,0.0,0.0,0.0,0.0,0.0,0.0
26448000000,259,26448000000,imu_link,0.00026495184994,-0.378151552555,-0.000260709930337,0.925743628188,0.0,0.0,0.0,0.0,0.0,0.0,0.0,0.0,0.0,0.00122344641329,-0.000187327102369,-0.00106948890617,0.0,0.0,0.0,0.0,0.0,0.0,0.0,0.0,0.0,6.71866078284,0.00540126355092,6.95477590537,0.0,0.0,0.0,0.0,0.0,0.0,0.0,0.0,0.0
26452000000,260,26452000000,imu_link,0.000267253810351,-0.378150565727,-0.000261763331343,0.925744030332,0.0,0.0,0.0,0.0,0.0,0.0,0.0,0.0,0.0,0.000866158066624,0.000532970867845,-0.000922912895957,0.0,0.0,0.0,0.0,0.0,0.0,0.0,0.0,0.0,6.71936889375,0.00534636974589,6.9563062898,0.0,0.0,0.0,0.0,0.0,0.0,0.0,0.0,0.0
26456000000,261,26456000000,imu_link,0.000268534511903,-0.378148741992,-0.000262826195197,0.925744774623,0.0,0.0,0.0,0.0,0.0,0.0,0.0,0.0,0.0,0.000391501473295,0.000984908543634,-0.000734265228384,0.0,0.0,0.0,0.0,0.0,0.0,0.0,0.0,0.0,6.72100657192,0.00532434360509,6.96295892609,0.0,0.0,0.0,0.0,0.0,0.0,0.0,0.0,0.0
26460000000,262,26460000000,imu_link,0.000268536708002,-0.378146763011,-0.000263907536726,0.925745582687,0.0,0.0,0.0,0.0,0.0,0.0,0.0,0.0,0.0,-0.000203806016025,0.00106865469749,-0.000501097883021,0.0,0.0,0.0,0.0,0.0,0.0,0.0,0.0,0.0,6.7223038371,0.00528846703924,6.97032481746,0.0,0.0,0.0,0.0,0.0,0.0,0.0,0.0,0.0
26464000000,263,26464000000,imu_link,0.000266967755712,-0.37814529052,-0.000265045637577,0.925746184295,0.0,0.0,0.0,0.0,0.0,0.0,0.0,0.0,0.0,-0.00094168498022,0.000794964661852,-0.000230267127322,0.0,0.0,0.0,0.0,0.0,0.0,0.0,0.0,0.0,6.72341435833,0.00520959210081,6.97699751441,0.0,0.0,0.0,0.0,0.0,0.0,0.0,0.0,0.0
26468000000,264,26468000000,imu_link,0.000263679718733,-0.378144859306,-0.000266268647203,0.925746361027,0.0,0.0,0.0,0.0,0.0,0.0,0.0,0.0,0.0,-0.00175326224517,0.000232413275228,5.55454629814e-05,0.0,0.0,0.0,0.0,0.0,0.0,0.0,0.0,0.0,6.7240174588,0.00505802658643,6.98158796176,0.0,0.0,0.0,0.0,0.0,0.0,0.0,0.0,0.0
26472000000,265,26472000000,imu_link,0.00025897793391,-0.378145661974,-0.00026756985216,0.925746034108,0.0,0.0,0.0,0.0,0.0,0.0,0.0,0.0,0.0,-0.00242220211443,-0.000434142508762,0.00028674730292,0.0,0.0,0.0,0.0,0.0,0.0,0.0,0.0,0.0,6.72495176679,0.00477477053788,6.98380541902,0.0,0.0,0.0,0.0,0.0,0.0,0.0,0.0,0.0
26476000000,266,26476000000,imu_link,0.000253412845065,-0.378147625518,-0.000268905138615,0.925745233197,0.0,0.0,0.0,0.0,0.0,0.0,0.0,0.0,0.0,-0.00282802945257,-0.0010612192362,0.000434286139643,0.0,0.0,0.0,0.0,0.0,0.0,0.0,0.0,0.0,6.72616364549,0.00447384618529,6.98399084813,0.0,0.0,0.0,0.0,0.0,0.0,0.0,0.0,0.0
26480000000,267,26480000000,imu_link,0.000247404900948,-0.378150453384,-0.00027024965104,0.925744079301,0.0,0.0,0.0,0.0,0.0,0.0,0.0,0.0,0.0,-0.00303459848448,-0.00152809134228,0.000513810081349,0.0,0.0,0.0,0.0,0.0,0.0,0.0,0.0,0.0,6.72720271856,0.00430583813709,6.98175353872,0.0,0.0,0.0,0.0,0.0,0.0,0.0,0.0,0.0
26484000000,268,26484000000,imu_link,0.000241146626747,-0.378153866455,-0.00027156368039,0.92574268638,0.0,0.0,0.0,0.0,0.0,0.0,0.0,0.0,0.0,-0.00314459704288,-0.00184419030975,0.000575291155148,0.0,0.0,0.0,0.0,0.0,0.0,0.0,0.0,0.0,6.72690792492,0.00424985290441,6.9771842637,0.0,0.0,0.0,0.0,0.0,0.0,0.0,0.0,0.0
26488000000,269,26488000000,imu_link,0.000234629274473,-0.378157726001,-0.000272826772468,0.9257411111,0.0,0.0,0.0,0.0,0.0,0.0,0.0,0.0,0.0,-0.00325480318489,-0.00208535960922,0.000647883318054,0.0,0.0,0.0,0.0,0.0,0.0,0.0,0.0,0.0,6.72669724859,0.00425535117071,6.97422501788,0.0,0.0,0.0,0.0,0.0,0.0,0.0,0.0,0.0
26492000000,270,26492000000,imu_link,0.000227588300993,-0.378162231147,-0.000274038865239,0.925739272171,0.0,0.0,0.0,0.0,0.0,0.0,0.0,0.0,0.0,-0.00348741013364,-0.00243410479224,0.000770534870528,0.0,0.0,0.0,0.0,0.0,0.0,0.0,0.0,0.0,6.72768556241,0.00429771060942,6.97659100545,0.0,0.0,0.0,0.0,0.0,0.0,0.0,0.0,0.0
26496000000,271,26496000000,imu_link,0.000219747046666,-0.378167718466,-0.000275229884509,0.925737032137,0.0,0.0,0.0,0.0,0.0,0.0,0.0,0.0,0.0,-0.00385367101756,-0.00296467109001,0.000931663956061,0.0,0.0,0.0,0.0,0.0,0.0,0.0,0.0,0.0,6.72829127788,0.0043001090978,6.97936650065,0.0,0.0,0.0,0.0,0.0,0.0,0.0,0.0,0.0
26500000000,272,26500000000,imu_link,0.000211290032912,-0.378174326836,-0.000276392436017,0.925734334183,0.0,0.0,0.0,0.0,0.0,0.0,0.0,0.0,0.0,-0.00413309928826,-0.00357023780807,0.00106133111318,0.0,0.0,0.0,0.0,0.0,0.0,0.0,0.0,0.0,6.72773207266,0.00423630256534,6.97840041065,0.0,0.0,0.0,0.0,0.0,0.0,0.0,0.0,0.0
26504000000,273,26504000000,imu_link,0.000202730112379,-0.378181864512,-0.000277490286793,0.925731256496,0.0,0.0,0.0,0.0,0.0,0.0,0.0,0.0,0.0,-0.00416832883644,-0.0040721927953,0.00111078300724,0.0,0.0,0.0,0.0,0.0,0.0,0.0,0.0,0.0,6.7288066599,0.00417239292719,6.97711747994,0.0,0.0,0.0,0.0,0.0,0.0,0.0,0.0,0.0
26508000000,274,26508000000,imu_link,0.000194587745204,-0.378189901697,-0.000278496714894,0.925727974531,0.0,0.0,0.0,0.0,0.0,0.0,0.0,0.0,0.0,-0.00395768052895,-0.00434195817797,0.00107416615787,0.0,0.0,0.0,0.0,0.0,0.0,0.0,0.0,0.0,6.73109346784,0.00415791276269,6.97614331199,0.0,0.0,0.0,0.0,0.0,0.0,0.0,0.0,0.0
26512000000,275,26512000000,imu_link,0.000187130855648,-0.378197994406,-0.000279422337418,0.925724669614,0.0,0.0,0.0,0.0,0.0,0.0,0.0,0.0,0.0,-0.00362510773387,-0.00437189473853,0.000981949998636,0.0,0.0,0.0,0.0,0.0,0.0,0.0,0.0,0.0,6.73147176475,0.00425140927557,6.97187072316,0.0,0.0,0.0,0.0,0.0,0.0,0.0,0.0,0.0
26516000000,276,26516000000,imu_link,0.000180437746181,-0.378205880924,-0.000280308770423,0.925721448657,0.0,0.0,0.0,0.0,0.0,0.0,0.0,0.0,0.0,-0.00326420866239,-0.00426047041836,0.000855651739779,0.0,0.0,0.0,0.0,0.0,0.0,0.0,0.0,0.0,6.73273392727,0.0044300091663,6.97079207843,0.0,0.0,0.0,0.0,0.0,0.0,0.0,0.0,0.0
26520000000,277,26520000000,imu_link,0.00017462242172,-0.378213478128,-0.000281176498365,0.925718345615,0.0,0.0,0.0,0.0,0.0,0.0,0.0,0.0,0.0,-0.0028544304636,-0.00410413491625,0.000698308277969,0.0,0.0,0.0,0.0,0.0,0.0,0.0,0.0,0.0,6.73309787979,0.00458174166695,6.96968558123,0.0,0.0,0.0,0.0,0.0,0.0,0.0,0.0,0.0
26524000000,278,26524000000,imu_link,0.000169909775985,-0.378220853348,-0.000282019483989,0.925715332966,0.0,0.0,0.0,0.0,0.0,0.0,0.0,0.0,0.0,-0.00233940566174,-0.00398413627818,0.000501229835184,0.0,0.0,0.0,0.0,0.0,0.0,0.0,0.0,0.0,6.73265584925,0.00471363263882,6.96840953756,0.0,0.0,0.0,0.0,0.0,0.0,0.0,0.0,0.0
26528000000,279,26528000000,imu_link,0.000166327521146,-0.378228147977,-0.000282833831847,0.925712352957,0.0,0.0,0.0,0.0,0.0,0.0,0.0,0.0,0.0,-0.00181079400636,-0.00394050022842,0.000300714095731,0.0,0.0,0.0,0.0,0.0,0.0,0.0,0.0,0.0,6.73099134119,0.00488695759951,6.9657427885,0.0,0.0,0.0,0.0,0.0,0.0,0.0,0.0,0.0
26532000000,280,26532000000,imu_link,0.000163696149517,-0.378235465192,-0.000283663890779,0.925709363466,0.0,0.0,0.0,0.0,0.0,0.0,0.0,0.0,0.0,-0.00137363904235,-0.00395261424817,0.000113617267889,0.0,0.0,0.0,0.0,0.0,0.0,0.0,0.0,0.0,6.73112567852,0.00509442982857,6.96604555997,0.0,0.0,0.0,0.0,0.0,0.0,0.0,0.0,0.0
26536000000,281,26536000000,imu_link,0.000161655144499,-0.378242588716,-0.000284537004462,0.925706452925,0.0,0.0,0.0,0.0,0.0,0.0,0.0,0.0,0.0,-0.00110856144268,-0.0038479520889,-1.79642754894e-05,0.0,0.0,0.0,0.0,0.0,0.0,0.0,0.0,0.0,6.73212369782,0.00530015326545,6.96507041735,0.0,0.0,0.0,0.0,0.0,0.0,0.0,0.0,0.0
26540000000,282,26540000000,imu_link,0.000159816176216,-0.37824925844,-0.000285452658184,0.925703727693,0.0,0.0,0.0,0.0,0.0,0.0,0.0,0.0,0.0,-0.00102317285459,-0.00360283816744,-7.58738346421e-05,0.0,0.0,0.0,0.0,0.0,0.0,0.0,0.0,0.0,6.73326919418,0.00544357506861,6.96379872205,0.0,0.0,0.0,0.0,0.0,0.0,0.0,0.0,0.0
26544000000,283,26544000000,imu_link,0.000158018361252,-0.378255531924,-0.000286412258245,0.92570116429,0.0,0.0,0.0,0.0,0.0,0.0,0.0,0.0,0.0,-0.00101250578462,-0.00338882986965,-0.000104006151383,0.0,0.0,0.0,0.0,0.0,0.0,0.0,0.0,0.0,6.73203163587,0.00554002217474,6.96104325584,0.0,0.0,0.0,0.0,0.0,0.0,0.0,0.0,0.0
26548000000,284,26548000000,imu_link,0.000156430873628,-0.37826184748,-0.000287392246544,0.925698583599,0.0,0.0,0.0,0.0,0.0,0.0,0.0,0.0,0.0,-0.000919004243904,-0.00341154386577,-0.000153220750806,0.0,0.0,0.0,0.0,0.0,0.0,0.0,0.0,0.0,6.73275729133,0.00559096891063,6.9653232444,0.0,0.0,0.0,0.0,0.0,0.0,0.0,0.0,0.0
26552000000,285,26552000000,imu_link,0.000155452973408,-0.378268590426,-0.000288345959978,0.925695828114,0.0,0.0,0.0,0.0,0.0,0.0,0.0,0.0,0.0,-0.000631812670647,-0.00364233020667,-0.000256342965548,0.0,0.0,0.0,0.0,0.0,0.0,0.0,0.0,0.0,6.73502364452,0.00561077975011,6.97185326974,0.0,0.0,0.0,0.0,0.0,0.0,0.0,0.0,0.0
26556000000,286,26556000000,imu_link,0.000155211375985,-0.378275717931,-0.000289267299655,0.925692915311,0.0,0.0,0.0,0.0,0.0,0.0,0.0,0.0,0.0,-0.000284825798267,-0.00384996821713,-0.00038061174078,0.0,0.0,0.0,0.0,0.0,0.0,0.0,0.0,0.0,6.73450986529,0.00571733026352,6.9692419158,0.0,0.0,0.0,0.0,0.0,0.0,0.0,0.0,0.0
26560000000,287,26560000000,imu_link,0.000155609051515,-0.378283167578,-0.000290166228305,0.9256898707,0.0,0.0,0.0,0.0,0.0,0.0,0.0,0.0,0.0,1.53550187116e-05,-0.00402390616078,-0.000491143658079,0.0,0.0,0.0,0.0,0.0,0.0,0.0,0.0,0.0,6.73342949216,0.00588257577349,6.96545636376,0.0,0.0,0.0,0.0,0.0,0.0,0.0,0.0,0.0
26564000000,288,26564000000,imu_link,0.000156175601355,-0.378290767347,-0.000291054555569,0.925686764643,0.0,0.0,0.0,0.0,0.0,0.0,0.0,0.0,0.0,9.55493622587e-05,-0.00410498638376,-0.000518175249032,0.0,0.0,0.0,0.0,0.0,0.0,0.0,0.0,0.0,6.73443175914,0.00605320186848,6.9646457497,0.0,0.0,0.0,0.0,0.0,0.0,0.0,0.0,0.0
26568000000,289,26568000000,imu_link,0.000156242548791,-0.378298374238,-0.000291935506799,0.92568365569,0.0,0.0,0.0,0.0,0.0,0.0,0.0,0.0,0.0,-0.000134291899281,-0.00410890221215,-0.000420263677645,0.0,0.0,0.0,0.0,0.0,0.0,0.0,0.0,0.0,6.73576301413,0.00615715958448,6.96495386601,0.0,0.0,0.0,0.0,0.0,0.0,0.0,0.0,0.0
26572000000,290,26572000000,imu_link,0.00015517738606,-0.378305748658,-0.000292796596941,0.925680641864,0.0,0.0,0.0,0.0,0.0,0.0,0.0,0.0,0.0,-0.000654564494185,-0.00398347568181,-0.000196937692466,0.0,0.0,0.0,0.0,0.0,0.0,0.0,0.0,0.0,6.73735079073,0.00615958557304,6.9648786983,0.0,0.0,0.0,0.0,0.0,0.0,0.0,0.0,0.0
26576000000,291,26576000000,imu_link,0.000152710788784,-0.378312666425,-0.000293612782257,0.925677814843,0.0,0.0,0.0,0.0,0.0,0.0,0.0,0.0,0.0,-0.00129479237945,-0.00373698491224,8.89233601019e-05,0.0,0.0,0.0,0.0,0.0,0.0,0.0,0.0,0.0,6.73725007995,0.00602169824172,6.96174517155,0.0,0.0,0.0,0.0,0.0,0.0,0.0,0.0,0.0
26580000000,292,26580000000,imu_link,0.000148871847498,-0.378319080517,-0.000294385839652,0.92567519384,0.0,0.0,0.0,0.0,0.0,0.0,0.0,0.0,0.0,-0.00192189833515,-0.00346509313836,0.000368463987379,0.0,0.0,0.0,0.0,0.0,0.0,0.0,0.0,0.0,6.73608885103,0.00580866063139,6.95827694779,0.0,0.0,0.0,0.0,0.0,0.0,0.0,0.0,0.0
26584000000,293,26584000000,imu_link,0.000144019280388,-0.378324946008,-0.000295119396594,0.925672797154,0.0,0.0,0.0,0.0,0.0,0.0,0.0,0.0,0.0,-0.002383668036,-0.00316889450201,0.000578475459559,0.0,0.0,0.0,0.0,0.0,0.0,0.0,0.0,0.0,6.73584112072,0.00554749845736,6.95648674328,0.0,0.0,0.0,0.0,0.0,0.0,0.0,0.0,0.0
26588000000,294,26588000000,imu_link,0.000138633986756,-0.378330522633,-0.000295782982505,0.925670518563,0.0,0.0,0.0,0.0,0.0,0.0,0.0,0.0,0.0,-0.00261704849587,-0.00301293184522,0.000711629090905,0.0,0.0,0.0,0.0,0.0,0.0,0.0,0.0,0.0,6.73788549327,0.0053363402051,6.96170052608,0.0,0.0,0.0,0.0,0.0,0.0,0.0,0.0,0.0
26592000000,295,26592000000,imu_link,0.000132995500769,-0.378336291591,-0.000296351883957,0.925668161358,0.0,0.0,0.0,0.0,0.0,0.0,0.0,0.0,0.0,-0.0027162899418,-0.00311685167704,0.000803349300493,0.0,0.0,0.0,0.0,0.0,0.0,0.0,0.0,0.0,6.7391244522,0.00525518238632,6.96725068308,0.0,0.0,0.0,0.0,0.0,0.0,0.0,0.0,0.0
26596000000,296,26596000000,imu_link,0.000127163762723,-0.378342670046,-0.000296807876946,0.925665555023,0.0,0.0,0.0,0.0,0.0,0.0,0.0,0.0,0.0,-0.00278426801687,-0.0034460961893,0.000892167933748,0.0,0.0,0.0,0.0,0.0,0.0,0.0,0.0,0.0,6.73914676158,0.00526152923701,6.96996675309,0.0,0.0,0.0,0.0,0.0,0.0,0.0,0.0,0.0
26600000000,297,26600000000,imu_link,0.000120952930533,-0.378349828818,-0.000297165846384,0.92566262974,0.0,0.0,0.0,0.0,0.0,0.0,0.0,0.0,0.0,-0.00294104588474,-0.00386763852552,0.00100925247249,0.0,0.0,0.0,0.0,0.0,0.0,0.0,0.0,0.0,6.73876986551,0.00529574680654,6.9698124316,0.0,0.0,0.0,0.0,0.0,0.0,0.0,0.0,0.0
26604000000,298,26604000000,imu_link,0.00011424565301,-0.378357695336,-0.000297424414987,0.925659415156,0.0,0.0,0.0,0.0,0.0,0.0,0.0,0.0,0.0,-0.0031518895319,-0.00425000164523,0.00114917311148,0.0,0.0,0.0,0.0,0.0,0.0,0.0,0.0,0.0,6.73818627416,0.00528964488621,6.96699887239,0.0,0.0,0.0,0.0,0.0,0.0,0.0,0.0,0.0
26608000000,299,26608000000,imu_link,0.000107134140837,-0.378366088445,-0.000297575304362,0.925655985281,0.0,0.0,0.0,0.0,0.0,0.0,0.0,0.0,0.0,-0.00331852009582,-0.00453450610463,0.00127548096701,0.0,0.0,0.0,0.0,0.0,0.0,0.0,0.0,0.0,6.73806591817,0.00522468568334,6.96381799375,0.0,0.0,0.0,0.0,0.0,0.0,0.0,0.0,0.0
26612000000,300,26612000000,imu_link,9.98594034939e-05,-0.378374854753,-0.000297616020386,0.925652402764,0.0,0.0,0.0,0.0,0.0,0.0,0.0,0.0,0.0,-0.00337315863954,-0.00473612896217,0.00135734899197,0.0,0.0,0.0,0.0,0.0,0.0,0.0,0.0,0.0,6.7383892699,0.00514186134194,6.96172740146,0.0,0.0,0.0,0.0,0.0,0.0,0.0,0.0,0.0
26616000000,301,26616000000,imu_link,9.27916712663e-05,-0.378383863552,-0.000297546475085,0.925648720984,0.0,0.0,0.0,0.0,0.0,0.0,0.0,0.0,0.0,-0.00325645015134,-0.00486710315952,0.0013692153931,0.0,0.0,0.0,0.0,0.0,0.0,0.0,0.0,0.0,6.73893706771,0.00507296258193,6.96052572225,0.0,0.0,0.0,0.0,0.0,0.0,0.0,0.0,0.0
26620000000,302,26620000000,imu_link,8.61568887457e-05,-0.378393115619,-0.000297383310066,0.925644939592,0.0,0.0,0.0,0.0,0.0,0.0,0.0,0.0,0.0,-0.00303831757129,-0.00499847011496,0.00133063075548,0.0,0.0,0.0,0.0,0.0,0.0,0.0,0.0,0.0,6.73913857531,0.00507938978005,6.95996294748,0.0,0.0,0.0,0.0,0.0,0.0,0.0,0.0,0.0
26624000000,303,26624000000,imu_link,8.00542613191e-05,-0.378402487383,-0.000297159297958,0.925641109086,0.0,0.0,0.0,0.0,0.0,0.0,0.0,0.0,0.0,-0.00278049226297,-0.00506307923574,0.00125810809657,0.0,0.0,0.0,0.0,0.0,0.0,0.0,0.0,0.0,6.73966703809,0.00513144514651,6.95883935541,0.0,0.0,0.0,0.0,0.0,0.0,0.0,0.0,0.0
26628000000,304,26628000000,imu_link,7.43929822071e-05,-0.378411899197,-0.000296902674987,0.925637262031,0.0,0.0,0.0,0.0,0.0,0.0,0.0,0.0,0.0,-0.00257005056233,-0.00508467970816,0.00118969656839,0.0,0.0,0.0,0.0,0.0,0.0,0.0,0.0,0.0,6.73964294539,0.00521510919014,6.95704565441,0.0,0.0,0.0,0.0,0.0,0.0,0.0,0.0,0.0
26632000000,305,26632000000,imu_link,6.92025694011e-05,-0.378421231336,-0.000296613045851,0.925633447378,0.0,0.0,0.0,0.0,0.0,0.0,0.0,0.0,0.0,-0.00234589293354,-0.00504160254871,0.0011158835765,0.0,0.0,0.0,0.0,0.0,0.0,0.0,0.0,0.0,6.73917998046,0.0052562619481,6.95396221315,0.0,0.0,0.0,0.0,0.0,0.0,0.0,0.0,0.0
26636000000,306,26636000000,imu_link,6.47350084154e-05,-0.378430221448,-0.000296273958021,0.925629772385,0.0,0.0,0.0,0.0,0.0,0.0,0.0,0.0,0.0,-0.00200204246951,-0.00485677280448,0.00100201152738,0.0,0.0,0.0,0.0,0.0,0.0,0.0,0.0,0.0,6.73960134713,0.0053129635944,6.95148664425,0.0,0.0,0.0,0.0,0.0,0.0,0.0,0.0,0.0
26640000000,307,26640000000,imu_link,6.10945321358e-05,-0.378438735503,-0.000295887731279,0.925626291864,0.0,0.0,0.0,0.0,0.0,0.0,0.0,0.0,0.0,-0.00161041277723,-0.0045995251132,0.000867344592866,0.0,0.0,0.0,0.0,0.0,0.0,0.0,0.0,0.0,6.74006940962,0.00546689735679,6.95029549859,0.0,0.0,0.0,0.0,0.0,0.0,0.0,0.0,0.0
26644000000,308,26644000000,imu_link,5.82519298481e-05,-0.378446723698,-0.000295495874476,0.925623026189,0.0,0.0,0.0,0.0,0.0,0.0,0.0,0.0,0.0,-0.00124016524903,-0.00431537934996,0.000718992768317,0.0,0.0,0.0,0.0,0.0,0.0,0.0,0.0,0.0,6.74007428674,0.00562801730081,6.94920507278,0.0,0.0,0.0,0.0,0.0,0.0,0.0,0.0,0.0
26648000000,309,26648000000,imu_link,5.61366239863e-05,-0.378454344553,-0.000295143296487,0.925619910562,0.0,0.0,0.0,0.0,0.0,0.0,0.0,0.0,0.0,-0.00091105520313,-0.00411687090289,0.000563204076117,0.0,0.0,0.0,0.0,0.0,0.0,0.0,0.0,0.0,6.74088230946,0.00579015498852,6.95132413722,0.0,0.0,0.0,0.0,0.0,0.0,0.0,0.0,0.0
26652000000,310,26652000000,imu_link,5.49552098871e-05,-0.378461844917,-0.000294838503568,0.925616844052,0.0,0.0,0.0,0.0,0.0,0.0,0.0,0.0,0.0,-0.000487902191303,-0.00405167581897,0.000364374839442,0.0,0.0,0.0,0.0,0.0,0.0,0.0,0.0,0.0,6.74205001366,0.0058923623837,6.95485558451,0.0,0.0,0.0,0.0,0.0,0.0,0.0,0.0,0.0
26656000000,311,26656000000,imu_link,5.49361200109e-05,-0.3784692682,-0.000294563949709,0.925613808909,0.0,0.0,0.0,0.0,0.0,0.0,0.0,0.0,0.0,4.4296857864e-05,-0.00400989612104,0.0001304347687,0.0,0.0,0.0,0.0,0.0,0.0,0.0,0.0,0.0,6.74262435965,0.00597727874179,6.95534424501,0.0,0.0,0.0,0.0,0.0,0.0,0.0,0.0,0.0
26660000000,312,26660000000,imu_link,5.61405438784e-05,-0.378476611962,-0.000294286976738,0.925610806139,0.0,0.0,0.0,0.0,0.0,0.0,0.0,0.0,0.0,0.000610992644698,-0.00396678723499,-9.99742416481e-05,0.0,0.0,0.0,0.0,0.0,0.0,0.0,0.0,0.0,6.74217311334,0.00608673831333,6.95356417644,0.0,0.0,0.0,0.0,0.0,0.0,0.0,0.0,0.0
26664000000,313,26664000000,imu_link,5.82273323232e-05,-0.378483661767,-0.000293996611758,0.925607923449,0.0,0.0,0.0,0.0,0.0,0.0,0.0,0.0,0.0,0.00102184339492,-0.0038078878769,-0.000260744108028,0.0,0.0,0.0,0.0,0.0,0.0,0.0,0.0,0.0,6.74359203029,0.00626889906016,6.95335993783,0.0,0.0,0.0,0.0,0.0,0.0,0.0,0.0,0.0
26668000000,314,26668000000,imu_link,6.07287010063e-05,-0.378490065559,-0.000293680856043,0.925605304834,0.0,0.0,0.0,0.0,0.0,0.0,0.0,0.0,0.0,0.00121841510996,-0.00345887478714,-0.000327429087507,0.0,0.0,0.0,0.0,0.0,0.0,0.0,0.0,0.0,6.74484920568,0.00642455445323,6.95174770201,0.0,0.0,0.0,0.0,0.0,0.0,0.0,0.0,0.0
26672000000,315,26672000000,imu_link,6.32327259402e-05,-0.378495348035,-0.000293353336564,0.925603144691,0.0,0.0,0.0,0.0,0.0,0.0,0.0,0.0,0.0,0.00122169208813,-0.00285316286421,-0.00032245419463,0.0,0.0,0.0,0.0,0.0,0.0,0.0,0.0,0.0,6.7469027595,0.00650674499741,6.95027304432,0.0,0.0,0.0,0.0,0.0,0.0,0.0,0.0,0.0
26676000000,316,26676000000,imu_link,6.57209916002e-05,-0.37849937461,-0.000293009540217,0.925601498079,0.0,0.0,0.0,0.0,0.0,0.0,0.0,0.0,0.0,0.00121727858333,-0.0021747464667,-0.000311903212195,0.0,0.0,0.0,0.0,0.0,0.0,0.0,0.0,0.0,6.74565378804,0.00644599752743,6.94571146796,0.0,0.0,0.0,0.0,0.0,0.0,0.0,0.0,0.0
26680000000,317,26680000000,imu_link,6.82671207838e-05,-0.378502340613,-0.000292668521384,0.925600285131,0.0,0.0,0.0,0.0,0.0,0.0,0.0,0.0,0.0,0.00124336259253,-0.00160183427509,-0.000324110618697,0.0,0.0,0.0,0.0,0.0,0.0,0.0,0.0,0.0,6.74484228632,0.00641438564032,6.9451955285,0.0,0.0,0.0,0.0,0.0,0.0,0.0,0.0,0.0
26684000000,318,26684000000,imu_link,7.08556424555e-05,-0.378504631165,-0.000292344718279,0.925599348369,0.0,0.0,0.0,0.0,0.0,0.0,0.0,0.0,0.0,0.00125961547657,-0.00123696125875,-0.000340083528183,0.0,0.0,0.0,0.0,0.0,0.0,0.0,0.0,0.0,6.74594432379,0.00644326148711,6.94991232452,0.0,0.0,0.0,0.0,0.0,0.0,0.0,0.0,0.0
26688000000,319,26688000000,imu_link,7.33184181728e-05,-0.378506611574,-0.000292047042374,0.925598538421,0.0,0.0,0.0,0.0,0.0,0.0,0.0,0.0,0.0,0.00119642582959,-0.00106944686561,-0.000328369926056,0.0,0.0,0.0,0.0,0.0,0.0,0.0,0.0,0.0,6.7459157971,0.00647364779757,6.95252536232,0.0,0.0,0.0,0.0,0.0,0.0,0.0,0.0,0.0
26692000000,320,26692000000,imu_link,7.56156181132e-05,-0.37850862913,-0.000291751309781,0.925597713285,0.0,0.0,0.0,0.0,0.0,0.0,0.0,0.0,0.0,0.00111943568395,-0.00108953675977,-0.00029793438216,0.0,0.0,0.0,0.0,0.0,0.0,0.0,0.0,0.0,6.74718792363,0.00645345250106,6.95701165747,0.0,0.0,0.0,0.0,0.0,0.0,0.0,0.0,0.0
26696000000,321,26696000000,imu_link,7.7789432e-05,-0.378510833892,-0.000291414752024,0.925596811604,0.0,0.0,0.0,0.0,0.0,0.0,0.0,0.0,0.0,0.00107008930084,-0.00119067862783,-0.000255693287726,0.0,0.0,0.0,0.0,0.0,0.0,0.0,0.0,0.0,6.74784222164,0.00641381536371,6.95840093007,0.0,0.0,0.0,0.0,0.0,0.0,0.0,0.0,0.0
26700000000,322,26700000000,imu_link,7.99377574391e-05,-0.378513324358,-0.000291010299349,0.925595793101,0.0,0.0,0.0,0.0,0.0,0.0,0.0,0.0,0.0,0.00107118894162,-0.00134501219954,-0.000219453711048,0.0,0.0,0.0,0.0,0.0,0.0,0.0,0.0,0.0,6.74779758499,0.00632984677069,6.95799182285,0.0,0.0,0.0,0.0,0.0,0.0,0.0,0.0,0.0
26704000000,323,26704000000,imu_link,8.22534224564e-05,-0.378516207971,-0.000290513813181,0.925594613824,0.0,0.0,0.0,0.0,0.0,0.0,0.0,0.0,0.0,0.00116611492893,-0.00155735904109,-0.000208538613916,0.0,0.0,0.0,0.0,0.0,0.0,0.0,0.0,0.0,6.74790256201,0.00620425940058,6.95819966111,0.0,0.0,0.0,0.0,0.0,0.0,0.0,0.0,0.0
26708000000,324,26708000000,imu_link,8.48023092601e-05,-0.378519693099,-0.00028993567081,0.925593188546,0.0,0.0,0.0,0.0,0.0,0.0,0.0,0.0,0.0,0.00128960093316,-0.00188225931445,-0.000214898451338,0.0,0.0,0.0,0.0,0.0,0.0,0.0,0.0,0.0,6.74824653515,0.00615055516069,6.95981524284,0.0,0.0,0.0,0.0,0.0,0.0,0.0,0.0,0.0
26712000000,325,26712000000,imu_link,8.75318640769e-05,-0.378524042296,-0.000289313905271,0.925591409878,0.0,0.0,0.0,0.0,0.0,0.0,0.0,0.0,0.0,0.00138160983501,-0.00234900200585,-0.00022891759025,0.0,0.0,0.0,0.0,0.0,0.0,0.0,0.0,0.0,6.74942775247,0.00614680616788,6.96325600959,0.0,0.0,0.0,0.0,0.0,0.0,0.0,0.0,0.0
26716000000,326,26716000000,imu_link,9.04653700261e-05,-0.378529542769,-0.000288677144003,0.925589160337,0.0,0.0,0.0,0.0,0.0,0.0,0.0,0.0,0.0,0.00147902281318,-0.00297089560553,-0.000260595563614,0.0,0.0,0.0,0.0,0.0,0.0,0.0,0.0,0.0,6.74876057213,0.00612534822938,6.9635293611,0.0,0.0,0.0,0.0,0.0,0.0,0.0,0.0,0.0
26720000000,327,26720000000,imu_link,9.35832404093e-05,-0.378536366162,-0.000288044393409,0.925586369695,0.0,0.0,0.0,0.0,0.0,0.0,0.0,0.0,0.0,0.00156380201855,-0.00368552104792,-0.000297363636846,0.0,0.0,0.0,0.0,0.0,0.0,0.0,0.0,0.0,6.74921738817,0.0061126941876,6.96472673543,0.0,0.0,0.0,0.0,0.0,0.0,0.0,0.0,0.0
26724000000,328,26724000000,imu_link,9.68896307876e-05,-0.378544422661,-0.000287422441638,0.925583074647,0.0,0.0,0.0,0.0,0.0,0.0,0.0,0.0,0.0,0.00164920511066,-0.00435163539313,-0.000338057041818,0.0,0.0,0.0,0.0,0.0,0.0,0.0,0.0,0.0,6.74937235171,0.00610238868023,6.96287345384,0.0,0.0,0.0,0.0,0.0,0.0,0.0,0.0,0.0
26728000000,329,26728000000,imu_link,0.000100359085052,-0.378553313122,-0.000286816612946,0.9255794384,0.0,0.0,0.0,0.0,0.0,0.0,0.0,0.0,0.0,0.00172175442509,-0.0048021425069,-0.000376390761729,0.0,0.0,0.0,0.0,0.0,0.0,0.0,0.0,0.0,6.75139660798,0.00611574619799,6.9614641395,0.0,0.0,0.0,0.0,0.0,0.0,0.0,0.0,0.0
26732000000,330,26732000000,imu_link,0.000103981687056,-0.378562477126,-0.000286227106528,0.925575690138,0.0,0.0,0.0,0.0,0.0,0.0,0.0,0.0,0.0,0.00178958504893,-0.00494991624878,-0.00041293417217,0.0,0.0,0.0,0.0,0.0,0.0,0.0,0.0,0.0,6.75367367004,0.00612364620532,6.9591665372,0.0,0.0,0.0,0.0,0.0,0.0,0.0,0.0,0.0
26736000000,331,26736000000,imu_link,0.00010778845714,-0.378571421416,-0.000285638968381,0.9255720316,0.0,0.0,0.0,0.0,0.0,0.0,0.0,0.0,0.0,0.00187452069995,-0.00483122583011,-0.000448425536058,0.0,0.0,0.0,0.0,0.0,0.0,0.0,0.0,0.0,6.75459450173,0.0061295434289,6.95536677919,0.0,0.0,0.0,0.0,0.0,0.0,0.0,0.0,0.0
26740000000,332,26740000000,imu_link,0.000111951185926,-0.378579956198,-0.000285025633079,0.925568540408,0.0,0.0,0.0,0.0,0.0,0.0,0.0,0.0,0.0,0.002043955367,-0.00460998287995,-0.000504140710605,0.0,0.0,0.0,0.0,0.0,0.0,0.0,0.0,0.0,6.75339556404,0.00612148374668,6.95054835689,0.0,0.0,0.0,0.0,0.0,0.0,0.0,0.0,0.0
26744000000,333,26744000000,imu_link,0.000116567848808,-0.378588184403,-0.000284380518604,0.925565174458,0.0,0.0,0.0,0.0,0.0,0.0,0.0,0.0,0.0,0.00225999370313,-0.00444433067689,-0.000575358296486,0.0,0.0,0.0,0.0,0.0,0.0,0.0,0.0,0.0,6.75270592679,0.00612625545642,6.9493975306,0.0,0.0,0.0,0.0,0.0,0.0,0.0,0.0,0.0
26748000000,334,26748000000,imu_link,0.000121484028547,-0.378596344548,-0.00028372539459,0.925561836204,0.0,0.0,0.0,0.0,0.0,0.0,0.0,0.0,0.0,0.00240048834433,-0.00440754742309,-0.000627422856968,0.0,0.0,0.0,0.0,0.0,0.0,0.0,0.0,0.0,6.75213718788,0.00615460597684,6.94989120704,0.0,0.0,0.0,0.0,0.0,0.0,0.0,0.0,0.0
26752000000,335,26752000000,imu_link,0.000126377478497,-0.378604585187,-0.000283078481162,0.925558464912,0.0,0.0,0.0,0.0,0.0,0.0,0.0,0.0,0.0,0.00238842860842,-0.00445105652254,-0.000626919649038,0.0,0.0,0.0,0.0,0.0,0.0,0.0,0.0,0.0,6.75247020111,0.00616789145769,6.95125012136,0.0,0.0,0.0,0.0,0.0,0.0,0.0,0.0,0.0
26756000000,336,26756000000,imu_link,0.000131107368091,-0.378612895598,-0.000282427178901,0.925555064992,0.0,0.0,0.0,0.0,0.0,0.0,0.0,0.0,0.0,0.0023135787733,-0.00448878722846,-0.000593925880941,0.0,0.0,0.0,0.0,0.0,0.0,0.0,0.0,0.0,6.75258006268,0.00612880595821,6.95058890642,0.0,0.0,0.0,0.0,0.0,0.0,0.0,0.0,0.0
26760000000,337,26760000000,imu_link,0.000135860487945,-0.378621247037,-0.000281717485165,0.925551648191,0.0,0.0,0.0,0.0,0.0,0.0,0.0,0.0,0.0,0.00233538999842,-0.00451096342734,-0.000571300950549,0.0,0.0,0.0,0.0,0.0,0.0,0.0,0.0,0.0,6.75371786836,0.00602649300833,6.95139446188,0.0,0.0,0.0,0.0,0.0,0.0,0.0,0.0,0.0
26764000000,338,26764000000,imu_link,0.000141171368945,-0.378629579961,-0.00028089692598,0.9255482388,0.0,0.0,0.0,0.0,0.0,0.0,0.0,0.0,0.0,0.00261449326857,-0.00450090557819,-0.000625585425705,0.0,0.0,0.0,0.0,0.0,0.0,0.0,0.0,0.0,6.75418807799,0.00589527289442,6.9510944498,0.0,0.0,0.0,0.0,0.0,0.0,0.0,0.0,0.0
26768000000,339,26768000000,imu_link,0.000147402771494,-0.378637966844,-0.000279937270734,0.925544807112,0.0,0.0,0.0,0.0,0.0,0.0,0.0,0.0,0.0,0.00306682891157,-0.00452995901318,-0.000735483034937,0.0,0.0,0.0,0.0,0.0,0.0,0.0,0.0,0.0,6.75402415784,0.00584556594477,6.95063548782,0.0,0.0,0.0,0.0,0.0,0.0,0.0,0.0,0.0
26772000000,340,26772000000,imu_link,0.000154366901617,-0.378646576592,-0.000278882077161,0.925541284023,0.0,0.0,0.0,0.0,0.0,0.0,0.0,0.0,0.0,0.00342404016181,-0.00465028869382,-0.000829986141026,0.0,0.0,0.0,0.0,0.0,0.0,0.0,0.0,0.0,6.7543661935,0.00597949076525,6.9520551051,0.0,0.0,0.0,0.0,0.0,0.0,0.0,0.0,0.0
26776000000,341,26776000000,imu_link,0.000161421402424,-0.378655593309,-0.000277839821739,0.925537594268,0.0,0.0,0.0,0.0,0.0,0.0,0.0,0.0,0.0,0.00346348118015,-0.00487016433778,-0.000853074641141,0.0,0.0,0.0,0.0,0.0,0.0,0.0,0.0,0.0,6.75713413593,0.0061704057598,6.95766888616,0.0,0.0,0.0,0.0,0.0,0.0,0.0,0.0,0.0
26780000000,342,26780000000,imu_link,0.000167967366699,-0.378664977061,-0.00027692461762,0.925533754245,0.0,0.0,0.0,0.0,0.0,0.0,0.0,0.0,0.0,0.00320415511385,-0.00506854776141,-0.000815581170756,0.0,0.0,0.0,0.0,0.0,0.0,0.0,0.0,0.0,6.75882990745,0.00626017329819,6.95934512223,0.0,0.0,0.0,0.0,0.0,0.0,0.0,0.0,0.0
26784000000,343,26784000000,imu_link,0.000173687184801,-0.378674484137,-0.000276170957626,0.925529863714,0.0,0.0,0.0,0.0,0.0,0.0,0.0,0.0,0.0,0.00279127779586,-0.00513530835119,-0.000733918765912,0.0,0.0,0.0,0.0,0.0,0.0,0.0,0.0,0.0,6.75853486889,0.00622280876197,6.95566520271,0.0,0.0,0.0,0.0,0.0,0.0,0.0,0.0,0.0
26788000000,344,26788000000,imu_link,0.00017837755856,-0.378683736683,-0.000275557306632,0.925526077332,0.0,0.0,0.0,0.0,0.0,0.0,0.0,0.0,0.0,0.00228833394552,-0.00499795596068,-0.000603805591348,0.0,0.0,0.0,0.0,0.0,0.0,0.0,0.0,0.0,6.76000846269,0.00612872628452,6.9540619544,0.0,0.0,0.0,0.0,0.0,0.0,0.0,0.0,0.0
26792000000,345,26792000000,imu_link,0.000182034299471,-0.378692244991,-0.000275066962192,0.925522595502,0.0,0.0,0.0,0.0,0.0,0.0,0.0,0.0,0.0,0.00178653007131,-0.00459603913196,-0.000465181749345,0.0,0.0,0.0,0.0,0.0,0.0,0.0,0.0,0.0,6.75990440401,0.00592708087517,6.94862177368,0.0,0.0,0.0,0.0,0.0,0.0,0.0,0.0,0.0
26796000000,346,26796000000,imu_link,0.000184716244804,-0.378699768725,-0.000274704685583,0.925519516588,0.0,0.0,0.0,0.0,0.0,0.0,0.0,0.0,0.0,0.00131101117313,-0.00406427177558,-0.000339907020884,0.0,0.0,0.0,0.0,0.0,0.0,0.0,0.0,0.0,6.75889798733,0.00567098887402,6.9441571482,0.0,0.0,0.0,0.0,0.0,0.0,0.0,0.0,0.0
26800000000,347,26800000000,imu_link,0.000186653287126,-0.378706304759,-0.000274475701673,0.925516841856,0.0,0.0,0.0,0.0,0.0,0.0,0.0,0.0,0.0,0.000940888086511,-0.00353078627936,-0.000260577925381,0.0,0.0,0.0,0.0,0.0,0.0,0.0,0.0,0.0,6.75809927518,0.00543785509934,6.94240581703,0.0,0.0,0.0,0.0,0.0,0.0,0.0,0.0,0.0
26804000000,348,26804000000,imu_link,0.000187928115881,-0.378712234272,-0.000274361924439,0.92551441535,0.0,0.0,0.0,0.0,0.0,0.0,0.0,0.0,0.0,0.000612522030985,-0.00320321294509,-0.000188521097474,0.0,0.0,0.0,0.0,0.0,0.0,0.0,0.0,0.0,6.75797854248,0.00528283398951,6.94505598549,0.0,0.0,0.0,0.0,0.0,0.0,0.0,0.0,0.0
26808000000,349,26808000000,imu_link,0.000188362229049,-0.378717970545,-0.000274317647876,0.925512068023,0.0,0.0,0.0,0.0,0.0,0.0,0.0,0.0,0.0,0.000210280507519,-0.00309891906536,-6.14956903564e-05,0.0,0.0,0.0,0.0,0.0,0.0,0.0,0.0,0.0,6.75886353882,0.00518693941674,6.94978488354,0.0,0.0,0.0,0.0,0.0,0.0,0.0,0.0,0.0
26812000000,350,26812000000,imu_link,0.000187826828761,-0.378723847435,-0.000274306486288,0.9255096633,0.0,0.0,0.0,0.0,0.0,0.0,0.0,0.0,0.0,-0.000244613620419,-0.00317499433066,0.000106771610386,0.0,0.0,0.0,0.0,0.0,0.0,0.0,0.0,0.0,6.75929851058,0.00504691017085,6.95264334038,0.0,0.0,0.0,0.0,0.0,0.0,0.0,0.0,0.0
26816000000,351,26816000000,imu_link,0.000186296685831,-0.378729977956,-0.000274334012005,0.925507154933,0.0,0.0,0.0,0.0,0.0,0.0,0.0,0.0,0.0,-0.000712216966446,-0.00331213013548,0.000277244857876,0.0,0.0,0.0,0.0,0.0,0.0,0.0,0.0,0.0,6.75871424926,0.00492104490767,6.95160665388,0.0,0.0,0.0,0.0,0.0,0.0,0.0,0.0,0.0
26820000000,352,26820000000,imu_link,0.000183966627907,-0.3787363469,-0.000274385881193,0.9255045491,0.0,0.0,0.0,0.0,0.0,0.0,0.0,0.0,0.0,-0.00108694851058,-0.00344102916698,0.000417464563114,0.0,0.0,0.0,0.0,0.0,0.0,0.0,0.0,0.0,6.75840100935,0.0047926774453,6.95000051009,0.0,0.0,0.0,0.0,0.0,0.0,0.0,0.0,0.0
26824000000,353,26824000000,imu_link,0.000181173354963,-0.378742928947,-0.000274451962572,0.925501856089,0.0,0.0,0.0,0.0,0.0,0.0,0.0,0.0,0.0,-0.00130395639581,-0.00355621739121,0.000498613663421,0.0,0.0,0.0,0.0,0.0,0.0,0.0,0.0,0.0,6.75856625139,0.00466182968782,6.94930099011,0.0,0.0,0.0,0.0,0.0,0.0,0.0,0.0,0.0
26828000000,354,26828000000,imu_link,0.000178112334318,-0.378749818867,-0.000274545538642,0.925499037066,0.0,0.0,0.0,0.0,0.0,0.0,0.0,0.0,0.0,-0.0014330099397,-0.00372258764211,0.00053660484062,0.0,0.0,0.0,0.0,0.0,0.0,0.0,0.0,0.0,6.75873008476,0.00459855465656,6.94969010754,0.0,0.0,0.0,0.0,0.0,0.0,0.0,0.0,0.0
26832000000,355,26832000000,imu_link,0.00017480766303,-0.378757097617,-0.000274721465212,0.925496058865,0.0,0.0,0.0,0.0,0.0,0.0,0.0,0.0,0.0,-0.00156128672426,-0.0039327041222,0.00054465128219,0.0,0.0,0.0,0.0,0.0,0.0,0.0,0.0,0.0,6.75988826423,0.00459197415332,6.95148775062,0.0,0.0,0.0,0.0,0.0,0.0,0.0,0.0,0.0
26836000000,356,26836000000,imu_link,0.000171255394773,-0.378764830703,-0.000275025393974,0.925492894654,0.0,0.0,0.0,0.0,0.0,0.0,0.0,0.0,0.0,-0.00170002393746,-0.0041782181635,0.000532322234886,0.0,0.0,0.0,0.0,0.0,0.0,0.0,0.0,0.0,6.76027786366,0.00457183367249,6.95184639356,0.0,0.0,0.0,0.0,0.0,0.0,0.0,0.0,0.0
26840000000,357,26840000000,imu_link,0.000167604330494,-0.378773058402,-0.000275444348319,0.925489527908,0.0,0.0,0.0,0.0,0.0,0.0,0.0,0.0,0.0,-0.00176743991031,-0.00444547906791,0.000497819285567,0.0,0.0,0.0,0.0,0.0,0.0,0.0,0.0,0.0,6.76020208823,0.00450621684858,6.95114814102,0.0,0.0,0.0,0.0,0.0,0.0,0.0,0.0,0.0
26844000000,358,26844000000,imu_link,0.000164127361622,-0.378781842542,-0.000275920138102,0.925485933276,0.0,0.0,0.0,0.0,0.0,0.0,0.0,0.0,0.0,-0.00169754630657,-0.004746108361,0.000438562905375,0.0,0.0,0.0,0.0,0.0,0.0,0.0,0.0,0.0,6.76080045915,0.0044559852811,6.95179638429,0.0,0.0,0.0,0.0,0.0,0.0,0.0,0.0,0.0
26848000000,359,26848000000,imu_link,0.000160997250646,-0.378791281108,-0.000276423616151,0.925482070613,0.0,0.0,0.0,0.0,0.0,0.0,0.0,0.0,0.0,-0.00154217188123,-0.00509965640632,0.000360075345526,0.0,0.0,0.0,0.0,0.0,0.0,0.0,0.0,0.0,6.76164604656,0.00446164052412,6.95319502825,0.0,0.0,0.0,0.0,0.0,0.0,0.0,0.0,0.0
26852000000,360,26852000000,imu_link,0.000158331697716,-0.378801622384,-0.000276903189159,0.925477838273,0.0,0.0,0.0,0.0,0.0,0.0,0.0,0.0,0.0,-0.00132251977551,-0.00558732652609,0.000283173493476,0.0,0.0,0.0,0.0,0.0,0.0,0.0,0.0,0.0,6.76267285579,0.00450707671036,6.95652995041,0.0,0.0,0.0,0.0,0.0,0.0,0.0,0.0,0.0
26856000000,361,26856000000,imu_link,0.00015621207322,-0.378813064091,-0.000277323368474,0.92547315529,0.0,0.0,0.0,0.0,0.0,0.0,0.0,0.0,0.0,-0.00105846019667,-0.00618181090521,0.000207282703039,0.0,0.0,0.0,0.0,0.0,0.0,0.0,0.0,0.0,6.76338551406,0.00456550132781,6.9587382877,0.0,0.0,0.0,0.0,0.0,0.0,0.0,0.0,0.0
26860000000,362,26860000000,imu_link,0.000154706616539,-0.378825638644,-0.000277635007763,0.925468008356,0.0,0.0,0.0,0.0,0.0,0.0,0.0,0.0,0.0,-0.000753510773734,-0.00679380172843,0.000141204896968,0.0,0.0,0.0,0.0,0.0,0.0,0.0,0.0,0.0,6.76370400774,0.0046612592592,6.95849637713,0.0,0.0,0.0,0.0,0.0,0.0,0.0,0.0,0.0
26864000000,363,26864000000,imu_link,0.000153801317112,-0.378839009308,-0.000277821101085,0.925462535269,0.0,0.0,0.0,0.0,0.0,0.0,0.0,0.0,0.0,-0.000451881846374,-0.00722387339321,8.56381138376e-05,0.0,0.0,0.0,0.0,0.0,0.0,0.0,0.0,0.0,6.76433314209,0.00479413636076,6.95542816442,0.0,0.0,0.0,0.0,0.0,0.0,0.0,0.0,0.0
26868000000,364,26868000000,imu_link,0.000153044326878,-0.378852510514,-0.000277888821343,0.925457008528,0.0,0.0,0.0,0.0,0.0,0.0,0.0,0.0,0.0,-0.000360810118503,-0.00729441324033,0.000112322963006,0.0,0.0,0.0,0.0,0.0,0.0,0.0,0.0,0.0,6.76694836841,0.0049905692095,6.95299762979,0.0,0.0,0.0,0.0,0.0,0.0,0.0,0.0,0.0
26872000000,365,26872000000,imu_link,0.000151905984531,-0.378865615897,-0.00027784431459,0.925451643695,0.0,0.0,0.0,0.0,0.0,0.0,0.0,0.0,0.0,-0.000516081255602,-0.00708062951307,0.000236483910105,0.0,0.0,0.0,0.0,0.0,0.0,0.0,0.0,0.0,6.76877144095,0.00512193007985,6.95077640397,0.0,0.0,0.0,0.0,0.0,0.0,0.0,0.0,0.0
26876000000,366,26876000000,imu_link,0.000150235437858,-0.37887806112,-0.000277674289811,0.925446549039,0.0,0.0,0.0,0.0,0.0,0.0,0.0,0.0,0.0,-0.000738680939366,-0.00672403981242,0.000395368694161,0.0,0.0,0.0,0.0,0.0,0.0,0.0,0.0,0.0,6.76867069783,0.00511475922619,6.94754266752,0.0,0.0,0.0,0.0,0.0,0.0,0.0,0.0,0.0
26880000000,367,26880000000,imu_link,0.000148209636373,-0.378889636962,-0.000277376018203,0.925441810218,0.0,0.0,0.0,0.0,0.0,0.0,0.0,0.0,0.0,-0.000878918085927,-0.00625438834608,0.000521994710638,0.0,0.0,0.0,0.0,0.0,0.0,0.0,0.0,0.0,6.7683243074,0.0050306373121,6.94434464329,0.0,0.0,0.0,0.0,0.0,0.0,0.0,0.0,0.0
26884000000,368,26884000000,imu_link,0.00014608528597,-0.3789002523,-0.000276966113529,0.92543746453,0.0,0.0,0.0,0.0,0.0,0.0,0.0,0.0,0.0,-0.000903532768404,-0.0057354707698,0.000592302591475,0.0,0.0,0.0,0.0,0.0,0.0,0.0,0.0,0.0,6.76811857394,0.00492300313817,6.94279477164,0.0,0.0,0.0,0.0,0.0,0.0,0.0,0.0,0.0
26888000000,369,26888000000,imu_link,0.000144057060206,-0.378909853388,-0.000276461345496,0.925433533984,0.0,0.0,0.0,0.0,0.0,0.0,0.0,0.0,0.0,-0.000841253001331,-0.0051874897097,0.000617970226102,0.0,0.0,0.0,0.0,0.0,0.0,0.0,0.0,0.0,6.76768448798,0.00482469934497,6.94122249495,0.0,0.0,0.0,0.0,0.0,0.0,0.0,0.0,0.0
26892000000,370,26892000000,imu_link,0.000142031768236,-0.378918533991,-0.000275900306321,0.925429980228,0.0,0.0,0.0,0.0,0.0,0.0,0.0,0.0,0.0,-0.000829389019241,-0.00469017703434,0.000643437787842,0.0,0.0,0.0,0.0,0.0,0.0,0.0,0.0,0.0,6.76720289216,0.00481410128813,6.94078467881,0.0,0.0,0.0,0.0,0.0,0.0,0.0,0.0,0.0
26896000000,371,26896000000,imu_link,0.00013969627666,-0.378926502933,-0.000275341802939,0.925426717816,0.0,0.0,0.0,0.0,0.0,0.0,0.0,0.0,0.0,-0.000973522320707,-0.00430572533533,0.000701024280122,0.0,0.0,0.0,0.0,0.0,0.0,0.0,0.0,0.0,6.76739658749,0.00483093518563,6.94257704135,0.0,0.0,0.0,0.0,0.0,0.0,0.0,0.0,0.0
26900000000,372,26900000000,imu_link,0.000136545856434,-0.378934053161,-0.00027485594488,0.925423626867,0.0,0.0,0.0,0.0,0.0,0.0,0.0,0.0,0.0,-0.00136443393309,-0.00407961249619,0.000821803709551,0.0,0.0,0.0,0.0,0.0,0.0,0.0,0.0,0.0,6.76829179338,0.00483931205,6.9462944858,0.0,0.0,0.0,0.0,0.0,0.0,0.0,0.0,0.0
26904000000,373,26904000000,imu_link,0.00013206961515,-0.378941138817,-0.000274523556811,0.925420726214,0.0,0.0,0.0,0.0,0.0,0.0,0.0,0.0,0.0,-0.00200706133986,-0.0038287871264,0.00100198514006,0.0,0.0,0.0,0.0,0.0,0.0,0.0,0.0,0.0,6.76979557728,0.00480433291047,6.94773360246,0.0,0.0,0.0,0.0,0.0,0.0,0.0,0.0,0.0
26908000000,374,26908000000,imu_link,0.000126114624554,-0.378947576026,-0.000274381920515,0.925418091153,0.0,0.0,0.0,0.0,0.0,0.0,0.0,0.0,0.0,-0.0027275423629,-0.00347863819769,0.00119389542792,0.0,0.0,0.0,0.0,0.0,0.0,0.0,0.0,0.0,6.76982470456,0.00467938979489,6.94545262058,0.0,0.0,0.0,0.0,0.0,0.0,0.0,0.0,0.0
26912000000,375,26912000000,imu_link,0.000118774783614,-0.378953127733,-0.000274445812266,0.925415818729,0.0,0.0,0.0,0.0,0.0,0.0,0.0,0.0,0.0,-0.00340741167083,-0.00300040084048,0.00136118249497,0.0,0.0,0.0,0.0,0.0,0.0,0.0,0.0,0.0,6.76990145394,0.0045294444541,6.94291456979,0.0,0.0,0.0,0.0,0.0,0.0,0.0,0.0,0.0
26916000000,376,26916000000,imu_link,0.000110443346148,-0.378957586306,-0.000274694201934,0.925413993911,0.0,0.0,0.0,0.0,0.0,0.0,0.0,0.0,0.0,-0.00390136584348,-0.00240993491787,0.00146369465542,0.0,0.0,0.0,0.0,0.0,0.0,0.0,0.0,0.0,6.77030344872,0.00433267049564,6.94136917698,0.0,0.0,0.0,0.0,0.0,0.0,0.0,0.0,0.0
26920000000,377,26920000000,imu_link,0.000101593778194,-0.37896104549,-0.000275053624631,0.925412578273,0.0,0.0,0.0,0.0,0.0,0.0,0.0,0.0,0.0,-0.00416230670857,-0.00187005743329,0.00151049464726,0.0,0.0,0.0,0.0,0.0,0.0,0.0,0.0,0.0,6.7710151966,0.00417011005512,6.94306413057,0.0,0.0,0.0,0.0,0.0,0.0,0.0,0.0,0.0
26924000000,378,26924000000,imu_link,9.25075834297e-05,-0.378963723298,-0.000275438540178,0.925411482531,0.0,0.0,0.0,0.0,0.0,0.0,0.0,0.0,0.0,-0.00427674953044,-0.00144792977589,0.00154353941968,0.0,0.0,0.0,0.0,0.0,0.0,0.0,0.0,0.0,6.77141870123,0.00410476981569,6.94504933425,0.0,0.0,0.0,0.0,0.0,0.0,0.0,0.0,0.0
26928000000,379,26928000000,imu_link,8.33375401675e-05,-0.378965895511,-0.000275750910405,0.925410593767,0.0,0.0,0.0,0.0,0.0,0.0,0.0,0.0,0.0,-0.00430187989325,-0.00117477706971,0.00159299944443,0.0,0.0,0.0,0.0,0.0,0.0,0.0,0.0,0.0,6.77228673768,0.00406852261832,6.94841155215,0.0,0.0,0.0,0.0,0.0,0.0,0.0,0.0,0.0
26932000000,380,26932000000,imu_link,7.39717549622e-05,-0.378967827734,-0.000275938663895,0.925409803238,0.0,0.0,0.0,0.0,0.0,0.0,0.0,0.0,0.0,-0.00436887516228,-0.00104514087597,0.00168775357348,0.0,0.0,0.0,0.0,0.0,0.0,0.0,0.0,0.0,6.77360916895,0.00406065614299,6.95254984972,0.0,0.0,0.0,0.0,0.0,0.0,0.0,0.0,0.0
26936000000,381,26936000000,imu_link,6.43906427173e-05,-0.37896965089,-0.000275997131899,0.925409057328,0.0,0.0,0.0,0.0,0.0,0.0,0.0,0.0,0.0,-0.00444402721742,-0.00098624510229,0.00178837773373,0.0,0.0,0.0,0.0,0.0,0.0,0.0,0.0,0.0,6.77294014206,0.00403794656268,6.95172809191,0.0,0.0,0.0,0.0,0.0,0.0,0.0,0.0,0.0
