%time,field.header.seq,field.header.stamp,field.header.frame_id,field.orientation.x,field.orientation.y,field.orientation.z,field.orientation.w,field.orientation_covariance0,field.orientation_covariance1,field.orientation_covariance2,field.orientation_covariance3,field.orientation_covariance4,field.orientation_covariance5,field.orientation_covariance6,field.orientation_covariance7,field.orientation_covariance8,field.angular_velocity.x,field.angular_velocity.y,field.angular_velocity.z,field.angular_velocity_covariance0,field.angular_velocity_covariance1,field.angular_velocity_covariance2,field.angular_velocity_covariance3,field.angular_velocity_covariance4,field.angular_velocity_covariance5,field.angular_velocity_covariance6,field.angular_velocity_covariance7,field.angular_velocity_covariance8,field.linear_acceleration.x,field.linear_acceleration.y,field.linear_acceleration.z,field.linear_acceleration_covariance0,field.linear_acceleration_covariance1,field.linear_acceleration_covariance2,field.linear_acceleration_covariance3,field.linear_acceleration_covariance4,field.linear_acceleration_covariance5,field.linear_acceleration_covariance6,field.linear_acceleration_covariance7,field.linear_acceleration_covariance8
22148000000,0,22148000000,imu_link,-0.00113386130365,-0.352139001256,-0.000117368747784,0.93594702007,0.0,0.0,0.0,0.0,0.0,0.0,0.0,0.0,0.0,-0.000138549160741,-0.202724344699,-0.00289961146981,0.0,0.0,0.0,0.0,0.0,0.0,0.0,0.0,0.0,5.0238955778,-0.00750346090766,8.67745282629,0.0,0.0,0.0,0.0,0.0,0.0,0.0,0.0,0.0
22152000000,1,22152000000,imu_link,-0.00113260611682,-0.352519117864,-0.000122520411673,0.935803918421,0.0,0.0,0.0,0.0,0.0,0.0,0.0,0.0,0.0,-0.000378478541835,-0.203077361394,-0.00285574017231,0.0,0.0,0.0,0.0,0.0,0.0,0.0,0.0,0.0,5.02908976297,-0.0075059865196,8.68044342586,0.0,0.0,0.0,0.0,0.0,0.0,0.0,0.0,0.0
22156000000,2,22156000000,imu_link,-0.00113190494853,-0.352900164131,-0.000127579512315,0.935660289139,0.0,0.0,0.0,0.0,0.0,0.0,0.0,0.0,0.0,-0.000621631610787,-0.203605437915,-0.00271533736714,0.0,0.0,0.0,0.0,0.0,0.0,0.0,0.0,0.0,5.03642844845,-0.00741802944577,8.68424706659,0.0,0.0,0.0,0.0,0.0,0.0,0.0,0.0,0.0
22160000000,3,22160000000,imu_link,-0.00113142949052,-0.353281933915,-0.000132380883099,0.935516209112,0.0,0.0,0.0,0.0,0.0,0.0,0.0,0.0,0.0,-0.000681958179475,-0.204023615066,-0.00255537519008,0.0,0.0,0.0,0.0,0.0,0.0,0.0,0.0,0.0,5.04458835285,-0.0076855882126,8.68228789662,0.0,0.0,0.0,0.0,0.0,0.0,0.0,0.0,0.0
22164000000,4,22164000000,imu_link,-0.00113095099766,-0.353663589946,-0.000136934375642,0.935371994099,0.0,0.0,0.0,0.0,0.0,0.0,0.0,0.0,0.0,-0.000636837044756,-0.203994390315,-0.00243990878541,0.0,0.0,0.0,0.0,0.0,0.0,0.0,0.0,0.0,5.05328041117,-0.00779219794453,8.67592549849,0.0,0.0,0.0,0.0,0.0,0.0,0.0,0.0,0.0
22168000000,5,22168000000,imu_link,-0.00113014692466,-0.354044730049,-0.00014123883681,0.93522779682,0.0,0.0,0.0,0.0,0.0,0.0,0.0,0.0,0.0,-0.000440556388472,-0.203750080606,-0.00238072025385,0.0,0.0,0.0,0.0,0.0,0.0,0.0,0.0,0.0,5.06158186213,-0.00793472103708,8.67284626861,0.0,0.0,0.0,0.0,0.0,0.0,0.0,0.0,0.0
22172000000,6,22172000000,imu_link,-0.00112888963943,-0.354425115854,-0.000145288238617,0.93508370842,0.0,0.0,0.0,0.0,0.0,0.0,0.0,0.0,0.0,-0.000183468556536,-0.203378198303,-0.00234124572708,0.0,0.0,0.0,0.0,0.0,0.0,0.0,0.0,0.0,5.06899452453,-0.00800293248556,8.66847991847,0.0,0.0,0.0,0.0,0.0,0.0,0.0,0.0,0.0
22176000000,7,22176000000,imu_link,-0.0011270092418,-0.354805115185,-0.000149004678306,0.934939590501,0.0,0.0,0.0,0.0,0.0,0.0,0.0,0.0,0.0,0.000166822928898,-0.203202879562,-0.00229577934077,0.0,0.0,0.0,0.0,0.0,0.0,0.0,0.0,0.0,5.07555344148,-0.00765471717781,8.66499030734,0.0,0.0,0.0,0.0,0.0,0.0,0.0,0.0,0.0
22180000000,8,22180000000,imu_link,-0.00112448040537,-0.355184696313,-0.000152394072439,0.934795455608,0.0,0.0,0.0,0.0,0.0,0.0,0.0,0.0,0.0,0.000527926506204,-0.203010529106,-0.00225769572343,0.0,0.0,0.0,0.0,0.0,0.0,0.0,0.0,0.0,5.08247093755,-0.00740781500108,8.66253909274,0.0,0.0,0.0,0.0,0.0,0.0,0.0,0.0,0.0
22184000000,9,22184000000,imu_link,-0.00112131781396,-0.355563474655,-0.00015550908994,0.934651450517,0.0,0.0,0.0,0.0,0.0,0.0,0.0,0.0,0.0,0.000872881176255,-0.202612363113,-0.00224154149482,0.0,0.0,0.0,0.0,0.0,0.0,0.0,0.0,0.0,5.08751469768,-0.00719413853125,8.65630515775,0.0,0.0,0.0,0.0,0.0,0.0,0.0,0.0,0.0
22188000000,10,22188000000,imu_link,-0.00111772506533,-0.355941202592,-0.000158461983713,0.934507670315,0.0,0.0,0.0,0.0,0.0,0.0,0.0,0.0,0.0,0.00110277177533,-0.20208155773,-0.0022416445961,0.0,0.0,0.0,0.0,0.0,0.0,0.0,0.0,0.0,5.09028874484,-0.00750796528972,8.6475028242,0.0,0.0,0.0,0.0,0.0,0.0,0.0,0.0,0.0
22192000000,11,22192000000,imu_link,-0.00111399058609,-0.356317586718,-0.000161363018332,0.934364227902,0.0,0.0,0.0,0.0,0.0,0.0,0.0,0.0,0.0,0.00117830766208,-0.201393558001,-0.00224185931888,0.0,0.0,0.0,0.0,0.0,0.0,0.0,0.0,0.0,5.09246309536,-0.00772777946831,8.63997075837,0.0,0.0,0.0,0.0,0.0,0.0,0.0,0.0,0.0
22196000000,12,22196000000,imu_link,-0.00111026958008,-0.356692227985,-0.000164257555127,0.934221277223,0.0,0.0,0.0,0.0,0.0,0.0,0.0,0.0,0.0,0.00117330413449,-0.200491723304,-0.00223541283929,0.0,0.0,0.0,0.0,0.0,0.0,0.0,0.0,0.0,5.09244418182,-0.00796162693406,8.62841753302,0.0,0.0,0.0,0.0,0.0,0.0,0.0,0.0,0.0
22200000000,13,22200000000,imu_link,-0.0011072291207,-0.357064520838,-0.000167335363315,0.934079051259,0.0,0.0,0.0,0.0,0.0,0.0,0.0,0.0,0.0,0.00082293723515,-0.199265457544,-0.00219828479714,0.0,0.0,0.0,0.0,0.0,0.0,0.0,0.0,0.0,5.0943347491,-0.0076026477476,8.61678625989,0.0,0.0,0.0,0.0,0.0,0.0,0.0,0.0,0.0
22204000000,14,22204000000,imu_link,-0.00110483337077,-0.357433521898,-0.000170608460476,0.933937914242,0.0,0.0,0.0,0.0,0.0,0.0,0.0,0.0,0.0,0.000487294468314,-0.197533593906,-0.00217247753179,0.0,0.0,0.0,0.0,0.0,0.0,0.0,0.0,0.0,5.09929852948,-0.00760678967765,8.60714127289,0.0,0.0,0.0,0.0,0.0,0.0,0.0,0.0,0.0
22208000000,15,22208000000,imu_link,-0.00110250325763,-0.357798151941,-0.000173891012776,0.933798284811,0.0,0.0,0.0,0.0,0.0,0.0,0.0,0.0,0.0,0.000455414281543,-0.195223033306,-0.00216261916329,0.0,0.0,0.0,0.0,0.0,0.0,0.0,0.0,0.0,5.10365030243,-0.00776729111622,8.59323580276,0.0,0.0,0.0,0.0,0.0,0.0,0.0,0.0,0.0
22212000000,16,22212000000,imu_link,-0.00109961277027,-0.358157310754,-0.000176987611496,0.933660591586,0.0,0.0,0.0,0.0,0.0,0.0,0.0,0.0,0.0,0.000750911104841,-0.192322188279,-0.00217286365291,0.0,0.0,0.0,0.0,0.0,0.0,0.0,0.0,0.0,5.10746779739,-0.00794081888949,8.57995861255,0.0,0.0,0.0,0.0,0.0,0.0,0.0,0.0,0.0
22216000000,17,22216000000,imu_link,-0.00109540523149,-0.358510341977,-0.000179652067428,0.933525094739,0.0,0.0,0.0,0.0,0.0,0.0,0.0,0.0,0.0,0.00144380353837,-0.189068439564,-0.00220341874855,0.0,0.0,0.0,0.0,0.0,0.0,0.0,0.0,0.0,5.10848945675,-0.00819205912087,8.56212899474,0.0,0.0,0.0,0.0,0.0,0.0,0.0,0.0,0.0
22220000000,18,22220000000,imu_link,-0.00108967859101,-0.358857127265,-0.000181830199423,0.933391847912,0.0,0.0,0.0,0.0,0.0,0.0,0.0,0.0,0.0,0.00224071073859,-0.185749872681,-0.00224510475442,0.0,0.0,0.0,0.0,0.0,0.0,0.0,0.0,0.0,5.11040852034,-0.00825111305544,8.54716265329,0.0,0.0,0.0,0.0,0.0,0.0,0.0,0.0,0.0
22224000000,19,22224000000,imu_link,-0.00108285145119,-0.359197544058,-0.000183606429689,0.933260905677,0.0,0.0,0.0,0.0,0.0,0.0,0.0,0.0,0.0,0.00282709862274,-0.182364330507,-0.00225132053909,0.0,0.0,0.0,0.0,0.0,0.0,0.0,0.0,0.0,5.11366178977,-0.00762293508383,8.53433037998,0.0,0.0,0.0,0.0,0.0,0.0,0.0,0.0,0.0
22228000000,20,22228000000,imu_link,-0.00107586423841,-0.359531063845,-0.00018518035763,0.933132478459,0.0,0.0,0.0,0.0,0.0,0.0,0.0,0.0,0.0,0.00293885531208,-0.17869437804,-0.00218170390585,0.0,0.0,0.0,0.0,0.0,0.0,0.0,0.0,0.0,5.11704748077,-0.00692910553355,8.52186587622,0.0,0.0,0.0,0.0,0.0,0.0,0.0,0.0,0.0
22232000000,21,22232000000,imu_link,-0.00106935463793,-0.359856655977,-0.000186675261508,0.933006971454,0.0,0.0,0.0,0.0,0.0,0.0,0.0,0.0,0.0,0.00273106017778,-0.17447073368,-0.00205444078099,0.0,0.0,0.0,0.0,0.0,0.0,0.0,0.0,0.0,5.12125090986,-0.00683443639633,8.51051689608,0.0,0.0,0.0,0.0,0.0,0.0,0.0,0.0,0.0
22236000000,22,22236000000,imu_link,-0.00106360450814,-0.360173430347,-0.000188134921172,0.93288473748,0.0,0.0,0.0,0.0,0.0,0.0,0.0,0.0,0.0,0.00238403283961,-0.169768394774,-0.00189632876911,0.0,0.0,0.0,0.0,0.0,0.0,0.0,0.0,0.0,5.12294630891,-0.00709437783481,8.49486205196,0.0,0.0,0.0,0.0,0.0,0.0,0.0,0.0,0.0
22240000000,23,22240000000,imu_link,-0.00105849328985,-0.360480907014,-0.000189521326374,0.932765972445,0.0,0.0,0.0,0.0,0.0,0.0,0.0,0.0,0.0,0.0021001797572,-0.164806940958,-0.00174182944335,0.0,0.0,0.0,0.0,0.0,0.0,0.0,0.0,0.0,5.1236947665,-0.00750284745261,8.48176776719,0.0,0.0,0.0,0.0,0.0,0.0,0.0,0.0,0.0
22244000000,24,22244000000,imu_link,-0.0010539273578,-0.360778921111,-0.000190859531009,0.932650750759,0.0,0.0,0.0,0.0,0.0,0.0,0.0,0.0,0.0,0.00185553383259,-0.159755180371,-0.00161572306391,0.0,0.0,0.0,0.0,0.0,0.0,0.0,0.0,0.0,5.12433284033,-0.00804717330354,8.47022202121,0.0,0.0,0.0,0.0,0.0,0.0,0.0,0.0,0.0
22248000000,25,22248000000,imu_link,-0.00104972726038,-0.361067213743,-0.000192158904227,0.932539183256,0.0,0.0,0.0,0.0,0.0,0.0,0.0,0.0,0.0,0.00169293852699,-0.154562693575,-0.00152615069083,0.0,0.0,0.0,0.0,0.0,0.0,0.0,0.0,0.0,5.12661287878,-0.00827502139159,8.45831517318,0.0,0.0,0.0,0.0,0.0,0.0,0.0,0.0,0.0
22252000000,26,22252000000,imu_link,-0.00104569641633,-0.361345460147,-0.000193385836014,0.932431406352,0.0,0.0,0.0,0.0,0.0,0.0,0.0,0.0,0.0,0.00162812324694,-0.14919416578,-0.00145618042722,0.0,0.0,0.0,0.0,0.0,0.0,0.0,0.0,0.0,5.13007465179,-0.00857713334331,8.44578525581,0.0,0.0,0.0,0.0,0.0,0.0,0.0,0.0,0.0
22256000000,27,22256000000,imu_link,-0.00104195907281,-0.361613519348,-0.000194582510261,0.932327484891,0.0,0.0,0.0,0.0,0.0,0.0,0.0,0.0,0.0,0.00149778617415,-0.143748201754,-0.00138334718246,0.0,0.0,0.0,0.0,0.0,0.0,0.0,0.0,0.0,5.13199541948,-0.00858935852001,8.43189938158,0.0,0.0,0.0,0.0,0.0,0.0,0.0,0.0,0.0
22260000000,28,22260000000,imu_link,-0.00103884860116,-0.361871397223,-0.000195851751798,0.93222742628,0.0,0.0,0.0,0.0,0.0,0.0,0.0,0.0,0.0,0.00119346247167,-0.138303630092,-0.00129815265722,0.0,0.0,0.0,0.0,0.0,0.0,0.0,0.0,0.0,5.13400407465,-0.00855307310005,8.42018758885,0.0,0.0,0.0,0.0,0.0,0.0,0.0,0.0,0.0
22264000000,29,22264000000,imu_link,-0.0010363343772,-0.362119376126,-0.000197166893411,0.932131130566,0.0,0.0,0.0,0.0,0.0,0.0,0.0,0.0,0.0,0.000908223452639,-0.133008775129,-0.00120615456393,0.0,0.0,0.0,0.0,0.0,0.0,0.0,0.0,0.0,5.13687634356,-0.00869094461703,8.40995705272,0.0,0.0,0.0,0.0,0.0,0.0,0.0,0.0,0.0
22268000000,30,22268000000,imu_link,-0.00103414866253,-0.36235794895,-0.000198457564829,0.932038415509,0.0,0.0,0.0,0.0,0.0,0.0,0.0,0.0,0.0,0.000760475230446,-0.127976657028,-0.00113004313501,0.0,0.0,0.0,0.0,0.0,0.0,0.0,0.0,0.0,5.13984817935,-0.00868667377039,8.40051400406,0.0,0.0,0.0,0.0,0.0,0.0,0.0,0.0,0.0
22272000000,31,22272000000,imu_link,-0.00103204413041,-0.362587487089,-0.000199684197788,0.931949145189,0.0,0.0,0.0,0.0,0.0,0.0,0.0,0.0,0.0,0.000735129713018,-0.123142247304,-0.00108047798922,0.0,0.0,0.0,0.0,0.0,0.0,0.0,0.0,0.0,5.14451145699,-0.0084660932432,8.39674325233,0.0,0.0,0.0,0.0,0.0,0.0,0.0,0.0,0.0
22276000000,32,22276000000,imu_link,-0.00102984085273,-0.362808182468,-0.000200777057154,0.931863252763,0.0,0.0,0.0,0.0,0.0,0.0,0.0,0.0,0.0,0.000806255133464,-0.118409413768,-0.00103114452836,0.0,0.0,0.0,0.0,0.0,0.0,0.0,0.0,0.0,5.14728555597,-0.00819554750341,8.38804150357,0.0,0.0,0.0,0.0,0.0,0.0,0.0,0.0,0.0
22280000000,33,22280000000,imu_link,-0.00102733718448,-0.363020262492,-0.000201668773951,0.931780657091,0.0,0.0,0.0,0.0,0.0,0.0,0.0,0.0,0.0,0.000983537373179,-0.113797276011,-0.000987150741664,0.0,0.0,0.0,0.0,0.0,0.0,0.0,0.0,0.0,5.15014502949,-0.00844106916536,8.37958885206,0.0,0.0,0.0,0.0,0.0,0.0,0.0,0.0,0.0
22284000000,34,22284000000,imu_link,-0.00102419925484,-0.363223845546,-0.000202257384406,0.931701319166,0.0,0.0,0.0,0.0,0.0,0.0,0.0,0.0,0.0,0.00133486711764,-0.109247396848,-0.000956368175053,0.0,0.0,0.0,0.0,0.0,0.0,0.0,0.0,0.0,5.1523766027,-0.00863452343938,8.37013545192,0.0,0.0,0.0,0.0,0.0,0.0,0.0,0.0,0.0
22288000000,35,22288000000,imu_link,-0.0010202221979,-0.363418813749,-0.000202491439678,0.931625291604,0.0,0.0,0.0,0.0,0.0,0.0,0.0,0.0,0.0,0.00179099060086,-0.104633057847,-0.000938847492142,0.0,0.0,0.0,0.0,0.0,0.0,0.0,0.0,0.0,5.1543299639,-0.00872736990816,8.35946719105,0.0,0.0,0.0,0.0,0.0,0.0,0.0,0.0,0.0
22292000000,36,22292000000,imu_link,-0.00101579435751,-0.363604945648,-0.00020247817822,0.931552666608,0.0,0.0,0.0,0.0,0.0,0.0,0.0,0.0,0.0,0.00204675206013,-0.0998987978713,-0.00090070383094,0.0,0.0,0.0,0.0,0.0,0.0,0.0,0.0,0.0,5.15772193914,-0.00864261006836,8.34995572917,0.0,0.0,0.0,0.0,0.0,0.0,0.0,0.0,0.0
22296000000,37,22296000000,imu_link,-0.00101128547068,-0.363782119994,-0.000202302921157,0.931483497196,0.0,0.0,0.0,0.0,0.0,0.0,0.0,0.0,0.0,0.00211480100447,-0.0950984218214,-0.000835085198735,0.0,0.0,0.0,0.0,0.0,0.0,0.0,0.0,0.0,5.1614434828,-0.00859404841297,8.33955387028,0.0,0.0,0.0,0.0,0.0,0.0,0.0,0.0,0.0
22300000000,38,22300000000,imu_link,-0.00100700526571,-0.363950664017,-0.000202037728203,0.931417661032,0.0,0.0,0.0,0.0,0.0,0.0,0.0,0.0,0.0,0.00202546530121,-0.09047270013,-0.000746902085038,0.0,0.0,0.0,0.0,0.0,0.0,0.0,0.0,0.0,5.16626213243,-0.00887141820782,8.33249565022,0.0,0.0,0.0,0.0,0.0,0.0,0.0,0.0,0.0
22304000000,39,22304000000,imu_link,-0.00100311877759,-0.364111261165,-0.000201728707922,0.931354896133,0.0,0.0,0.0,0.0,0.0,0.0,0.0,0.0,0.0,0.00185082698435,-0.0862129376887,-0.000650533028341,0.0,0.0,0.0,0.0,0.0,0.0,0.0,0.0,0.0,5.17135149204,-0.00914554702599,8.32938889888,0.0,0.0,0.0,0.0,0.0,0.0,0.0,0.0,0.0
22308000000,40,22308000000,imu_link,-0.000999293873549,-0.36426474894,-0.000201294909015,0.931294880031,0.0,0.0,0.0,0.0,0.0,0.0,0.0,0.0,0.0,0.00184552691605,-0.0824018973207,-0.000577371676238,0.0,0.0,0.0,0.0,0.0,0.0,0.0,0.0,0.0,5.17677220755,-0.00941605348406,8.32765025975,0.0,0.0,0.0,0.0,0.0,0.0,0.0,0.0,0.0
22312000000,41,22312000000,imu_link,-0.000995136275286,-0.364411821786,-0.000200616805727,0.931237345471,0.0,0.0,0.0,0.0,0.0,0.0,0.0,0.0,0.0,0.00204553511625,-0.0789629216805,-0.000520751394404,0.0,0.0,0.0,0.0,0.0,0.0,0.0,0.0,0.0,5.18208108187,-0.00960584272477,8.3245259689,0.0,0.0,0.0,0.0,0.0,0.0,0.0,0.0,0.0
22316000000,42,22316000000,imu_link,-0.000990640690794,-0.364552634813,-0.000199698171956,0.931182235227,0.0,0.0,0.0,0.0,0.0,0.0,0.0,0.0,0.0,0.0022473122417,-0.0756065938092,-0.000466981131646,0.0,0.0,0.0,0.0,0.0,0.0,0.0,0.0,0.0,5.18614381887,-0.00923165806305,8.31436892709,0.0,0.0,0.0,0.0,0.0,0.0,0.0,0.0,0.0
22320000000,43,22320000000,imu_link,-0.000986094341591,-0.364686800596,-0.000198641436439,0.931129703978,0.0,0.0,0.0,0.0,0.0,0.0,0.0,0.0,0.0,0.0022967342234,-0.0720416695889,-0.000408385362966,0.0,0.0,0.0,0.0,0.0,0.0,0.0,0.0,0.0,5.19098938917,-0.0089239652118,8.30407472126,0.0,0.0,0.0,0.0,0.0,0.0,0.0,0.0,0.0
22324000000,44,22324000000,imu_link,-0.000981620262184,-0.364813829164,-0.000197492774028,0.931079946873,0.0,0.0,0.0,0.0,0.0,0.0,0.0,0.0,0.0,0.00228050911663,-0.0682130388384,-0.000348614997927,0.0,0.0,0.0,0.0,0.0,0.0,0.0,0.0,0.0,5.19603176668,-0.00875419229645,8.29466567121,0.0,0.0,0.0,0.0,0.0,0.0,0.0,0.0,0.0
22328000000,45,22328000000,imu_link,-0.000977211177767,-0.364933785576,-0.000196280390888,0.931032941779,0.0,0.0,0.0,0.0,0.0,0.0,0.0,0.0,0.0,0.00226252681457,-0.064418719651,-0.000303352078179,0.0,0.0,0.0,0.0,0.0,0.0,0.0,0.0,0.0,5.2005066251,-0.00901714941334,8.28864582663,0.0,0.0,0.0,0.0,0.0,0.0,0.0,0.0,0.0
22332000000,46,22332000000,imu_link,-0.00097291574577,-0.365046993127,-0.000195024493774,0.930988565026,0.0,0.0,0.0,0.0,0.0,0.0,0.0,0.0,0.0,0.00221818148648,-0.0607974602747,-0.000258802324606,0.0,0.0,0.0,0.0,0.0,0.0,0.0,0.0,0.0,5.20476705137,-0.00922264853174,8.28404359639,0.0,0.0,0.0,0.0,0.0,0.0,0.0,0.0,0.0
22336000000,47,22336000000,imu_link,-0.0009688086412,-0.365153477364,-0.000193762363757,0.930946809348,0.0,0.0,0.0,0.0,0.0,0.0,0.0,0.0,0.0,0.00213227323155,-0.0571894094481,-0.000218000566545,0.0,0.0,0.0,0.0,0.0,0.0,0.0,0.0,0.0,5.20854558214,-0.00938205822386,8.2754010263,0.0,0.0,0.0,0.0,0.0,0.0,0.0,0.0,0.0
22340000000,48,22340000000,imu_link,-0.000965236720473,-0.365253474527,-0.000192606369648,0.930907584332,0.0,0.0,0.0,0.0,0.0,0.0,0.0,0.0,0.0,0.00186437882344,-0.0537078099934,-0.00016630434855,0.0,0.0,0.0,0.0,0.0,0.0,0.0,0.0,0.0,5.2136281671,-0.00934517107049,8.26866513132,0.0,0.0,0.0,0.0,0.0,0.0,0.0,0.0,0.0
22344000000,49,22344000000,imu_link,-0.000962261577829,-0.365347544614,-0.000191624563728,0.930870672531,0.0,0.0,0.0,0.0,0.0,0.0,0.0,0.0,0.0,0.0015553403817,-0.050526547722,-0.00013530998092,0.0,0.0,0.0,0.0,0.0,0.0,0.0,0.0,0.0,5.2206669523,-0.00945550277471,8.26801684664,0.0,0.0,0.0,0.0,0.0,0.0,0.0,0.0,0.0
22348000000,50,22348000000,imu_link,-0.000959782945026,-0.36543617608,-0.000190868217597,0.930835884352,0.0,0.0,0.0,0.0,0.0,0.0,0.0,0.0,0.0,0.00128356221782,-0.0476072308763,-0.000146727451383,0.0,0.0,0.0,0.0,0.0,0.0,0.0,0.0,0.0,5.22736194605,-0.00962374078938,8.26584573822,0.0,0.0,0.0,0.0,0.0,0.0,0.0,0.0,0.0
22352000000,51,22352000000,imu_link,-0.000957318002946,-0.365519392906,-0.000190333126295,0.930803212674,0.0,0.0,0.0,0.0,0.0,0.0,0.0,0.0,0.0,0.00123726199947,-0.0447003322765,-0.000244401449981,0.0,0.0,0.0,0.0,0.0,0.0,0.0,0.0,0.0,5.23397144402,-0.00989209103854,8.26181469903,0.0,0.0,0.0,0.0,0.0,0.0,0.0,0.0,0.0
22356000000,52,22356000000,imu_link,-0.000954336228087,-0.365596952604,-0.000189972250996,0.930772754973,0.0,0.0,0.0,0.0,0.0,0.0,0.0,0.0,0.0,0.00144647851108,-0.041662737006,-0.000417019527847,0.0,0.0,0.0,0.0,0.0,0.0,0.0,0.0,0.0,5.23918595735,-0.0101320518394,8.2526133869,0.0,0.0,0.0,0.0,0.0,0.0,0.0,0.0,0.0
22360000000,53,22360000000,imu_link,-0.000950462586278,-0.365668749961,-0.000189702961612,0.93074455461,0.0,0.0,0.0,0.0,0.0,0.0,0.0,0.0,0.0,0.00184532926216,-0.038568256175,-0.00061971026396,0.0,0.0,0.0,0.0,0.0,0.0,0.0,0.0,0.0,5.24411290413,-0.0103204616689,8.24320307081,0.0,0.0,0.0,0.0,0.0,0.0,0.0,0.0,0.0
22364000000,54,22364000000,imu_link,-0.000945645080164,-0.365734838537,-0.000189462277194,0.930718592132,0.0,0.0,0.0,0.0,0.0,0.0,0.0,0.0,0.0,0.00227986959977,-0.0355022823233,-0.000802667804798,0.0,0.0,0.0,0.0,0.0,0.0,0.0,0.0,0.0,5.24963627739,-0.010144818551,8.2366868556,0.0,0.0,0.0,0.0,0.0,0.0,0.0,0.0,0.0
22368000000,55,22368000000,imu_link,-0.000940137329072,-0.365795429841,-0.000189243010645,0.930694785543,0.0,0.0,0.0,0.0,0.0,0.0,0.0,0.0,0.0,0.00259766347569,-0.032549757976,-0.000936054662549,0.0,0.0,0.0,0.0,0.0,0.0,0.0,0.0,0.0,5.25509921032,-0.00986855358005,8.23185011991,0.0,0.0,0.0,0.0,0.0,0.0,0.0,0.0,0.0
22372000000,56,22372000000,imu_link,-0.000934314466266,-0.365851060522,-0.000189078136086,0.930672924727,0.0,0.0,0.0,0.0,0.0,0.0,0.0,0.0,0.0,0.00273479698488,-0.0298854120787,-0.00101648310055,0.0,0.0,0.0,0.0,0.0,0.0,0.0,0.0,0.0,5.26195406009,-0.0097361365569,8.23403653113,0.0,0.0,0.0,0.0,0.0,0.0,0.0,0.0,0.0
22376000000,57,22376000000,imu_link,-0.000928396910424,-0.365902231556,-0.000188998161192,0.930652813514,0.0,0.0,0.0,0.0,0.0,0.0,0.0,0.0,0.0,0.00276372651821,-0.027490080207,-0.00107106302158,0.0,0.0,0.0,0.0,0.0,0.0,0.0,0.0,0.0,5.26721161056,-0.00975492721487,8.23121005085,0.0,0.0,0.0,0.0,0.0,0.0,0.0,0.0,0.0
22380000000,58,22380000000,imu_link,-0.000922460339308,-0.365949238368,-0.000189023344891,0.930634336501,0.0,0.0,0.0,0.0,0.0,0.0,0.0,0.0,0.0,0.00275370102349,-0.0252533285069,-0.00112138750173,0.0,0.0,0.0,0.0,0.0,0.0,0.0,0.0,0.0,5.2716767129,-0.00982030507965,8.22418675114,0.0,0.0,0.0,0.0,0.0,0.0,0.0,0.0,0.0
22384000000,59,22384000000,imu_link,-0.000916591120912,-0.365992273635,-0.000189172689085,0.930617418553,0.0,0.0,0.0,0.0,0.0,0.0,0.0,0.0,0.0,0.00269998615673,-0.0231199799561,-0.00116485852628,0.0,0.0,0.0,0.0,0.0,0.0,0.0,0.0,0.0,5.27673901155,-0.00987188933851,8.21755223782,0.0,0.0,0.0,0.0,0.0,0.0,0.0,0.0,0.0
22388000000,60,22388000000,imu_link,-0.000910807007025,-0.366031570113,-0.000189413255156,0.930601968746,0.0,0.0,0.0,0.0,0.0,0.0,0.0,0.0,0.0,0.00264401224024,-0.0211115912809,-0.00118987872761,0.0,0.0,0.0,0.0,0.0,0.0,0.0,0.0,0.0,5.28272580182,-0.00990379476162,8.21275655503,0.0,0.0,0.0,0.0,0.0,0.0,0.0,0.0,0.0
22392000000,61,22392000000,imu_link,-0.000905022026927,-0.366067338827,-0.000189654490746,0.93058790472,0.0,0.0,0.0,0.0,0.0,0.0,0.0,0.0,0.0,0.00264458974246,-0.0192164988168,-0.00118861098689,0.0,0.0,0.0,0.0,0.0,0.0,0.0,0.0,0.0,5.28936884008,-0.0100190196281,8.20921375893,0.0,0.0,0.0,0.0,0.0,0.0,0.0,0.0,0.0
22396000000,62,22396000000,imu_link,-0.000899138870824,-0.366099732592,-0.000189845477021,0.930575166928,0.0,0.0,0.0,0.0,0.0,0.0,0.0,0.0,0.0,0.00269974785943,-0.0174034234336,-0.00118154683372,0.0,0.0,0.0,0.0,0.0,0.0,0.0,0.0,0.0,5.29559675448,-0.0100915125275,8.20393208542,0.0,0.0,0.0,0.0,0.0,0.0,0.0,0.0,0.0
22400000000,63,22400000000,imu_link,-0.000893084681185,-0.366128555129,-0.000189972729972,0.930563833076,0.0,0.0,0.0,0.0,0.0,0.0,0.0,0.0,0.0,0.00279128619329,-0.015484796706,-0.00118146139446,0.0,0.0,0.0,0.0,0.0,0.0,0.0,0.0,0.0,5.30092400973,-0.0101301964385,8.19417220918,0.0,0.0,0.0,0.0,0.0,0.0,0.0,0.0,0.0
22404000000,64,22404000000,imu_link,-0.00088688433529,-0.366153618746,-0.000190034273933,0.930553977372,0.0,0.0,0.0,0.0,0.0,0.0,0.0,0.0,0.0,0.00287162203398,-0.0134652588554,-0.0011758252584,0.0,0.0,0.0,0.0,0.0,0.0,0.0,0.0,0.0,5.30728938374,-0.0101419735694,8.18755431053,0.0,0.0,0.0,0.0,0.0,0.0,0.0,0.0,0.0
22412000000,65,22412000000,imu_link,-0.000875660816988,-0.366192873709,-0.000190145151367,0.930538541011,0.0,0.0,0.0,0.0,0.0,0.0,0.0,0.0,0.0,0.00240134628188,-0.00964163158559,-0.000997801246509,0.0,0.0,0.0,0.0,0.0,0.0,0.0,0.0,0.0,5.31737894314,-0.00995033507075,8.18177246104,0.0,0.0,0.0,0.0,0.0,0.0,0.0,0.0,0.0
22416000000,66,22416000000,imu_link,-0.000871732482898,-0.366207792754,-0.000190339445161,0.930532673462,0.0,0.0,0.0,0.0,0.0,0.0,0.0,0.0,0.0,0.00179100803535,-0.0080152418891,-0.000816752761075,0.0,0.0,0.0,0.0,0.0,0.0,0.0,0.0,0.0,5.32735423762,-0.0100382119149,8.17975179286,0.0,0.0,0.0,0.0,0.0,0.0,0.0,0.0,0.0
22420000000,67,22420000000,imu_link,-0.000869047702081,-0.366219755634,-0.000190625966038,0.930527967877,0.0,0.0,0.0,0.0,0.0,0.0,0.0,0.0,0.0,0.00119576254539,-0.00642715576334,-0.000630564391929,0.0,0.0,0.0,0.0,0.0,0.0,0.0,0.0,0.0,5.33341047799,-0.0104374366335,8.17499595281,0.0,0.0,0.0,0.0,0.0,0.0,0.0,0.0,0.0
22424000000,68,22424000000,imu_link,-0.00086710715324,-0.366228800708,-0.000190895458425,0.930524409791,0.0,0.0,0.0,0.0,0.0,0.0,0.0,0.0,0.0,0.000852836806542,-0.00485956584385,-0.000484988195015,0.0,0.0,0.0,0.0,0.0,0.0,0.0,0.0,0.0,5.34021470033,-0.010819943833,8.17240115137,0.0,0.0,0.0,0.0,0.0,0.0,0.0,0.0,0.0
22428000000,69,22428000000,imu_link,-0.000864979682975,-0.366235019602,-0.000190968077271,0.930521964146,0.0,0.0,0.0,0.0,0.0,0.0,0.0,0.0,0.0,0.000976067211497,-0.003341014348,-0.00042628690096,0.0,0.0,0.0,0.0,0.0,0.0,0.0,0.0,0.0,5.34717330283,-0.0111446683516,8.17069341627,0.0,0.0,0.0,0.0,0.0,0.0,0.0,0.0,0.0
22432000000,70,22432000000,imu_link,-0.000861940316179,-0.366238840855,-0.000190720281198,0.930520463039,0.0,0.0,0.0,0.0,0.0,0.0,0.0,0.0,0.0,0.00145919023491,-0.00205257637186,-0.000443067420093,0.0,0.0,0.0,0.0,0.0,0.0,0.0,0.0,0.0,5.3540058867,-0.0112212222264,8.17004998208,0.0,0.0,0.0,0.0,0.0,0.0,0.0,0.0,0.0
22436000000,71,22436000000,imu_link,-0.000857947126376,-0.366240832349,-0.00019018434505,0.930519683014,0.0,0.0,0.0,0.0,0.0,0.0,0.0,0.0,0.0,0.00195586647127,-0.00106925039566,-0.00048281348356,0.0,0.0,0.0,0.0,0.0,0.0,0.0,0.0,0.0,5.35940564972,-0.0110903789787,8.16572019749,0.0,0.0,0.0,0.0,0.0,0.0,0.0,0.0,0.0
22440000000,72,22440000000,imu_link,-0.000853395354543,-0.366241430111,-0.00018947747446,0.930519452072,0.0,0.0,0.0,0.0,0.0,0.0,0.0,0.0,0.0,0.00224715685259,-0.000320275616094,-0.000504922239119,0.0,0.0,0.0,0.0,0.0,0.0,0.0,0.0,0.0,5.36514039452,-0.0109288205943,8.16129380086,0.0,0.0,0.0,0.0,0.0,0.0,0.0,0.0,0.0
22444000000,73,22444000000,imu_link,-0.000848790533375,-0.366240841575,-0.00018870687089,0.930519688081,0.0,0.0,0.0,0.0,0.0,0.0,0.0,0.0,0.0,0.00228359625922,0.0003171479333,-0.000484433852582,0.0,0.0,0.0,0.0,0.0,0.0,0.0,0.0,0.0,5.37190295427,-0.0108042955767,8.15869898556,0.0,0.0,0.0,0.0,0.0,0.0,0.0,0.0,0.0
22448000000,74,22448000000,imu_link,-0.000844276961711,-0.366239139706,-0.000187903803076,0.930520362182,0.0,0.0,0.0,0.0,0.0,0.0,0.0,0.0,0.0,0.00224716727247,0.000915337828903,-0.000452106067963,0.0,0.0,0.0,0.0,0.0,0.0,0.0,0.0,0.0,5.37737395227,-0.0108073586491,8.15170713042,0.0,0.0,0.0,0.0,0.0,0.0,0.0,0.0,0.0
22452000000,75,22452000000,imu_link,-0.000839924121539,-0.366236419182,-0.000187092563228,0.930521437039,0.0,0.0,0.0,0.0,0.0,0.0,0.0,0.0,0.0,0.00217395523845,0.0014626456041,-0.000418403198,0.0,0.0,0.0,0.0,0.0,0.0,0.0,0.0,0.0,5.38243725724,-0.0108320344346,8.14357278572,0.0,0.0,0.0,0.0,0.0,0.0,0.0,0.0,0.0
22456000000,76,22456000000,imu_link,-0.000835845325161,-0.366232863593,-0.000186321147806,0.930522840274,0.0,0.0,0.0,0.0,0.0,0.0,0.0,0.0,0.0,0.00203922063815,0.00191129098089,-0.000386368116976,0.0,0.0,0.0,0.0,0.0,0.0,0.0,0.0,0.0,5.38829808825,-0.0107946092661,8.13808574761,0.0,0.0,0.0,0.0,0.0,0.0,0.0,0.0,0.0
22460000000,77,22460000000,imu_link,-0.000832155157311,-0.366228696258,-0.000185613275341,0.930524483881,0.0,0.0,0.0,0.0,0.0,0.0,0.0,0.0,0.0,0.00184681448359,0.00223991965379,-0.000344489877881,0.0,0.0,0.0,0.0,0.0,0.0,0.0,0.0,0.0,5.39502679054,-0.0108010483836,8.13543512472,0.0,0.0,0.0,0.0,0.0,0.0,0.0,0.0,0.0
22464000000,78,22464000000,imu_link,-0.000828999531816,-0.36622402998,-0.000184987793126,0.930526323327,0.0,0.0,0.0,0.0,0.0,0.0,0.0,0.0,0.0,0.00158306045123,0.0025079047216,-0.000284714801294,0.0,0.0,0.0,0.0,0.0,0.0,0.0,0.0,0.0,5.40139651429,-0.0108663592656,8.13136778313,0.0,0.0,0.0,0.0,0.0,0.0,0.0,0.0,0.0
22468000000,79,22468000000,imu_link,-0.000826610984364,-0.366218865297,-0.000184465186872,0.930528358186,0.0,0.0,0.0,0.0,0.0,0.0,0.0,0.0,0.0,0.00120736437035,0.00277554809238,-0.000191893326987,0.0,0.0,0.0,0.0,0.0,0.0,0.0,0.0,0.0,5.4088686705,-0.0110322945411,8.13006718166,0.0,0.0,0.0,0.0,0.0,0.0,0.0,0.0,0.0
22472000000,80,22472000000,imu_link,-0.00082491828385,-0.366213029714,-0.000184016057041,0.930530656408,0.0,0.0,0.0,0.0,0.0,0.0,0.0,0.0,0.0,0.000870204460702,0.00313588427259,-9.83615593991e-05,0.0,0.0,0.0,0.0,0.0,0.0,0.0,0.0,0.0,5.41592294953,-0.0112389263573,8.12655914924,0.0,0.0,0.0,0.0,0.0,0.0,0.0,0.0,0.0
22476000000,81,22476000000,imu_link,-0.000823496669564,-0.366206352609,-0.000183569931985,0.930533285522,0.0,0.0,0.0,0.0,0.0,0.0,0.0,0.0,0.0,0.000743586296104,0.00358798019435,-4.97443841492e-05,0.0,0.0,0.0,0.0,0.0,0.0,0.0,0.0,0.0,5.42176493821,-0.0114790915082,8.11960113861,0.0,0.0,0.0,0.0,0.0,0.0,0.0,0.0,0.0
22480000000,82,22480000000,imu_link,-0.000821745840201,-0.36619859355,-0.000183029337181,0.930536340674,0.0,0.0,0.0,0.0,0.0,0.0,0.0,0.0,0.0,0.000914132914814,0.00416937750579,-6.55864913098e-05,0.0,0.0,0.0,0.0,0.0,0.0,0.0,0.0,0.0,5.42771014293,-0.0116641375323,8.11279536356,0.0,0.0,0.0,0.0,0.0,0.0,0.0,0.0,0.0
22484000000,83,22484000000,imu_link,-0.000819265213628,-0.366189620805,-0.000182330692797,0.930539874038,0.0,0.0,0.0,0.0,0.0,0.0,0.0,0.0,0.0,0.00128270850807,0.00482162889739,-0.000125133974436,0.0,0.0,0.0,0.0,0.0,0.0,0.0,0.0,0.0,5.43401574443,-0.0117293945577,8.10808131515,0.0,0.0,0.0,0.0,0.0,0.0,0.0,0.0,0.0
22488000000,84,22488000000,imu_link,-0.000815992381651,-0.366179623646,-0.000181439769156,0.930543811146,0.0,0.0,0.0,0.0,0.0,0.0,0.0,0.0,0.0,0.0016865751965,0.00537217530409,-0.000180264473356,0.0,0.0,0.0,0.0,0.0,0.0,0.0,0.0,0.0,5.43967185058,-0.0116743569595,8.10357199208,0.0,0.0,0.0,0.0,0.0,0.0,0.0,0.0,0.0
22492000000,85,22492000000,imu_link,-0.000811891619907,-0.366169126456,-0.000180301590509,0.93054794565,0.0,0.0,0.0,0.0,0.0,0.0,0.0,0.0,0.0,0.00211709270309,0.00564094075231,-0.000216587252923,0.0,0.0,0.0,0.0,0.0,0.0,0.0,0.0,0.0,5.44721192393,-0.0115930466497,8.10651422087,0.0,0.0,0.0,0.0,0.0,0.0,0.0,0.0,0.0
22496000000,86,22496000000,imu_link,-0.000806932136739,-0.366158699363,-0.000178900048884,0.930552053211,0.0,0.0,0.0,0.0,0.0,0.0,0.0,0.0,0.0,0.00256484651006,0.0056033640176,-0.00025130083525,0.0,0.0,0.0,0.0,0.0,0.0,0.0,0.0,0.0,5.45396768693,-0.0115016227907,8.10727666434,0.0,0.0,0.0,0.0,0.0,0.0,0.0,0.0,0.0
22500000000,87,22500000000,imu_link,-0.000801037713345,-0.366148581329,-0.000177252291783,0.930556039855,0.0,0.0,0.0,0.0,0.0,0.0,0.0,0.0,0.0,0.00304490761156,0.00543741321062,-0.000308046436211,0.0,0.0,0.0,0.0,0.0,0.0,0.0,0.0,0.0,5.4604007829,-0.0114024400602,8.10495311892,0.0,0.0,0.0,0.0,0.0,0.0,0.0,0.0,0.0
22504000000,88,22504000000,imu_link,-0.000794069744351,-0.366138726569,-0.000175407205891,0.930559923698,0.0,0.0,0.0,0.0,0.0,0.0,0.0,0.0,0.0,0.00358051277015,0.00529611358725,-0.000412886843492,0.0,0.0,0.0,0.0,0.0,0.0,0.0,0.0,0.0,5.46674789418,-0.0112980851388,8.1006752809,0.0,0.0,0.0,0.0,0.0,0.0,0.0,0.0,0.0
22508000000,89,22508000000,imu_link,-0.000785857872197,-0.366128844753,-0.000173398312343,0.930563819091,0.0,0.0,0.0,0.0,0.0,0.0,0.0,0.0,0.0,0.00418926636153,0.00531086082225,-0.000564379227429,0.0,0.0,0.0,0.0,0.0,0.0,0.0,0.0,0.0,5.47213009485,-0.0112191530624,8.09240166563,0.0,0.0,0.0,0.0,0.0,0.0,0.0,0.0,0.0
22512000000,90,22512000000,imu_link,-0.000776503837214,-0.366118786431,-0.000171246007884,0.930567784709,0.0,0.0,0.0,0.0,0.0,0.0,0.0,0.0,0.0,0.00474695979027,0.00540588404697,-0.000706666661075,0.0,0.0,0.0,0.0,0.0,0.0,0.0,0.0,0.0,5.47739547916,-0.0111218101259,8.08500791886,0.0,0.0,0.0,0.0,0.0,0.0,0.0,0.0,0.0
22516000000,91,22516000000,imu_link,-0.000766199655541,-0.366108713482,-0.000168929520122,0.930571756671,0.0,0.0,0.0,0.0,0.0,0.0,0.0,0.0,0.0,0.00521910424658,0.00541386867671,-0.000804201869465,0.0,0.0,0.0,0.0,0.0,0.0,0.0,0.0,0.0,5.48267174278,-0.0110043637393,8.07960192631,0.0,0.0,0.0,0.0,0.0,0.0,0.0,0.0,0.0
22520000000,92,22520000000,imu_link,-0.000755061297758,-0.366099016148,-0.000166419267195,0.930575581327,0.0,0.0,0.0,0.0,0.0,0.0,0.0,0.0,0.0,0.00564267946205,0.00521213188,-0.000866901584984,0.0,0.0,0.0,0.0,0.0,0.0,0.0,0.0,0.0,5.48875563344,-0.0109110961432,8.07764827164,0.0,0.0,0.0,0.0,0.0,0.0,0.0,0.0,0.0
22524000000,93,22524000000,imu_link,-0.000743119226449,-0.366089876717,-0.000163662359197,0.930579186934,0.0,0.0,0.0,0.0,0.0,0.0,0.0,0.0,0.0,0.00606175136717,0.00491242302434,-0.000899484210639,0.0,0.0,0.0,0.0,0.0,0.0,0.0,0.0,0.0,5.49424546508,-0.0108518924873,8.07281859426,0.0,0.0,0.0,0.0,0.0,0.0,0.0,0.0,0.0
22528000000,94,22528000000,imu_link,-0.000730280273468,-0.366081135975,-0.000160619441907,0.930582636188,0.0,0.0,0.0,0.0,0.0,0.0,0.0,0.0,0.0,0.00653138816028,0.00469826473154,-0.000930737645383,0.0,0.0,0.0,0.0,0.0,0.0,0.0,0.0,0.0,5.49955713741,-0.0108418418945,8.0655488207,0.0,0.0,0.0,0.0,0.0,0.0,0.0,0.0,0.0
22532000000,95,22532000000,imu_link,-0.00071653693615,-0.3660725132,-0.000157285119903,0.930586039502,0.0,0.0,0.0,0.0,0.0,0.0,0.0,0.0,0.0,0.00700552192406,0.00463493295669,-0.000960735348215,0.0,0.0,0.0,0.0,0.0,0.0,0.0,0.0,0.0,5.50513575486,-0.0108018018724,8.05857295483,0.0,0.0,0.0,0.0,0.0,0.0,0.0,0.0,0.0
22536000000,96,22536000000,imu_link,-0.000701861137052,-0.366063901632,-0.000153669296185,0.93058943885,0.0,0.0,0.0,0.0,0.0,0.0,0.0,0.0,0.0,0.00749091436175,0.00462896505404,-0.00100043320665,0.0,0.0,0.0,0.0,0.0,0.0,0.0,0.0,0.0,5.51007074134,-0.010762269761,8.05129591376,0.0,0.0,0.0,0.0,0.0,0.0,0.0,0.0,0.0
22540000000,97,22540000000,imu_link,-0.000686335111161,-0.366055597757,-0.000149772972651,0.930592717499,0.0,0.0,0.0,0.0,0.0,0.0,0.0,0.0,0.0,0.00793784211272,0.00446367243499,-0.00102565404429,0.0,0.0,0.0,0.0,0.0,0.0,0.0,0.0,0.0,5.51590965961,-0.0106962053576,8.04940524465,0.0,0.0,0.0,0.0,0.0,0.0,0.0,0.0,0.0
22544000000,98,22544000000,imu_link,-0.000670280606987,-0.366047990562,-0.00014564320316,0.930595722168,0.0,0.0,0.0,0.0,0.0,0.0,0.0,0.0,0.0,0.00822642638341,0.00408932305494,-0.00101401830286,0.0,0.0,0.0,0.0,0.0,0.0,0.0,0.0,0.0,5.52189960391,-0.010611778315,8.04855214797,0.0,0.0,0.0,0.0,0.0,0.0,0.0,0.0,0.0
22548000000,99,22548000000,imu_link,-0.000654483534199,-0.36604112348,-0.000141403405293,0.93059843519,0.0,0.0,0.0,0.0,0.0,0.0,0.0,0.0,0.0,0.00812673809676,0.00369151657876,-0.000915975493755,0.0,0.0,0.0,0.0,0.0,0.0,0.0,0.0,0.0,5.52828991541,-0.0105176135514,8.04644842822,0.0,0.0,0.0,0.0,0.0,0.0,0.0,0.0,0.0
22552000000,100,22552000000,imu_link,-0.000639819762656,-0.366034855596,-0.000137192493013,0.9306009114,0.0,0.0,0.0,0.0,0.0,0.0,0.0,0.0,0.0,0.00759409212751,0.00336929746403,-0.000722211330432,0.0,0.0,0.0,0.0,0.0,0.0,0.0,0.0,0.0,5.53503306171,-0.0105772397479,8.04401380728,0.0,0.0,0.0,0.0,0.0,0.0,0.0,0.0,0.0
22556000000,101,22556000000,imu_link,-0.000626884524167,-0.36602907887,-0.000133063398363,0.930603192952,0.0,0.0,0.0,0.0,0.0,0.0,0.0,0.0,0.0,0.00677480227512,0.00310504332329,-0.000444099916257,0.0,0.0,0.0,0.0,0.0,0.0,0.0,0.0,0.0,5.54000494772,-0.0108366691016,8.03713567653,0.0,0.0,0.0,0.0,0.0,0.0,0.0,0.0,0.0
22560000000,102,22560000000,imu_link,-0.000615794808636,-0.366023984215,-0.000128980455022,0.930605204767,0.0,0.0,0.0,0.0,0.0,0.0,0.0,0.0,0.0,0.00590759196888,0.0027382006801,-0.000128048395761,0.0,0.0,0.0,0.0,0.0,0.0,0.0,0.0,0.0,5.54502230659,-0.0112720612341,8.03244267555,0.0,0.0,0.0,0.0,0.0,0.0,0.0,0.0,0.0
22564000000,103,22564000000,imu_link,-0.00060632347741,-0.366019533726,-0.000124880844164,0.930606961992,0.0,0.0,0.0,0.0,0.0,0.0,0.0,0.0,0.0,0.00515756704955,0.00239176560283,0.000175676022729,0.0,0.0,0.0,0.0,0.0,0.0,0.0,0.0,0.0,5.55047882713,-0.0117154115508,8.02750351656,0.0,0.0,0.0,0.0,0.0,0.0,0.0,0.0,0.0
22568000000,104,22568000000,imu_link,-0.000597826692118,-0.36601518723,-0.000120677857574,0.930608677564,0.0,0.0,0.0,0.0,0.0,0.0,0.0,0.0,0.0,0.00472302006879,0.00233566287848,0.000402094408122,0.0,0.0,0.0,0.0,0.0,0.0,0.0,0.0,0.0,5.55607540176,-0.0121540022745,8.01993580153,0.0,0.0,0.0,0.0,0.0,0.0,0.0,0.0,0.0
22572000000,105,22572000000,imu_link,-0.000589522733892,-0.366010035701,-0.000116299751941,0.930610709536,0.0,0.0,0.0,0.0,0.0,0.0,0.0,0.0,0.0,0.00466539091404,0.00276808734625,0.000519126602167,0.0,0.0,0.0,0.0,0.0,0.0,0.0,0.0,0.0,5.56337641561,-0.0125116520552,8.01531095244,0.0,0.0,0.0,0.0,0.0,0.0,0.0,0.0,0.0
22576000000,106,22576000000,imu_link,-0.000580940504142,-0.366003527825,-0.000111705902719,0.930613275023,0.0,0.0,0.0,0.0,0.0,0.0,0.0,0.0,0.0,0.00483443269202,0.00349679172485,0.000569018986768,0.0,0.0,0.0,0.0,0.0,0.0,0.0,0.0,0.0,5.56768268533,-0.0126862265157,8.00515738023,0.0,0.0,0.0,0.0,0.0,0.0,0.0,0.0,0.0
22580000000,107,22580000000,imu_link,-0.000572094335995,-0.365995539522,-0.000106957676514,0.930616422764,0.0,0.0,0.0,0.0,0.0,0.0,0.0,0.0,0.0,0.00498558268153,0.00429216737534,0.000593012969756,0.0,0.0,0.0,0.0,0.0,0.0,0.0,0.0,0.0,5.57178555122,-0.0126943815529,7.99726095532,0.0,0.0,0.0,0.0,0.0,0.0,0.0,0.0,0.0
22584000000,108,22584000000,imu_link,-0.000563351886903,-0.365986502965,-0.00010220574187,0.930619982504,0.0,0.0,0.0,0.0,0.0,0.0,0.0,0.0,0.0,0.00493806178175,0.00485531680761,0.000614040776093,0.0,0.0,0.0,0.0,0.0,0.0,0.0,0.0,0.0,5.57702595834,-0.012636119061,7.99624627897,0.0,0.0,0.0,0.0,0.0,0.0,0.0,0.0,0.0
22588000000,109,22588000000,imu_link,-0.000555091673611,-0.365976974526,-9.75809548771e-05,0.930623735173,0.0,0.0,0.0,0.0,0.0,0.0,0.0,0.0,0.0,0.00469043469034,0.00511951050868,0.000643272011276,0.0,0.0,0.0,0.0,0.0,0.0,0.0,0.0,0.0,5.58220761286,-0.0126460053417,7.99576712567,0.0,0.0,0.0,0.0,0.0,0.0,0.0,0.0,0.0
22592000000,110,22592000000,imu_link,-0.000547349919978,-0.365967118016,-9.30992237161e-05,0.930627616328,0.0,0.0,0.0,0.0,0.0,0.0,0.0,0.0,0.0,0.00442303134171,0.00529569129345,0.000671675907121,0.0,0.0,0.0,0.0,0.0,0.0,0.0,0.0,0.0,5.58635166617,-0.0127843068658,7.99000527865,0.0,0.0,0.0,0.0,0.0,0.0,0.0,0.0,0.0
22596000000,111,22596000000,imu_link,-0.000540014462031,-0.365956945957,-8.87396070925e-05,0.930631621113,0.0,0.0,0.0,0.0,0.0,0.0,0.0,0.0,0.0,0.0042116505419,0.00546515784119,0.000689291870421,0.0,0.0,0.0,0.0,0.0,0.0,0.0,0.0,0.0,5.59035735661,-0.0129359441648,7.98266994337,0.0,0.0,0.0,0.0,0.0,0.0,0.0,0.0,0.0
22600000000,112,22600000000,imu_link,-0.000532674098939,-0.365946445495,-8.44142113097e-05,0.930635754827,0.0,0.0,0.0,0.0,0.0,0.0,0.0,0.0,0.0,0.00420769154719,0.00564156940106,0.000672565227662,0.0,0.0,0.0,0.0,0.0,0.0,0.0,0.0,0.0,5.59531376914,-0.0131796962155,7.97783363671,0.0,0.0,0.0,0.0,0.0,0.0,0.0,0.0,0.0
22604000000,113,22604000000,imu_link,-0.000524797968497,-0.365935560652,-8.00367376266e-05,0.930640039775,0.0,0.0,0.0,0.0,0.0,0.0,0.0,0.0,0.0,0.00446654658991,0.00584810931041,0.000598875685142,0.0,0.0,0.0,0.0,0.0,0.0,0.0,0.0,0.0,5.60067875952,-0.0134037820667,7.97398627284,0.0,0.0,0.0,0.0,0.0,0.0,0.0,0.0,0.0
22608000000,114,22608000000,imu_link,-0.000516054064223,-0.36592418379,-7.55280329618e-05,0.930644518439,0.0,0.0,0.0,0.0,0.0,0.0,0.0,0.0,0.0,0.00489438130925,0.00611249991875,0.000501302294057,0.0,0.0,0.0,0.0,0.0,0.0,0.0,0.0,0.0,5.60489793883,-0.0134825476557,7.96664556045,0.0,0.0,0.0,0.0,0.0,0.0,0.0,0.0,0.0
22612000000,115,22612000000,imu_link,-0.00050634598956,-0.365912241534,-7.08502926308e-05,0.930649219679,0.0,0.0,0.0,0.0,0.0,0.0,0.0,0.0,0.0,0.00537399445161,0.00641630584599,0.000403706012718,0.0,0.0,0.0,0.0,0.0,0.0,0.0,0.0,0.0,5.60983257088,-0.0134536515378,7.96140979599,0.0,0.0,0.0,0.0,0.0,0.0,0.0,0.0,0.0
22616000000,116,22616000000,imu_link,-0.000495834793707,-0.365899785089,-6.60269083903e-05,0.930654123216,0.0,0.0,0.0,0.0,0.0,0.0,0.0,0.0,0.0,0.00577438595153,0.00669257347265,0.000324679115902,0.0,0.0,0.0,0.0,0.0,0.0,0.0,0.0,0.0,5.61372214415,-0.0133533211014,7.954461497,0.0,0.0,0.0,0.0,0.0,0.0,0.0,0.0,0.0
22620000000,117,22620000000,imu_link,-0.000484888015353,-0.365886932794,-6.1148232483e-05,0.930659182276,0.0,0.0,0.0,0.0,0.0,0.0,0.0,0.0,0.0,0.00598721536982,0.00690522739076,0.000270821325686,0.0,0.0,0.0,0.0,0.0,0.0,0.0,0.0,0.0,5.61748328061,-0.0132457235386,7.94770500133,0.0,0.0,0.0,0.0,0.0,0.0,0.0,0.0,0.0
22624000000,118,22624000000,imu_link,-0.000473905804801,-0.365873898745,-5.63276619315e-05,0.930664312444,0.0,0.0,0.0,0.0,0.0,0.0,0.0,0.0,0.0,0.00599308470756,0.00700282613287,0.000237347334025,0.0,0.0,0.0,0.0,0.0,0.0,0.0,0.0,0.0,5.62179813892,-0.0131823757887,7.94324939699,0.0,0.0,0.0,0.0,0.0,0.0,0.0,0.0,0.0
22628000000,119,22628000000,imu_link,-0.000463212444474,-0.365860809881,-5.16528393833e-05,0.930669463644,0.0,0.0,0.0,0.0,0.0,0.0,0.0,0.0,0.0,0.00583201415429,0.00703220778101,0.000222381061541,0.0,0.0,0.0,0.0,0.0,0.0,0.0,0.0,0.0,5.62623009166,-0.0131713461688,7.93872027604,0.0,0.0,0.0,0.0,0.0,0.0,0.0,0.0,0.0
22632000000,120,22632000000,imu_link,-0.000453000810554,-0.365847829584,-4.71631967933e-05,0.930674571563,0.0,0.0,0.0,0.0,0.0,0.0,0.0,0.0,0.0,0.00557396786059,0.00697380045352,0.000224306539326,0.0,0.0,0.0,0.0,0.0,0.0,0.0,0.0,0.0,5.63076201406,-0.0132205261391,7.93493713263,0.0,0.0,0.0,0.0,0.0,0.0,0.0,0.0,0.0
22636000000,121,22636000000,imu_link,-0.000443292938729,-0.365835021893,-4.28575930612e-05,0.930679611043,0.0,0.0,0.0,0.0,0.0,0.0,0.0,0.0,0.0,0.00530587203534,0.00688099141267,0.000230775822039,0.0,0.0,0.0,0.0,0.0,0.0,0.0,0.0,0.0,5.63408397563,-0.0133139881653,7.92723613032,0.0,0.0,0.0,0.0,0.0,0.0,0.0,0.0,0.0
22640000000,122,22640000000,imu_link,-0.000434085260781,-0.365822390612,-3.87304573243e-05,0.930684580616,0.0,0.0,0.0,0.0,0.0,0.0,0.0,0.0,0.0,0.00504045527769,0.00678614226208,0.000239181180214,0.0,0.0,0.0,0.0,0.0,0.0,0.0,0.0,0.0,5.63831465607,-0.0134184304091,7.92123972446,0.0,0.0,0.0,0.0,0.0,0.0,0.0,0.0,0.0
22644000000,123,22644000000,imu_link,-0.000425271650824,-0.36580983579,-3.47574266231e-05,0.930689519644,0.0,0.0,0.0,0.0,0.0,0.0,0.0,0.0,0.0,0.0048288860913,0.00674500171349,0.000239531850811,0.0,0.0,0.0,0.0,0.0,0.0,0.0,0.0,0.0,5.64293724361,-0.0135797947508,7.91565266699,0.0,0.0,0.0,0.0,0.0,0.0,0.0,0.0,0.0
22648000000,124,22648000000,imu_link,-0.000416824425287,-0.365797092652,-3.09199772511e-05,0.930694532222,0.0,0.0,0.0,0.0,0.0,0.0,0.0,0.0,0.0,0.00463360489594,0.00684610826172,0.000243494622848,0.0,0.0,0.0,0.0,0.0,0.0,0.0,0.0,0.0,5.646685155,-0.0137436380304,7.90694291053,0.0,0.0,0.0,0.0,0.0,0.0,0.0,0.0,0.0
22652000000,125,22652000000,imu_link,-0.000408870322296,-0.365784039886,-2.72078385396e-05,0.930699665977,0.0,0.0,0.0,0.0,0.0,0.0,0.0,0.0,0.0,0.00438123299717,0.00701237447781,0.000275439450157,0.0,0.0,0.0,0.0,0.0,0.0,0.0,0.0,0.0,5.65169454215,-0.0139025124591,7.90272936248,0.0,0.0,0.0,0.0,0.0,0.0,0.0,0.0,0.0
22656000000,126,22656000000,imu_link,-0.000401936595463,-0.365770913775,-2.36952811254e-05,0.930704827817,0.0,0.0,0.0,0.0,0.0,0.0,0.0,0.0,0.0,0.00386990404023,0.00705166937781,0.000369198359759,0.0,0.0,0.0,0.0,0.0,0.0,0.0,0.0,0.0,5.65636261262,-0.0139597908971,7.90014619787,0.0,0.0,0.0,0.0,0.0,0.0,0.0,0.0,0.0
22660000000,127,22660000000,imu_link,-0.000396342771227,-0.365758328552,-2.04005550525e-05,0.930709776241,0.0,0.0,0.0,0.0,0.0,0.0,0.0,0.0,0.0,0.00320650246567,0.00676096275151,0.000512767488123,0.0,0.0,0.0,0.0,0.0,0.0,0.0,0.0,0.0,5.66198645262,-0.0140984483151,7.90238880195,0.0,0.0,0.0,0.0,0.0,0.0,0.0,0.0,0.0
22664000000,128,22664000000,imu_link,-0.000391846509138,-0.365747090853,-1.72429693919e-05,0.930714194418,0.0,0.0,0.0,0.0,0.0,0.0,0.0,0.0,0.0,0.00267057509726,0.0060369310191,0.000649397325706,0.0,0.0,0.0,0.0,0.0,0.0,0.0,0.0,0.0,5.66725191909,-0.0143865398005,7.90483506236,0.0,0.0,0.0,0.0,0.0,0.0,0.0,0.0,0.0
22668000000,129,22668000000,imu_link,-0.000387945806351,-0.365737961637,-1.41133502856e-05,0.930717783604,0.0,0.0,0.0,0.0,0.0,0.0,0.0,0.0,0.0,0.00238816876552,0.00490413263754,0.000744874684061,0.0,0.0,0.0,0.0,0.0,0.0,0.0,0.0,0.0,5.67241217533,-0.0146719282849,7.90635921811,0.0,0.0,0.0,0.0,0.0,0.0,0.0,0.0,0.0
22672000000,130,22672000000,imu_link,-0.000384398131459,-0.365731497053,-1.09955073354e-05,0.930720325436,0.0,0.0,0.0,0.0,0.0,0.0,0.0,0.0,0.0,0.00222154624689,0.00347259428501,0.000803428139482,0.0,0.0,0.0,0.0,0.0,0.0,0.0,0.0,0.0,5.67739095675,-0.0148270064256,7.90591283866,0.0,0.0,0.0,0.0,0.0,0.0,0.0,0.0,0.0
22676000000,131,22676000000,imu_link,-0.000381236832917,-0.365727584571,-7.91416075402e-06,0.930721864189,0.0,0.0,0.0,0.0,0.0,0.0,0.0,0.0,0.0,0.00203488938996,0.00210152374381,0.000856603157477,0.0,0.0,0.0,0.0,0.0,0.0,0.0,0.0,0.0,5.68026391387,-0.0148819832453,7.89573937642,0.0,0.0,0.0,0.0,0.0,0.0,0.0,0.0,0.0
22680000000,132,22680000000,imu_link,-0.000378741901452,-0.365725556292,-4.95912616881e-06,0.930722662239,0.0,0.0,0.0,0.0,0.0,0.0,0.0,0.0,0.0,0.00170155655996,0.00108926290236,0.000919314804945,0.0,0.0,0.0,0.0,0.0,0.0,0.0,0.0,0.0,5.68449611661,-0.0148801158028,7.88547013512,0.0,0.0,0.0,0.0,0.0,0.0,0.0,0.0,0.0
22684000000,133,22684000000,imu_link,-0.000377231541894,-0.365724751632,-2.22143560126e-06,0.930722979052,0.0,0.0,0.0,0.0,0.0,0.0,0.0,0.0,0.0,0.00120354263708,0.000431876281273,0.000997979946801,0.0,0.0,0.0,0.0,0.0,0.0,0.0,0.0,0.0,5.68909424961,-0.0149341019105,7.87669869119,0.0,0.0,0.0,0.0,0.0,0.0,0.0,0.0,0.0
22688000000,134,22688000000,imu_link,-0.000376656513872,-0.365724758193,3.01973015595e-07,0.930722976709,0.0,0.0,0.0,0.0,0.0,0.0,0.0,0.0,0.0,0.000729031956966,-3.95703520449e-06,0.00106914496226,0.0,0.0,0.0,0.0,0.0,0.0,0.0,0.0,0.0,5.69321558718,-0.0150709628033,7.86875161267,0.0,0.0,0.0,0.0,0.0,0.0,0.0,0.0,0.0
22692000000,135,22692000000,imu_link,-0.000376619357311,-0.365725217383,2.66502999907e-06,0.930722796283,0.0,0.0,0.0,0.0,0.0,0.0,0.0,0.0,0.0,0.000449371405871,-0.000247127575618,0.0010927947265,0.0,0.0,0.0,0.0,0.0,0.0,0.0,0.0,0.0,5.69807061853,-0.0152814698608,7.86327617374,0.0,0.0,0.0,0.0,0.0,0.0,0.0,0.0,0.0
22696000000,136,22696000000,imu_link,-0.000376557531269,-0.365725789379,4.94190114651e-06,0.930722571534,0.0,0.0,0.0,0.0,0.0,0.0,0.0,0.0,0.0,0.000445082966616,-0.000307711942929,0.00104815485624,0.0,0.0,0.0,0.0,0.0,0.0,0.0,0.0,0.0,5.7024298144,-0.0154494181424,7.8569176004,0.0,0.0,0.0,0.0,0.0,0.0,0.0,0.0,0.0
22700000000,137,22700000000,imu_link,-0.000375941293458,-0.365726031463,7.222560983e-06,0.930722476642,0.0,0.0,0.0,0.0,0.0,0.0,0.0,0.0,0.0,0.000703802815235,-0.000130439431218,0.000948598419267,0.0,0.0,0.0,0.0,0.0,0.0,0.0,0.0,0.0,5.70712792759,-0.01551136281,7.8508352174,0.0,0.0,0.0,0.0,0.0,0.0,0.0,0.0,0.0
22704000000,138,22704000000,imu_link,-0.000374434122847,-0.365725705234,9.55089027077e-06,0.930722605419,0.0,0.0,0.0,0.0,0.0,0.0,0.0,0.0,0.0,0.00112716948159,0.000174919418916,0.000807969293661,0.0,0.0,0.0,0.0,0.0,0.0,0.0,0.0,0.0,5.71128362452,-0.0154521819763,7.8450640729,0.0,0.0,0.0,0.0,0.0,0.0,0.0,0.0,0.0
22708000000,139,22708000000,imu_link,-0.000372104329767,-0.365724770667,1.18857972992e-05,0.930722973563,0.0,0.0,0.0,0.0,0.0,0.0,0.0,0.0,0.0,0.00151123668793,0.000501783272959,0.000660715976988,0.0,0.0,0.0,0.0,0.0,0.0,0.0,0.0,0.0,5.71502892811,-0.0152697660715,7.83981462417,0.0,0.0,0.0,0.0,0.0,0.0,0.0,0.0,0.0
22712000000,140,22712000000,imu_link,-0.000369412707314,-0.365723420518,1.4102971045e-05,0.93072350514,0.0,0.0,0.0,0.0,0.0,0.0,0.0,0.0,0.0,0.00165812203162,0.000725084139668,0.000539838807507,0.0,0.0,0.0,0.0,0.0,0.0,0.0,0.0,0.0,5.71964978802,-0.0150525783786,7.83850882333,0.0,0.0,0.0,0.0,0.0,0.0,0.0,0.0,0.0
22716000000,141,22716000000,imu_link,-0.000366974861677,-0.36572183285,1.60736398326e-05,0.930724129937,0.0,0.0,0.0,0.0,0.0,0.0,0.0,0.0,0.0,0.00149496658242,0.000852710116001,0.00047157410475,0.0,0.0,0.0,0.0,0.0,0.0,0.0,0.0,0.0,5.72293206091,-0.0148682858182,7.83380340214,0.0,0.0,0.0,0.0,0.0,0.0,0.0,0.0,0.0
22720000000,142,22720000000,imu_link,-0.000365026749578,-0.365720305606,1.77564526808e-05,0.930724730792,0.0,0.0,0.0,0.0,0.0,0.0,0.0,0.0,0.0,0.00121442069227,0.000820270096457,0.000427159099482,0.0,0.0,0.0,0.0,0.0,0.0,0.0,0.0,0.0,5.72610762689,-0.0148403991432,7.82942172534,0.0,0.0,0.0,0.0,0.0,0.0,0.0,0.0,0.0
22724000000,143,22724000000,imu_link,-0.000363311414856,-0.365719238808,1.92349659896e-05,0.930725150622,0.0,0.0,0.0,0.0,0.0,0.0,0.0,0.0,0.0,0.00106869948913,0.000572932480495,0.000374569058772,0.0,0.0,0.0,0.0,0.0,0.0,0.0,0.0,0.0,5.72987696339,-0.0149323572633,7.82726360211,0.0,0.0,0.0,0.0,0.0,0.0,0.0,0.0,0.0
22728000000,144,22728000000,imu_link,-0.000361356981927,-0.365719069526,2.06183849284e-05,0.930725217871,0.0,0.0,0.0,0.0,0.0,0.0,0.0,0.0,0.0,0.00116250524573,9.0804801538e-05,0.000286434642982,0.0,0.0,0.0,0.0,0.0,0.0,0.0,0.0,0.0,5.73439486669,-0.0150245821886,7.82715529091,0.0,0.0,0.0,0.0,0.0,0.0,0.0,0.0,0.0
22732000000,145,22732000000,imu_link,-0.00035899440231,-0.36571997387,2.19464637089e-05,0.930724863402,0.0,0.0,0.0,0.0,0.0,0.0,0.0,0.0,0.0,0.00134223471454,-0.000485930443088,0.000185858255215,0.0,0.0,0.0,0.0,0.0,0.0,0.0,0.0,0.0,5.73789631858,-0.0149810988612,7.82249487878,0.0,0.0,0.0,0.0,0.0,0.0,0.0,0.0,0.0
22736000000,146,22736000000,imu_link,-0.000356466435959,-0.365721819227,2.3201152852e-05,0.930724139224,0.0,0.0,0.0,0.0,0.0,0.0,0.0,0.0,0.0,0.0014057027713,-0.000991435732417,0.00012129800693,0.0,0.0,0.0,0.0,0.0,0.0,0.0,0.0,0.0,5.74086696258,-0.0148417645014,7.81445979524,0.0,0.0,0.0,0.0,0.0,0.0,0.0,0.0,0.0
22740000000,147,22740000000,imu_link,-0.000354106487665,-0.365724244338,2.43383160025e-05,0.930723187161,0.0,0.0,0.0,0.0,0.0,0.0,0.0,0.0,0.0,0.00130597528816,-0.00130287985866,9.72291147562e-05,0.0,0.0,0.0,0.0,0.0,0.0,0.0,0.0,0.0,5.74486221939,-0.0147460068995,7.80749142964,0.0,0.0,0.0,0.0,0.0,0.0,0.0,0.0,0.0
22744000000,148,22744000000,imu_link,-0.000352146779107,-0.365726878654,2.5339777696e-05,0.930722152729,0.0,0.0,0.0,0.0,0.0,0.0,0.0,0.0,0.0,0.00109488730112,-0.00141526912525,0.000107231517826,0.0,0.0,0.0,0.0,0.0,0.0,0.0,0.0,0.0,5.74848289331,-0.0147335589646,7.7998853695,0.0,0.0,0.0,0.0,0.0,0.0,0.0,0.0,0.0
22748000000,149,22748000000,imu_link,-0.000350595663569,-0.365729455014,2.62108830112e-05,0.930721140907,0.0,0.0,0.0,0.0,0.0,0.0,0.0,0.0,0.0,0.000880911313132,-0.00138413608665,0.000121295376205,0.0,0.0,0.0,0.0,0.0,0.0,0.0,0.0,0.0,5.75161336568,-0.0147708686936,7.79205758781,0.0,0.0,0.0,0.0,0.0,0.0,0.0,0.0,0.0
22752000000,150,22752000000,imu_link,-0.000349276516635,-0.365731899815,2.70084177316e-05,0.930720180685,0.0,0.0,0.0,0.0,0.0,0.0,0.0,0.0,0.0,0.000759519573997,-0.00131346186074,0.000129499783645,0.0,0.0,0.0,0.0,0.0,0.0,0.0,0.0,0.0,5.75606939597,-0.0148349976235,7.78908198939,0.0,0.0,0.0,0.0,0.0,0.0,0.0,0.0,0.0
22756000000,151,22756000000,imu_link,-0.000347807820626,-0.365734337678,2.78226161823e-05,0.930719223235,0.0,0.0,0.0,0.0,0.0,0.0,0.0,0.0,0.0,0.000832161551705,-0.00130973105827,0.00010990815929,0.0,0.0,0.0,0.0,0.0,0.0,0.0,0.0,0.0,5.75970251557,-0.0148966578678,7.78521463215,0.0,0.0,0.0,0.0,0.0,0.0,0.0,0.0,0.0
22760000000,152,22760000000,imu_link,-0.000345685624246,-0.365736820153,2.87346702951e-05,0.930718248484,0.0,0.0,0.0,0.0,0.0,0.0,0.0,0.0,0.0,0.00115416518895,-0.00133368172601,3.59349519562e-05,0.0,0.0,0.0,0.0,0.0,0.0,0.0,0.0,0.0,5.76383732471,-0.0149235997275,7.78220720059,0.0,0.0,0.0,0.0,0.0,0.0,0.0,0.0,0.0
22764000000,153,22764000000,imu_link,-0.000342405311844,-0.365739376682,2.98109469937e-05,0.93071724504,0.0,0.0,0.0,0.0,0.0,0.0,0.0,0.0,0.0,0.00172313014677,-0.00137343562898,-9.94377925414e-05,0.0,0.0,0.0,0.0,0.0,0.0,0.0,0.0,0.0,5.76832861665,-0.0148802735035,7.78015427254,0.0,0.0,0.0,0.0,0.0,0.0,0.0,0.0,0.0
22768000000,154,22768000000,imu_link,-0.000337927346967,-0.365742285495,3.1029877593e-05,0.930716103569,0.0,0.0,0.0,0.0,0.0,0.0,0.0,0.0,0.0,0.00230652624611,-0.00156265684141,-0.00025212515924,0.0,0.0,0.0,0.0,0.0,0.0,0.0,0.0,0.0,5.77274925117,-0.0146798572023,7.77960776795,0.0,0.0,0.0,0.0,0.0,0.0,0.0,0.0,0.0
22772000000,155,22772000000,imu_link,-0.000332644510679,-0.365745926575,3.22731386125e-05,0.930714674591,0.0,0.0,0.0,0.0,0.0,0.0,0.0,0.0,0.0,0.00268546902953,-0.00195601700355,-0.000388109822791,0.0,0.0,0.0,0.0,0.0,0.0,0.0,0.0,0.0,5.77718362654,-0.0144028668232,7.77967228148,0.0,0.0,0.0,0.0,0.0,0.0,0.0,0.0,0.0
22776000000,156,22776000000,imu_link,-0.000327107558904,-0.365750537883,3.34197580615e-05,0.93071286438,0.0,0.0,0.0,0.0,0.0,0.0,0.0,0.0,0.0,0.00278597134204,-0.00247722450675,-0.000479708757447,0.0,0.0,0.0,0.0,0.0,0.0,0.0,0.0,0.0,5.78102360516,-0.0141583852929,7.77737619215,0.0,0.0,0.0,0.0,0.0,0.0,0.0,0.0,0.0
22780000000,157,22780000000,imu_link,-0.000321745891634,-0.365756183892,3.44052142203e-05,0.930710647431,0.0,0.0,0.0,0.0,0.0,0.0,0.0,0.0,0.0,0.0026748449773,-0.00303308265104,-0.000522814363144,0.0,0.0,0.0,0.0,0.0,0.0,0.0,0.0,0.0,5.78367062847,-0.0139993116808,7.77082398558,0.0,0.0,0.0,0.0,0.0,0.0,0.0,0.0,0.0
22784000000,158,22784000000,imu_link,-0.000316778432818,-0.365762870475,3.52264718135e-05,0.930708021343,0.0,0.0,0.0,0.0,0.0,0.0,0.0,0.0,0.0,0.00246128593366,-0.00359210828465,-0.000527293311541,0.0,0.0,0.0,0.0,0.0,0.0,0.0,0.0,0.0,5.78648234117,-0.0139695275218,7.76428251542,0.0,0.0,0.0,0.0,0.0,0.0,0.0,0.0,0.0
22788000000,159,22788000000,imu_link,-0.000312133230323,-0.365770629626,3.59269389008e-05,0.930704973547,0.0,0.0,0.0,0.0,0.0,0.0,0.0,0.0,0.0,0.00228914663626,-0.00416833037989,-0.00052473141536,0.0,0.0,0.0,0.0,0.0,0.0,0.0,0.0,0.0,5.79062640736,-0.0140401337252,7.76129060734,0.0,0.0,0.0,0.0,0.0,0.0,0.0,0.0,0.0
22792000000,160,22792000000,imu_link,-0.000307627798056,-0.365779461209,3.65452718178e-05,0.930701504129,0.0,0.0,0.0,0.0,0.0,0.0,0.0,0.0,0.0,0.00220899801318,-0.00474448223973,-0.000537550630327,0.0,0.0,0.0,0.0,0.0,0.0,0.0,0.0,0.0,5.79480665556,-0.0141265729317,7.75832637508,0.0,0.0,0.0,0.0,0.0,0.0,0.0,0.0,0.0
22796000000,161,22796000000,imu_link,-0.000303189857066,-0.365789295618,3.7104246791e-05,0.930697640434,0.0,0.0,0.0,0.0,0.0,0.0,0.0,0.0,0.0,0.00216665596927,-0.00528324678706,-0.00055297647692,0.0,0.0,0.0,0.0,0.0,0.0,0.0,0.0,0.0,5.79682306098,-0.0141451245574,7.74975560652,0.0,0.0,0.0,0.0,0.0,0.0,0.0,0.0,0.0
22800000000,162,22800000000,imu_link,-0.000298948828755,-0.365800109799,3.76373391713e-05,0.930693391447,0.0,0.0,0.0,0.0,0.0,0.0,0.0,0.0,0.0,0.00207021251361,-0.00580964288777,-0.00052914801644,0.0,0.0,0.0,0.0,0.0,0.0,0.0,0.0,0.0,5.80062838039,-0.0141171714219,7.74614112047,0.0,0.0,0.0,0.0,0.0,0.0,0.0,0.0,0.0
22804000000,163,22804000000,imu_link,-0.000295247252716,-0.365811905094,3.81390958448e-05,0.930688756495,0.0,0.0,0.0,0.0,0.0,0.0,0.0,0.0,0.0,0.00181337272356,-0.0063367787898,-0.000445203521802,0.0,0.0,0.0,0.0,0.0,0.0,0.0,0.0,0.0,5.8051782464,-0.0140728820174,7.74482931848,0.0,0.0,0.0,0.0,0.0,0.0,0.0,0.0,0.0
22808000000,164,22808000000,imu_link,-0.000292110304104,-0.365824606343,3.86370534872e-05,0.930683765074,0.0,0.0,0.0,0.0,0.0,0.0,0.0,0.0,0.0,0.0015498617597,-0.00682354912994,-0.000343824604878,0.0,0.0,0.0,0.0,0.0,0.0,0.0,0.0,0.0,5.80895025717,-0.0141241090475,7.74077595999,0.0,0.0,0.0,0.0,0.0,0.0,0.0,0.0,0.0
22812000000,165,22812000000,imu_link,-0.000289392629123,-0.365838070575,3.91681528146e-05,0.930678473392,0.0,0.0,0.0,0.0,0.0,0.0,0.0,0.0,0.0,0.00136075960655,-0.00723351480048,-0.00025181772219,0.0,0.0,0.0,0.0,0.0,0.0,0.0,0.0,0.0,5.81329331278,-0.0142060404328,7.73776706006,0.0,0.0,0.0,0.0,0.0,0.0,0.0,0.0,0.0
22816000000,166,22816000000,imu_link,-0.000286990211126,-0.365852150294,3.97320640938e-05,0.930672939428,0.0,0.0,0.0,0.0,0.0,0.0,0.0,0.0,0.0,0.00122001298164,-0.00756424183097,-0.000178966843977,0.0,0.0,0.0,0.0,0.0,0.0,0.0,0.0,0.0,5.81637353535,-0.0142419356128,7.73160689673,0.0,0.0,0.0,0.0,0.0,0.0,0.0,0.0,0.0
22820000000,167,22820000000,imu_link,-0.000284811112038,-0.365866713442,4.03278872706e-05,0.930667215094,0.0,0.0,0.0,0.0,0.0,0.0,0.0,0.0,0.0,0.00112189514633,-0.007824022161,-0.000123331810424,0.0,0.0,0.0,0.0,0.0,0.0,0.0,0.0,0.0,5.81973100257,-0.0142759611787,7.72623306106,0.0,0.0,0.0,0.0,0.0,0.0,0.0,0.0,0.0
22824000000,168,22824000000,imu_link,-0.000282841141915,-0.365881857506,4.0953868276e-05,0.930661262045,0.0,0.0,0.0,0.0,0.0,0.0,0.0,0.0,0.0,0.00103005299934,-0.00813618253198,-7.11198097674e-05,0.0,0.0,0.0,0.0,0.0,0.0,0.0,0.0,0.0,5.8239843645,-0.0142520069295,7.72490554123,0.0,0.0,0.0,0.0,0.0,0.0,0.0,0.0,0.0
22828000000,169,22828000000,imu_link,-0.000280979842894,-0.365897699871,4.16182083557e-05,0.930655034128,0.0,0.0,0.0,0.0,0.0,0.0,0.0,0.0,0.0,0.000986449280683,-0.00851141046136,-3.34828906705e-05,0.0,0.0,0.0,0.0,0.0,0.0,0.0,0.0,0.0,5.82741018863,-0.0142211293015,7.72164743711,0.0,0.0,0.0,0.0,0.0,0.0,0.0,0.0,0.0
22832000000,170,22832000000,imu_link,-0.000278840908926,-0.365914130206,4.23599111574e-05,0.930648574795,0.0,0.0,0.0,0.0,0.0,0.0,0.0,0.0,0.0,0.0011297491355,-0.00882736338078,-4.83546700562e-05,0.0,0.0,0.0,0.0,0.0,0.0,0.0,0.0,0.0,5.83130452942,-0.0142565406831,7.71809595684,0.0,0.0,0.0,0.0,0.0,0.0,0.0,0.0,0.0
22836000000,171,22836000000,imu_link,-0.000276116969799,-0.365930920212,4.32091893781e-05,0.930641973868,0.0,0.0,0.0,0.0,0.0,0.0,0.0,0.0,0.0,0.00142162056836,-0.00902065998888,-0.000105375188303,0.0,0.0,0.0,0.0,0.0,0.0,0.0,0.0,0.0,5.83427960821,-0.0142571855237,7.71178799386,0.0,0.0,0.0,0.0,0.0,0.0,0.0,0.0,0.0
22840000000,172,22840000000,imu_link,-0.000272779508936,-0.365947757764,4.4162654397e-05,0.930635354061,0.0,0.0,0.0,0.0,0.0,0.0,0.0,0.0,0.0,0.00172616406009,-0.00904626568417,-0.000169154327471,0.0,0.0,0.0,0.0,0.0,0.0,0.0,0.0,0.0,5.83726803084,-0.0141657833522,7.70516686102,0.0,0.0,0.0,0.0,0.0,0.0,0.0,0.0,0.0
22844000000,173,22844000000,imu_link,-0.000269271598232,-0.365964314877,4.51504185645e-05,0.930628844218,0.0,0.0,0.0,0.0,0.0,0.0,0.0,0.0,0.0,0.00181177442247,-0.00889566085124,-0.000184346375076,0.0,0.0,0.0,0.0,0.0,0.0,0.0,0.0,0.0,5.84115406013,-0.0139986380319,7.70086214244,0.0,0.0,0.0,0.0,0.0,0.0,0.0,0.0,0.0
22848000000,174,22848000000,imu_link,-0.000266343434654,-0.365980872274,4.60218296627e-05,0.930622333749,0.0,0.0,0.0,0.0,0.0,0.0,0.0,0.0,0.0,0.00152071909708,-0.00889587899209,-0.000132403780484,0.0,0.0,0.0,0.0,0.0,0.0,0.0,0.0,0.0,5.84587328891,-0.0138344639293,7.70306139198,0.0,0.0,0.0,0.0,0.0,0.0,0.0,0.0,0.0
22852000000,175,22852000000,imu_link,-0.000264513908194,-0.365998009648,4.66841583628e-05,0.930615594532,0.0,0.0,0.0,0.0,0.0,0.0,0.0,0.0,0.0,0.000971207090109,-0.00920755368356,-2.87240424465e-05,0.0,0.0,0.0,0.0,0.0,0.0,0.0,0.0,0.0,5.85087080053,-0.0138131049319,7.70788517347,0.0,0.0,0.0,0.0,0.0,0.0,0.0,0.0,0.0
22856000000,176,22856000000,imu_link,-0.000263986840624,-0.366016352576,4.71068716548e-05,0.930608380437,0.0,0.0,0.0,0.0,0.0,0.0,0.0,0.0,0.0,0.000321222485633,-0.00985534814517,9.79813620881e-05,0.0,0.0,0.0,0.0,0.0,0.0,0.0,0.0,0.0,5.8546570159,-0.0139131006667,7.70954615578,0.0,0.0,0.0,0.0,0.0,0.0,0.0,0.0,0.0
22860000000,177,22860000000,imu_link,-0.000264529111622,-0.366036229808,4.73794806851e-05,0.930600562136,0.0,0.0,0.0,0.0,0.0,0.0,0.0,0.0,0.0,-0.000203931427602,-0.0106797956523,0.000223646634573,0.0,0.0,0.0,0.0,0.0,0.0,0.0,0.0,0.0,5.85808321549,-0.014098070534,7.70811459105,0.0,0.0,0.0,0.0,0.0,0.0,0.0,0.0,0.0
22864000000,178,22864000000,imu_link,-0.000265712693923,-0.366057772621,4.76086413036e-05,0.930592087992,0.0,0.0,0.0,0.0,0.0,0.0,0.0,0.0,0.0,-0.00051041180564,-0.0115748007849,0.000320596901572,0.0,0.0,0.0,0.0,0.0,0.0,0.0,0.0,0.0,5.8617129257,-0.014285021791,7.70571649171,0.0,0.0,0.0,0.0,0.0,0.0,0.0,0.0,0.0
22868000000,179,22868000000,imu_link,-0.000266917931098,-0.366080902027,4.79186692732e-05,0.930582989115,0.0,0.0,0.0,0.0,0.0,0.0,0.0,0.0,0.0,-0.000505807438998,-0.0124273911474,0.000361991709892,0.0,0.0,0.0,0.0,0.0,0.0,0.0,0.0,0.0,5.86605363194,-0.0144319007989,7.70368232918,0.0,0.0,0.0,0.0,0.0,0.0,0.0,0.0,0.0
22872000000,180,22872000000,imu_link,-0.000267769029971,-0.366105460659,4.83708675386e-05,0.930573327382,0.0,0.0,0.0,0.0,0.0,0.0,0.0,0.0,0.0,-0.000315116345964,-0.0131954503824,0.000363143447644,0.0,0.0,0.0,0.0,0.0,0.0,0.0,0.0,0.0,5.86903366702,-0.0144233847227,7.69811027394,0.0,0.0,0.0,0.0,0.0,0.0,0.0,0.0,0.0
22876000000,181,22876000000,imu_link,-0.000268150816275,-0.36613130404,4.89970030935e-05,0.930563159542,0.0,0.0,0.0,0.0,0.0,0.0,0.0,0.0,0.0,-6.50106023499e-05,-0.0138859058785,0.000358005433959,0.0,0.0,0.0,0.0,0.0,0.0,0.0,0.0,0.0,5.87200016099,-0.0142998655753,7.69248186387,0.0,0.0,0.0,0.0,0.0,0.0,0.0,0.0,0.0
22880000000,182,22880000000,imu_link,-0.000268065614793,-0.36615822579,4.98036642398e-05,0.930552566676,0.0,0.0,0.0,0.0,0.0,0.0,0.0,0.0,0.0,0.000185234843285,-0.0144654948016,0.000356377072525,0.0,0.0,0.0,0.0,0.0,0.0,0.0,0.0,0.0,5.87436505203,-0.0141696392593,7.68518512678,0.0,0.0,0.0,0.0,0.0,0.0,0.0,0.0,0.0
22884000000,183,22884000000,imu_link,-0.000267532474874,-0.366185997981,5.07921231674e-05,0.930541638364,0.0,0.0,0.0,0.0,0.0,0.0,0.0,0.0,0.0,0.000426867213466,-0.0149226333022,0.000358849462903,0.0,0.0,0.0,0.0,0.0,0.0,0.0,0.0,0.0,5.87736314444,-0.0140681177378,7.67957251823,0.0,0.0,0.0,0.0,0.0,0.0,0.0,0.0,0.0
22888000000,184,22888000000,imu_link,-0.000266499971156,-0.366214164589,5.1947274458e-05,0.930530554003,0.0,0.0,0.0,0.0,0.0,0.0,0.0,0.0,0.0,0.000689695930945,-0.0151347501607,0.000344927743172,0.0,0.0,0.0,0.0,0.0,0.0,0.0,0.0,0.0,5.87999715405,-0.0139768857329,7.67187150744,0.0,0.0,0.0,0.0,0.0,0.0,0.0,0.0,0.0
22892000000,185,22892000000,imu_link,-0.000265028607277,-0.366242177355,5.32236372904e-05,0.930519529324,0.0,0.0,0.0,0.0,0.0,0.0,0.0,0.0,0.0,0.000916088965241,-0.0150522724689,0.000320983810562,0.0,0.0,0.0,0.0,0.0,0.0,0.0,0.0,0.0,5.88320699619,-0.0138500075328,7.66497493195,0.0,0.0,0.0,0.0,0.0,0.0,0.0,0.0,0.0
22896000000,186,22896000000,imu_link,-0.000263449233116,-0.366269568416,5.45428668953e-05,0.930508748412,0.0,0.0,0.0,0.0,0.0,0.0,0.0,0.0,0.0,0.000974240461685,-0.0147183878398,0.000321224932006,0.0,0.0,0.0,0.0,0.0,0.0,0.0,0.0,0.0,5.88496646577,-0.0136913408714,7.65571295805,0.0,0.0,0.0,0.0,0.0,0.0,0.0,0.0,0.0
22900000000,187,22900000000,imu_link,-0.000262002700423,-0.366295922524,5.5849552027e-05,0.930498374731,0.0,0.0,0.0,0.0,0.0,0.0,0.0,0.0,0.0,0.00091021997915,-0.0141613574234,0.000339841941272,0.0,0.0,0.0,0.0,0.0,0.0,0.0,0.0,0.0,5.88715182005,-0.0136139598205,7.64749541912,0.0,0.0,0.0,0.0,0.0,0.0,0.0,0.0,0.0
22904000000,188,22904000000,imu_link,-0.000260685246108,-0.366320900849,5.71493284367e-05,0.930488541777,0.0,0.0,0.0,0.0,0.0,0.0,0.0,0.0,0.0,0.000849010304823,-0.0134222378577,0.000360433235461,0.0,0.0,0.0,0.0,0.0,0.0,0.0,0.0,0.0,5.88974796004,-0.0136259665116,7.6410559428,0.0,0.0,0.0,0.0,0.0,0.0,0.0,0.0,0.0
22908000000,189,22908000000,imu_link,-0.000259395694677,-0.366344371469,5.84635690138e-05,0.930479301645,0.0,0.0,0.0,0.0,0.0,0.0,0.0,0.0,0.0,0.000838798263731,-0.0126122063194,0.000372452889625,0.0,0.0,0.0,0.0,0.0,0.0,0.0,0.0,0.0,5.8915479319,-0.0136532033559,7.63432484377,0.0,0.0,0.0,0.0,0.0,0.0,0.0,0.0,0.0
22912000000,190,22912000000,imu_link,-0.000258143684377,-0.366366180849,5.9772574962e-05,0.930470714917,0.0,0.0,0.0,0.0,0.0,0.0,0.0,0.0,0.0,0.000820507108578,-0.0117196446628,0.000377090382771,0.0,0.0,0.0,0.0,0.0,0.0,0.0,0.0,0.0,5.89408741914,-0.0136429794886,7.62922167596,0.0,0.0,0.0,0.0,0.0,0.0,0.0,0.0,0.0
22916000000,191,22916000000,imu_link,-0.000257203554553,-0.366386153959,6.10331869882e-05,0.93046285058,0.0,0.0,0.0,0.0,0.0,0.0,0.0,0.0,0.0,0.000666692454834,-0.0107330012651,0.000411922470056,0.0,0.0,0.0,0.0,0.0,0.0,0.0,0.0,0.0,5.8957001449,-0.0135182778043,7.62193022404,0.0,0.0,0.0,0.0,0.0,0.0,0.0,0.0,0.0
22920000000,192,22920000000,imu_link,-0.000256887833473,-0.366404576394,6.21757511387e-05,0.930455596222,0.0,0.0,0.0,0.0,0.0,0.0,0.0,0.0,0.0,0.000354698097351,-0.00989980050727,0.000471571052513,0.0,0.0,0.0,0.0,0.0,0.0,0.0,0.0,0.0,5.89775681746,-0.0133826205032,7.61883764032,0.0,0.0,0.0,0.0,0.0,0.0,0.0,0.0,0.0
22924000000,193,22924000000,imu_link,-0.000257262516287,-0.36642197877,6.31690530471e-05,0.930448742973,0.0,0.0,0.0,0.0,0.0,0.0,0.0,0.0,0.0,6.24106079117e-06,-0.00935171588194,0.000528732232327,0.0,0.0,0.0,0.0,0.0,0.0,0.0,0.0,0.0,5.9011255042,-0.0134194267479,7.62070789755,0.0,0.0,0.0,0.0,0.0,0.0,0.0,0.0,0.0
22928000000,194,22928000000,imu_link,-0.000258114961015,-0.366438700984,6.4036711328e-05,0.930442157094,0.0,0.0,0.0,0.0,0.0,0.0,0.0,0.0,0.0,-0.000238988843758,-0.00898627152613,0.000557890032974,0.0,0.0,0.0,0.0,0.0,0.0,0.0,0.0,0.0,5.90323270256,-0.0135704539361,7.6183248083,0.0,0.0,0.0,0.0,0.0,0.0,0.0,0.0,0.0
22932000000,195,22932000000,imu_link,-0.000259140353637,-0.366454838899,6.48307269025e-05,0.930435800951,0.0,0.0,0.0,0.0,0.0,0.0,0.0,0.0,0.0,-0.000332892261137,-0.00867233630685,0.000555385346854,0.0,0.0,0.0,0.0,0.0,0.0,0.0,0.0,0.0,5.90535613521,-0.0136843639976,7.6141197969,0.0,0.0,0.0,0.0,0.0,0.0,0.0,0.0,0.0
22936000000,196,22936000000,imu_link,-0.000260244881054,-0.366470257518,6.55311548501e-05,0.930429727778,0.0,0.0,0.0,0.0,0.0,0.0,0.0,0.0,0.0,-0.000386795022774,-0.00828584416073,0.000526430398492,0.0,0.0,0.0,0.0,0.0,0.0,0.0,0.0,0.0,5.90734502784,-0.0136889605496,7.6075632249,0.0,0.0,0.0,0.0,0.0,0.0,0.0,0.0,0.0
22940000000,197,22940000000,imu_link,-0.000261435735049,-0.366484957078,6.60904777569e-05,0.930423937525,0.0,0.0,0.0,0.0,0.0,0.0,0.0,0.0,0.0,-0.00045275045588,-0.00789946540256,0.00047668859351,0.0,0.0,0.0,0.0,0.0,0.0,0.0,0.0,0.0,5.90983900206,-0.0136459088336,7.6032160399,0.0,0.0,0.0,0.0,0.0,0.0,0.0,0.0,0.0
22944000000,198,22944000000,imu_link,-0.000262792451763,-0.366499218677,6.64598280443e-05,0.930418319485,0.0,0.0,0.0,0.0,0.0,0.0,0.0,0.0,0.0,-0.000564685847701,-0.00766413363381,0.000418755711399,0.0,0.0,0.0,0.0,0.0,0.0,0.0,0.0,0.0,5.91193262827,-0.0135882101365,7.59991021901,0.0,0.0,0.0,0.0,0.0,0.0,0.0,0.0,0.0
22948000000,199,22948000000,imu_link,-0.000264451376059,-0.366513768727,6.65955080581e-05,0.930412587492,0.0,0.0,0.0,0.0,0.0,0.0,0.0,0.0,0.0,-0.000748120127824,-0.00781916469851,0.00036539546651,0.0,0.0,0.0,0.0,0.0,0.0,0.0,0.0,0.0,5.91651882392,-0.0135505742037,7.60545515022,0.0,0.0,0.0,0.0,0.0,0.0,0.0,0.0,0.0
22952000000,200,22952000000,imu_link,-0.000266584067767,-0.366529451815,6.64628395894e-05,0.930406408763,0.0,0.0,0.0,0.0,0.0,0.0,0.0,0.0,0.0,-0.00101779321375,-0.00842807729078,0.000327244261826,0.0,0.0,0.0,0.0,0.0,0.0,0.0,0.0,0.0,5.92088500968,-0.0135168663226,7.61118357436,0.0,0.0,0.0,0.0,0.0,0.0,0.0,0.0,0.0
22956000000,201,22956000000,imu_link,-0.000269504058901,-0.366546694825,6.60279851726e-05,0.930399614962,0.0,0.0,0.0,0.0,0.0,0.0,0.0,0.0,0.0,-0.00143956127717,-0.0092664126489,0.000330763118425,0.0,0.0,0.0,0.0,0.0,0.0,0.0,0.0,0.0,5.92356839003,-0.0134848844426,7.60980627363,0.0,0.0,0.0,0.0,0.0,0.0,0.0,0.0,0.0
22960000000,202,22960000000,imu_link,-0.000273380615847,-0.366565421613,6.52964515152e-05,0.930392235929,0.0,0.0,0.0,0.0,0.0,0.0,0.0,0.0,0.0,-0.00193905675331,-0.0100638516619,0.000367880390117,0.0,0.0,0.0,0.0,0.0,0.0,0.0,0.0,0.0,5.92585439397,-0.0134756865065,7.60386337104,0.0,0.0,0.0,0.0,0.0,0.0,0.0,0.0,0.0
22964000000,203,22964000000,imu_link,-0.000278279584321,-0.366585229144,6.42972240873e-05,0.930384430329,0.0,0.0,0.0,0.0,0.0,0.0,0.0,0.0,0.0,-0.00246383585875,-0.0106447216899,0.000430606843061,0.0,0.0,0.0,0.0,0.0,0.0,0.0,0.0,0.0,5.92866868125,-0.0134924453689,7.59689549675,0.0,0.0,0.0,0.0,0.0,0.0,0.0,0.0,0.0
22968000000,204,22968000000,imu_link,-0.000283952318265,-0.366605500531,6.31106640932e-05,0.930376441215,0.0,0.0,0.0,0.0,0.0,0.0,0.0,0.0,0.0,-0.00285816265476,-0.010894089356,0.00048522804697,0.0,0.0,0.0,0.0,0.0,0.0,0.0,0.0,0.0,5.93216491855,-0.013561012099,7.59016424563,0.0,0.0,0.0,0.0,0.0,0.0,0.0,0.0,0.0
22972000000,205,22972000000,imu_link,-0.000290144328728,-0.366625799211,6.18204495403e-05,0.930368440645,0.0,0.0,0.0,0.0,0.0,0.0,0.0,0.0,0.0,-0.00311872662789,-0.0109088548052,0.00053219046766,0.0,0.0,0.0,0.0,0.0,0.0,0.0,0.0,0.0,5.93537950765,-0.0136187605023,7.58466618357,0.0,0.0,0.0,0.0,0.0,0.0,0.0,0.0,0.0
22976000000,206,22976000000,imu_link,-0.000296769548569,-0.366646065624,6.0451288114e-05,0.930360452102,0.0,0.0,0.0,0.0,0.0,0.0,0.0,0.0,0.0,-0.00333471803244,-0.010891615305,0.000574882804177,0.0,0.0,0.0,0.0,0.0,0.0,0.0,0.0,0.0,5.93742866351,-0.0136304103456,7.57962056439,0.0,0.0,0.0,0.0,0.0,0.0,0.0,0.0,0.0
22980000000,207,22980000000,imu_link,-0.000303801427013,-0.366666524279,5.90360388935e-05,0.930352387105,0.0,0.0,0.0,0.0,0.0,0.0,0.0,0.0,0.0,-0.00353235368318,-0.0109950385084,0.000627967347506,0.0,0.0,0.0,0.0,0.0,0.0,0.0,0.0,0.0,5.93925407341,-0.0136241911018,7.57606435173,0.0,0.0,0.0,0.0,0.0,0.0,0.0,0.0,0.0
22984000000,208,22984000000,imu_link,-0.000311329764799,-0.366687476031,5.75622618596e-05,0.930344127021,0.0,0.0,0.0,0.0,0.0,0.0,0.0,0.0,0.0,-0.00377406903461,-0.0112601587396,0.000691689969449,0.0,0.0,0.0,0.0,0.0,0.0,0.0,0.0,0.0,5.9417660026,-0.0135696654635,7.57441185798,0.0,0.0,0.0,0.0,0.0,0.0,0.0,0.0,0.0
22988000000,209,22988000000,imu_link,-0.000319384004526,-0.366709017257,5.59915631827e-05,0.930335633802,0.0,0.0,0.0,0.0,0.0,0.0,0.0,0.0,0.0,-0.00403652715836,-0.0115770787073,0.000742940505958,0.0,0.0,0.0,0.0,0.0,0.0,0.0,0.0,0.0,5.94415983593,-0.01354526761,7.57117294772,0.0,0.0,0.0,0.0,0.0,0.0,0.0,0.0,0.0
22992000000,210,22992000000,imu_link,-0.000327696807119,-0.366730965309,5.43391899023e-05,0.930326979478,0.0,0.0,0.0,0.0,0.0,0.0,0.0,0.0,0.0,-0.00417181480572,-0.0117958399093,0.00075229631964,0.0,0.0,0.0,0.0,0.0,0.0,0.0,0.0,0.0,5.94800853142,-0.0135826690172,7.56903676697,0.0,0.0,0.0,0.0,0.0,0.0,0.0,0.0,0.0
22996000000,211,22996000000,imu_link,-0.000335869062703,-0.366753026305,5.26608976867e-05,0.930318280007,0.0,0.0,0.0,0.0,0.0,0.0,0.0,0.0,0.0,-0.0041112005732,-0.0118566555111,0.000714451028294,0.0,0.0,0.0,0.0,0.0,0.0,0.0,0.0,0.0,5.95076326096,-0.0136090286648,7.56345574824,0.0,0.0,0.0,0.0,0.0,0.0,0.0,0.0,0.0
23000000000,212,23000000000,imu_link,-0.000343385892295,-0.366775071621,5.10319488639e-05,0.930309586277,0.0,0.0,0.0,0.0,0.0,0.0,0.0,0.0,0.0,-0.00379727338511,-0.0118483345301,0.000617216307137,0.0,0.0,0.0,0.0,0.0,0.0,0.0,0.0,0.0,5.95461142214,-0.0136053715298,7.56168421188,0.0,0.0,0.0,0.0,0.0,0.0,0.0,0.0,0.0
23004000000,213,23004000000,imu_link,-0.000349988350863,-0.366797370405,4.95024330932e-05,0.930300792283,0.0,0.0,0.0,0.0,0.0,0.0,0.0,0.0,0.0,-0.00335373822058,-0.0119846642014,0.000495742858672,0.0,0.0,0.0,0.0,0.0,0.0,0.0,0.0,0.0,5.95767561057,-0.0134841901775,7.56081802112,0.0,0.0,0.0,0.0,0.0,0.0,0.0,0.0,0.0
23008000000,214,23008000000,imu_link,-0.000355626508911,-0.366820211234,4.80753782708e-05,0.930291784253,0.0,0.0,0.0,0.0,0.0,0.0,0.0,0.0,0.0,-0.00288645311964,-0.0122760923227,0.000366461604716,0.0,0.0,0.0,0.0,0.0,0.0,0.0,0.0,0.0,5.96151621714,-0.0132311524096,7.56227071918,0.0,0.0,0.0,0.0,0.0,0.0,0.0,0.0,0.0
23012000000,215,23012000000,imu_link,-0.000360316079782,-0.366843546198,4.67350833642e-05,0.930282581048,0.0,0.0,0.0,0.0,0.0,0.0,0.0,0.0,0.0,-0.00242935562829,-0.0125417724349,0.000232753976762,0.0,0.0,0.0,0.0,0.0,0.0,0.0,0.0,0.0,5.96367242894,-0.0128958039887,7.55738895048,0.0,0.0,0.0,0.0,0.0,0.0,0.0,0.0,0.0
23016000000,216,23016000000,imu_link,-0.000364227572272,-0.366866975146,4.54353314576e-05,0.93027334038,0.0,0.0,0.0,0.0,0.0,0.0,0.0,0.0,0.0,-0.00206001172208,-0.0125923851042,0.000108879627156,0.0,0.0,0.0,0.0,0.0,0.0,0.0,0.0,0.0,5.96617927855,-0.0126006808968,7.55076268925,0.0,0.0,0.0,0.0,0.0,0.0,0.0,0.0,0.0
23020000000,217,23020000000,imu_link,-0.00036750558063,-0.366889902152,4.41370070991e-05,0.930264297224,0.0,0.0,0.0,0.0,0.0,0.0,0.0,0.0,0.0,-0.00176504578965,-0.0123226980527,-6.57164803767e-06,0.0,0.0,0.0,0.0,0.0,0.0,0.0,0.0,0.0,5.96922148198,-0.0123842200906,7.54427541554,0.0,0.0,0.0,0.0,0.0,0.0,0.0,0.0,0.0
23024000000,218,23024000000,imu_link,-0.000370107693075,-0.366911830633,4.2817958941e-05,0.930255647512,0.0,0.0,0.0,0.0,0.0,0.0,0.0,0.0,0.0,-0.00145437221526,-0.0117860876714,-0.000140025847069,0.0,0.0,0.0,0.0,0.0,0.0,0.0,0.0,0.0,5.97212558661,-0.0122483769523,7.53862789442,0.0,0.0,0.0,0.0,0.0,0.0,0.0,0.0,0.0
23028000000,219,23028000000,imu_link,-0.000371951171052,-0.366932465582,4.14775451272e-05,0.930247507728,0.0,0.0,0.0,0.0,0.0,0.0,0.0,0.0,0.0,-0.0011053078146,-0.0110908931674,-0.000288911132877,0.0,0.0,0.0,0.0,0.0,0.0,0.0,0.0,0.0,5.97461451001,-0.0121046328042,7.53350009131,0.0,0.0,0.0,0.0,0.0,0.0,0.0,0.0,0.0
23032000000,220,23032000000,imu_link,-0.000373043239034,-0.366951873491,4.01359212578e-05,0.930239851742,0.0,0.0,0.0,0.0,0.0,0.0,0.0,0.0,0.0,-0.000755915759037,-0.0104314221837,-0.000427114153424,0.0,0.0,0.0,0.0,0.0,0.0,0.0,0.0,0.0,5.97719898341,-0.0119318454179,7.53154709793,0.0,0.0,0.0,0.0,0.0,0.0,0.0,0.0,0.0
23036000000,221,23036000000,imu_link,-0.000373464835462,-0.36697019125,3.88036387116e-05,0.930232625612,0.0,0.0,0.0,0.0,0.0,0.0,0.0,0.0,0.0,-0.000442250117275,-0.00984551859348,-0.000545590003947,0.0,0.0,0.0,0.0,0.0,0.0,0.0,0.0,0.0,5.97852195557,-0.0117339180192,7.52729469299,0.0,0.0,0.0,0.0,0.0,0.0,0.0,0.0,0.0
23040000000,222,23040000000,imu_link,-0.000373284690245,-0.366987459098,3.74910684617e-05,0.930225813509,0.0,0.0,0.0,0.0,0.0,0.0,0.0,0.0,0.0,-0.000158655666798,-0.00928123576929,-0.000646644097326,0.0,0.0,0.0,0.0,0.0,0.0,0.0,0.0,0.0,5.98078614811,-0.0115751181801,7.5240871157,0.0,0.0,0.0,0.0,0.0,0.0,0.0,0.0,0.0
23044000000,223,23044000000,imu_link,-0.000372471155732,-0.3670036394,3.61965236808e-05,0.930219430362,0.0,0.0,0.0,0.0,0.0,0.0,0.0,0.0,0.0,0.000139349878077,-0.00869670809876,-0.00075428824182,0.0,0.0,0.0,0.0,0.0,0.0,0.0,0.0,0.0,5.98274740494,-0.0114482996478,7.51955235572,0.0,0.0,0.0,0.0,0.0,0.0,0.0,0.0,0.0
23048000000,224,23048000000,imu_link,-0.000371154579104,-0.367018953041,3.48556153673e-05,0.930213389034,0.0,0.0,0.0,0.0,0.0,0.0,0.0,0.0,0.0,0.000364891204399,-0.00823089193759,-0.000868006298157,0.0,0.0,0.0,0.0,0.0,0.0,0.0,0.0,0.0,5.9860588105,-0.0113036544239,7.51987002923,0.0,0.0,0.0,0.0,0.0,0.0,0.0,0.0,0.0
23052000000,225,23052000000,imu_link,-0.000369547041612,-0.367033802445,3.3474277241e-05,0.930207530703,0.0,0.0,0.0,0.0,0.0,0.0,0.0,0.0,0.0,0.000492841847426,-0.00798138825234,-0.000940121588157,0.0,0.0,0.0,0.0,0.0,0.0,0.0,0.0,0.0,5.99027796659,-0.0111108400864,7.52391193007,0.0,0.0,0.0,0.0,0.0,0.0,0.0,0.0,0.0
23056000000,226,23056000000,imu_link,-0.000367853282877,-0.367048953666,3.20876153056e-05,0.930201553034,0.0,0.0,0.0,0.0,0.0,0.0,0.0,0.0,0.0,0.000531939560698,-0.00814366528582,-0.000958474537312,0.0,0.0,0.0,0.0,0.0,0.0,0.0,0.0,0.0,5.99419900626,-0.0109200614013,7.52960261492,0.0,0.0,0.0,0.0,0.0,0.0,0.0,0.0,0.0
23060000000,227,23060000000,imu_link,-0.000366356500337,-0.367065011229,3.06472220679e-05,0.930195217347,0.0,0.0,0.0,0.0,0.0,0.0,0.0,0.0,0.0,0.000430384380189,-0.00863089808788,-0.000947476011271,0.0,0.0,0.0,0.0,0.0,0.0,0.0,0.0,0.0,5.99769399085,-0.0107658413439,7.5328949601,0.0,0.0,0.0,0.0,0.0,0.0,0.0,0.0,0.0
23064000000,228,23064000000,imu_link,-0.000365287273107,-0.367082354718,2.91127224373e-05,0.930188373703,0.0,0.0,0.0,0.0,0.0,0.0,0.0,0.0,0.0,0.000214145094073,-0.00932218164197,-0.000913002142042,0.0,0.0,0.0,0.0,0.0,0.0,0.0,0.0,0.0,6.00138911483,-0.0107173361486,7.53493192126,0.0,0.0,0.0,0.0,0.0,0.0,0.0,0.0,0.0
23068000000,229,23068000000,imu_link,-0.000364816430405,-0.367101271364,2.74565518661e-05,0.930180908597,0.0,0.0,0.0,0.0,0.0,0.0,0.0,0.0,0.0,-8.66281045246e-05,-0.0101678806031,-0.000860040669326,0.0,0.0,0.0,0.0,0.0,0.0,0.0,0.0,0.0,6.00477994168,-0.0107482350968,7.53562792965,0.0,0.0,0.0,0.0,0.0,0.0,0.0,0.0,0.0
23072000000,230,23072000000,imu_link,-0.000364978000378,-0.367122014946,2.56658783085e-05,0.930172721743,0.0,0.0,0.0,0.0,0.0,0.0,0.0,0.0,0.0,-0.000405602045261,-0.0111500156532,-0.000806840315729,0.0,0.0,0.0,0.0,0.0,0.0,0.0,0.0,0.0,6.00708306806,-0.0108094093891,7.53353859547,0.0,0.0,0.0,0.0,0.0,0.0,0.0,0.0,0.0
23076000000,231,23076000000,imu_link,-0.000365588912148,-0.36714462598,2.37642666377e-05,0.930163797078,0.0,0.0,0.0,0.0,0.0,0.0,0.0,0.0,0.0,-0.000635107305443,-0.0121539489207,-0.000776285807245,0.0,0.0,0.0,0.0,0.0,0.0,0.0,0.0,0.0,6.00940693006,-0.0108957832371,7.52984127996,0.0,0.0,0.0,0.0,0.0,0.0,0.0,0.0,0.0
23080000000,232,23080000000,imu_link,-0.000366413283905,-0.367169166279,2.18088230117e-05,0.930154110134,0.0,0.0,0.0,0.0,0.0,0.0,0.0,0.0,0.0,-0.000744428002118,-0.0131911363029,-0.000762480333242,0.0,0.0,0.0,0.0,0.0,0.0,0.0,0.0,0.0,6.01219729129,-0.0109513151616,7.52761405833,0.0,0.0,0.0,0.0,0.0,0.0,0.0,0.0,0.0
23084000000,233,23084000000,imu_link,-0.000367376394809,-0.367195642448,1.97972737652e-05,0.930143658157,0.0,0.0,0.0,0.0,0.0,0.0,0.0,0.0,0.0,-0.000819413791673,-0.0142319013966,-0.000763449723487,0.0,0.0,0.0,0.0,0.0,0.0,0.0,0.0,0.0,6.01437384691,-0.0109443717883,7.5234788205,0.0,0.0,0.0,0.0,0.0,0.0,0.0,0.0,0.0
23088000000,234,23088000000,imu_link,-0.000368548400143,-0.367224055493,1.77237594138e-05,0.930132440529,0.0,0.0,0.0,0.0,0.0,0.0,0.0,0.0,0.0,-0.000928101178178,-0.0152732464656,-0.000754263588502,0.0,0.0,0.0,0.0,0.0,0.0,0.0,0.0,0.0,6.01675780957,-0.0109148918151,7.51978219632,0.0,0.0,0.0,0.0,0.0,0.0,0.0,0.0,0.0
23092000000,235,23092000000,imu_link,-0.000370137152024,-0.367254296488,1.56276944907e-05,0.93012049997,0.0,0.0,0.0,0.0,0.0,0.0,0.0,0.0,0.0,-0.0011262058928,-0.016256095379,-0.000688561856524,0.0,0.0,0.0,0.0,0.0,0.0,0.0,0.0,0.0,6.02203471061,-0.0108881331898,7.52200416159,0.0,0.0,0.0,0.0,0.0,0.0,0.0,0.0,0.0
23096000000,236,23096000000,imu_link,-0.00037223061076,-0.36728612776,1.35815954144e-05,0.930107930089,0.0,0.0,0.0,0.0,0.0,0.0,0.0,0.0,0.0,-0.00135187879688,-0.0171112355367,-0.000572936239599,0.0,0.0,0.0,0.0,0.0,0.0,0.0,0.0,0.0,6.02575968735,-0.0109073757001,7.51974753326,0.0,0.0,0.0,0.0,0.0,0.0,0.0,0.0,0.0
23100000000,237,23100000000,imu_link,-0.000374709577521,-0.36731906659,1.16467200808e-05,0.93009492138,0.0,0.0,0.0,0.0,0.0,0.0,0.0,0.0,0.0,-0.00151082455778,-0.0177069160247,-0.000450618475739,0.0,0.0,0.0,0.0,0.0,0.0,0.0,0.0,0.0,6.02892294684,-0.0109242934583,7.51468614075,0.0,0.0,0.0,0.0,0.0,0.0,0.0,0.0,0.0
23104000000,238,23104000000,imu_link,-0.000377431959035,-0.367352562688,9.85079208561e-06,0.930081691108,0.0,0.0,0.0,0.0,0.0,0.0,0.0,0.0,0.0,-0.00159854972299,-0.0180067884951,-0.000341399045456,0.0,0.0,0.0,0.0,0.0,0.0,0.0,0.0,0.0,6.03158584407,-0.0108752672086,7.50812925809,0.0,0.0,0.0,0.0,0.0,0.0,0.0,0.0,0.0
23108000000,239,23108000000,imu_link,-0.000380204825694,-0.36738591838,8.19041187234e-06,0.930068514871,0.0,0.0,0.0,0.0,0.0,0.0,0.0,0.0,0.0,-0.00159711957668,-0.0179315941976,-0.000269064635593,0.0,0.0,0.0,0.0,0.0,0.0,0.0,0.0,0.0,6.0356535611,-0.010855750239,7.50413899663,0.0,0.0,0.0,0.0,0.0,0.0,0.0,0.0,0.0
23112000000,240,23112000000,imu_link,-0.000382969149053,-0.367418510261,6.63771085913e-06,0.930055638985,0.0,0.0,0.0,0.0,0.0,0.0,0.0,0.0,0.0,-0.00157330651248,-0.0175212441344,-0.000220415490762,0.0,0.0,0.0,0.0,0.0,0.0,0.0,0.0,0.0,6.0386296156,-0.0108321161503,7.4987363049,0.0,0.0,0.0,0.0,0.0,0.0,0.0,0.0,0.0
23116000000,241,23116000000,imu_link,-0.000386033116696,-0.367449993156,5.11427601645e-06,0.930043199793,0.0,0.0,0.0,0.0,0.0,0.0,0.0,0.0,0.0,-0.00170718567402,-0.0169253149569,-0.000151547574498,0.0,0.0,0.0,0.0,0.0,0.0,0.0,0.0,0.0,6.04008880104,-0.0107580229213,7.49234895805,0.0,0.0,0.0,0.0,0.0,0.0,0.0,0.0,0.0
23120000000,242,23120000000,imu_link,-0.000389816138978,-0.367480485679,3.48675552476e-06,0.930031150379,0.0,0.0,0.0,0.0,0.0,0.0,0.0,0.0,0.0,-0.00206060698175,-0.0163931368399,-6.76511771423e-05,0.0,0.0,0.0,0.0,0.0,0.0,0.0,0.0,0.0,6.04214684026,-0.0106859341581,7.49027005987,0.0,0.0,0.0,0.0,0.0,0.0,0.0,0.0,0.0
23124000000,243,23124000000,imu_link,-0.000394567926905,-0.36751031674,1.63369634482e-06,0.930019360768,0.0,0.0,0.0,0.0,0.0,0.0,0.0,0.0,0.0,-0.00255248683833,-0.0160377642087,5.59952661585e-06,0.0,0.0,0.0,0.0,0.0,0.0,0.0,0.0,0.0,6.04428211428,-0.0106998964498,7.49011018173,0.0,0.0,0.0,0.0,0.0,0.0,0.0,0.0,0.0
23128000000,244,23128000000,imu_link,-0.000399950047387,-0.367539646092,-4.67210544626e-07,0.930007768027,0.0,0.0,0.0,0.0,0.0,0.0,0.0,0.0,0.0,-0.00289110162465,-0.0157682401603,6.27361899651e-06,0.0,0.0,0.0,0.0,0.0,0.0,0.0,0.0,0.0,6.04681904169,-0.0108226911419,7.48960713069,0.0,0.0,0.0,0.0,0.0,0.0,0.0,0.0,0.0
23132000000,245,23132000000,imu_link,-0.00040525957679,-0.367568495123,-2.73487212158e-06,0.929996364052,0.0,0.0,0.0,0.0,0.0,0.0,0.0,0.0,0.0,-0.00288795333339,-0.0155101653053,-8.45119117516e-05,0.0,0.0,0.0,0.0,0.0,0.0,0.0,0.0,0.0,6.04988736323,-0.0109689182403,7.48888023337,0.0,0.0,0.0,0.0,0.0,0.0,0.0,0.0,0.0
23136000000,246,23136000000,imu_link,-0.000409704794841,-0.367596524797,-5.02807290249e-06,0.929985283257,0.0,0.0,0.0,0.0,0.0,0.0,0.0,0.0,0.0,-0.00249067946427,-0.0150697645046,-0.000255067938612,0.0,0.0,0.0,0.0,0.0,0.0,0.0,0.0,0.0,6.05328121231,-0.0110365026178,7.48606079685,0.0,0.0,0.0,0.0,0.0,0.0,0.0,0.0,0.0
23140000000,247,23140000000,imu_link,-0.000412906996059,-0.367623408249,-7.22812132666e-06,0.929974655119,0.0,0.0,0.0,0.0,0.0,0.0,0.0,0.0,0.0,-0.00189547469508,-0.014453597882,-0.00043998116808,0.0,0.0,0.0,0.0,0.0,0.0,0.0,0.0,0.0,6.05517247821,-0.0109333290639,7.47975325861,0.0,0.0,0.0,0.0,0.0,0.0,0.0,0.0,0.0
23144000000,248,23144000000,imu_link,-0.000414970322793,-0.36764911808,-9.30518592533e-06,0.929964490552,0.0,0.0,0.0,0.0,0.0,0.0,0.0,0.0,0.0,-0.00134321516159,-0.0138226907452,-0.000591889733877,0.0,0.0,0.0,0.0,0.0,0.0,0.0,0.0,0.0,6.05751012483,-0.0106291242061,7.47733986453,0.0,0.0,0.0,0.0,0.0,0.0,0.0,0.0,0.0
23148000000,249,23148000000,imu_link,-0.000416583261023,-0.367674062335,-1.13382822563e-05,0.929954628042,0.0,0.0,0.0,0.0,0.0,0.0,0.0,0.0,0.0,-0.00112565094564,-0.0134111928295,-0.000654077487166,0.0,0.0,0.0,0.0,0.0,0.0,0.0,0.0,0.0,6.06085982227,-0.0101828251236,7.48073521826,0.0,0.0,0.0,0.0,0.0,0.0,0.0,0.0,0.0
23152000000,250,23152000000,imu_link,-0.000418381943066,-0.367698854842,-1.33997779476e-05,0.929944824667,0.0,0.0,0.0,0.0,0.0,0.0,0.0,0.0,0.0,-0.001217227002,-0.0133297575412,-0.000633104011253,0.0,0.0,0.0,0.0,0.0,0.0,0.0,0.0,0.0,6.06397523529,-0.00987342882341,7.48491163355,0.0,0.0,0.0,0.0,0.0,0.0,0.0,0.0,0.0
23156000000,251,23156000000,imu_link,-0.00042065446619,-0.367723978829,-1.5535940906e-05,0.929934889227,0.0,0.0,0.0,0.0,0.0,0.0,0.0,0.0,0.0,-0.00145130297245,-0.0135081544188,-0.000580777046839,0.0,0.0,0.0,0.0,0.0,0.0,0.0,0.0,0.0,6.06580745838,-0.00978246491314,7.48525610882,0.0,0.0,0.0,0.0,0.0,0.0,0.0,0.0,0.0
23160000000,252,23160000000,imu_link,-0.000423265674784,-0.367749665335,-1.77387603489e-05,0.929924730383,0.0,0.0,0.0,0.0,0.0,0.0,0.0,0.0,0.0,-0.00162107890262,-0.0138107710051,-0.000549618805853,0.0,0.0,0.0,0.0,0.0,0.0,0.0,0.0,0.0,6.06712794849,-0.00984232388164,7.4825033856,0.0,0.0,0.0,0.0,0.0,0.0,0.0,0.0,0.0
23164000000,253,23164000000,imu_link,-0.00042598937336,-0.367775853769,-1.99575889077e-05,0.929914372144,0.0,0.0,0.0,0.0,0.0,0.0,0.0,0.0,0.0,-0.00167636393105,-0.0140808105914,-0.000536486358799,0.0,0.0,0.0,0.0,0.0,0.0,0.0,0.0,0.0,6.06870655816,-0.00989051488009,7.47795988833,0.0,0.0,0.0,0.0,0.0,0.0,0.0,0.0,0.0
23168000000,254,23168000000,imu_link,-0.000428699469485,-0.367802341038,-2.21277771374e-05,0.929903894848,0.0,0.0,0.0,0.0,0.0,0.0,0.0,0.0,0.0,-0.00166111738074,-0.0142416589019,-0.000516436852964,0.0,0.0,0.0,0.0,0.0,0.0,0.0,0.0,0.0,6.07089924985,-0.00987651765671,7.47356591256,0.0,0.0,0.0,0.0,0.0,0.0,0.0,0.0,0.0
23172000000,255,23172000000,imu_link,-0.000431381720751,-0.367828842772,-2.42277089743e-05,0.92989341096,0.0,0.0,0.0,0.0,0.0,0.0,0.0,0.0,0.0,-0.00163525187951,-0.0142496116728,-0.000488894881945,0.0,0.0,0.0,0.0,0.0,0.0,0.0,0.0,0.0,6.07292095598,-0.00983013821947,7.46859401845,0.0,0.0,0.0,0.0,0.0,0.0,0.0,0.0,0.0
23176000000,256,23176000000,imu_link,-0.000434089037305,-0.367855032975,-2.62564619719e-05,0.929883049417,0.0,0.0,0.0,0.0,0.0,0.0,0.0,0.0,0.0,-0.00163379247251,-0.0140822809394,-0.000451121970802,0.0,0.0,0.0,0.0,0.0,0.0,0.0,0.0,0.0,6.07486282408,-0.0097823286223,7.46298062753,0.0,0.0,0.0,0.0,0.0,0.0,0.0,0.0,0.0
23180000000,257,23180000000,imu_link,-0.00043684695541,-0.36788093984,-2.82346960423e-05,0.929872799081,0.0,0.0,0.0,0.0,0.0,0.0,0.0,0.0,0.0,-0.00164800699714,-0.0139301031744,-0.000418263649168,0.0,0.0,0.0,0.0,0.0,0.0,0.0,0.0,0.0,6.0768445754,-0.00975980489864,7.46005822641,0.0,0.0,0.0,0.0,0.0,0.0,0.0,0.0,0.0
23184000000,258,23184000000,imu_link,-0.000439515780475,-0.367907080354,-3.01552373791e-05,0.929862455496,0.0,0.0,0.0,0.0,0.0,0.0,0.0,0.0,0.0,-0.00159598944024,-0.0140558983518,-0.000407880363829,0.0,0.0,0.0,0.0,0.0,0.0,0.0,0.0,0.0,6.07972521383,-0.00977142074348,7.46260548255,0.0,0.0,0.0,0.0,0.0,0.0,0.0,0.0,0.0
23188000000,259,23188000000,imu_link,-0.00044194872371,-0.367934229372,-3.1971341398e-05,0.929851712111,0.0,0.0,0.0,0.0,0.0,0.0,0.0,0.0,0.0,-0.00146718165073,-0.0145983478621,-0.000402943145961,0.0,0.0,0.0,0.0,0.0,0.0,0.0,0.0,0.0,6.08339483066,-0.00972474604755,7.46851915445,0.0,0.0,0.0,0.0,0.0,0.0,0.0,0.0,0.0
23192000000,260,23192000000,imu_link,-0.000443874309844,-0.367962820444,-3.36143738026e-05,0.929840397389,0.0,0.0,0.0,0.0,0.0,0.0,0.0,0.0,0.0,-0.0011995619292,-0.0153739329486,-0.000416142489492,0.0,0.0,0.0,0.0,0.0,0.0,0.0,0.0,0.0,6.08639315284,-0.00964914784599,7.47069497622,0.0,0.0,0.0,0.0,0.0,0.0,0.0,0.0,0.0
23196000000,261,23196000000,imu_link,-0.000445118410976,-0.367992833501,-3.50682892391e-05,0.929828519207,0.0,0.0,0.0,0.0,0.0,0.0,0.0,0.0,0.0,-0.000848032932926,-0.0161387394489,-0.00045392382456,0.0,0.0,0.0,0.0,0.0,0.0,0.0,0.0,0.0,6.08796136808,-0.00947295365626,7.46604978648,0.0,0.0,0.0,0.0,0.0,0.0,0.0,0.0,0.0
23200000000,262,23200000000,imu_link,-0.000445648625203,-0.368023844273,-3.63621557227e-05,0.929816245353,0.0,0.0,0.0,0.0,0.0,0.0,0.0,0.0,0.0,-0.000486758863738,-0.0166754166491,-0.000511096404961,0.0,0.0,0.0,0.0,0.0,0.0,0.0,0.0,0.0,6.08969342394,-0.00930706019149,7.45888864856,0.0,0.0,0.0,0.0,0.0,0.0,0.0,0.0,0.0
23204000000,263,23204000000,imu_link,-0.000445466507581,-0.36805513398,-3.75253408053e-05,0.929803860232,0.0,0.0,0.0,0.0,0.0,0.0,0.0,0.0,0.0,-0.000131562786589,-0.0168255861029,-0.000581483289274,0.0,0.0,0.0,0.0,0.0,0.0,0.0,0.0,0.0,6.09306497089,-0.00918845403201,7.45344942415,0.0,0.0,0.0,0.0,0.0,0.0,0.0,0.0,0.0
23208000000,264,23208000000,imu_link,-0.000444738391859,-0.368086192752,-3.85915841443e-05,0.92979156558,0.0,0.0,0.0,0.0,0.0,0.0,0.0,0.0,0.0,0.000140128554726,-0.0167015869417,-0.000636840453355,0.0,0.0,0.0,0.0,0.0,0.0,0.0,0.0,0.0,6.09503866465,-0.00907220527789,7.44704721154,0.0,0.0,0.0,0.0,0.0,0.0,0.0,0.0,0.0
23212000000,265,23212000000,imu_link,-0.000443847207885,-0.368116634329,-3.96163142047e-05,0.929779514165,0.0,0.0,0.0,0.0,0.0,0.0,0.0,0.0,0.0,0.000223620708886,-0.0163698956197,-0.000647410752614,0.0,0.0,0.0,0.0,0.0,0.0,0.0,0.0,0.0,6.09785700786,-0.00893494665946,7.44345262094,0.0,0.0,0.0,0.0,0.0,0.0,0.0,0.0,0.0
23216000000,266,23216000000,imu_link,-0.000443161281677,-0.368146271415,-4.06511825078e-05,0.929767780039,0.0,0.0,0.0,0.0,0.0,0.0,0.0,0.0,0.0,0.000126386926282,-0.0159374979701,-0.00061415969814,0.0,0.0,0.0,0.0,0.0,0.0,0.0,0.0,0.0,6.09857929328,-0.00885206971421,7.43714058707,0.0,0.0,0.0,0.0,0.0,0.0,0.0,0.0,0.0
23220000000,267,23220000000,imu_link,-0.000442996899853,-0.368175148284,-4.17461578032e-05,0.929756345607,0.0,0.0,0.0,0.0,0.0,0.0,0.0,0.0,0.0,-0.000127083783806,-0.0155289168402,-0.000545925619535,0.0,0.0,0.0,0.0,0.0,0.0,0.0,0.0,0.0,6.09970548913,-0.00880000497611,7.43353238895,0.0,0.0,0.0,0.0,0.0,0.0,0.0,0.0,0.0
23224000000,268,23224000000,imu_link,-0.000443454889226,-0.368203264788,-4.28890543583e-05,0.929745210963,0.0,0.0,0.0,0.0,0.0,0.0,0.0,0.0,0.0,-0.000425181745793,-0.0151202548447,-0.000453457686068,0.0,0.0,0.0,0.0,0.0,0.0,0.0,0.0,0.0,6.10113191917,-0.00884723040171,7.42981476736,0.0,0.0,0.0,0.0,0.0,0.0,0.0,0.0,0.0
23228000000,269,23228000000,imu_link,-0.00044446496121,-0.368230606348,-4.4008681992e-05,0.929734381995,0.0,0.0,0.0,0.0,0.0,0.0,0.0,0.0,0.0,-0.000677494822792,-0.0147037464498,-0.00034082291067,0.0,0.0,0.0,0.0,0.0,0.0,0.0,0.0,0.0,6.10375387995,-0.00894889232587,7.42844492313,0.0,0.0,0.0,0.0,0.0,0.0,0.0,0.0,0.0
23232000000,270,23232000000,imu_link,-0.000445719802434,-0.368257059856,-4.50629067793e-05,0.929723903731,0.0,0.0,0.0,0.0,0.0,0.0,0.0,0.0,0.0,-0.000779179949889,-0.0142263697765,-0.000265148439245,0.0,0.0,0.0,0.0,0.0,0.0,0.0,0.0,0.0,6.10569796706,-0.00907930446104,7.42488240954,0.0,0.0,0.0,0.0,0.0,0.0,0.0,0.0,0.0
23236000000,271,23236000000,imu_link,-0.000446761638068,-0.36828252265,-4.60013835704e-05,0.92971381715,0.0,0.0,0.0,0.0,0.0,0.0,0.0,0.0,0.0,-0.000658784279613,-0.0136937258827,-0.000250332390257,0.0,0.0,0.0,0.0,0.0,0.0,0.0,0.0,0.0,6.10764731179,-0.00911694123293,7.42179548145,0.0,0.0,0.0,0.0,0.0,0.0,0.0,0.0,0.0
23240000000,272,23240000000,imu_link,-0.000447053731205,-0.368306983847,-4.67322736796e-05,0.929704126918,0.0,0.0,0.0,0.0,0.0,0.0,0.0,0.0,0.0,-0.00027197052658,-0.0131551712994,-0.000291659962409,0.0,0.0,0.0,0.0,0.0,0.0,0.0,0.0,0.0,6.10934824613,-0.00904738583318,7.41874813378,0.0,0.0,0.0,0.0,0.0,0.0,0.0,0.0,0.0
23244000000,273,23244000000,imu_link,-0.000446243485949,-0.368330442847,-4.71971354914e-05,0.92969483354,0.0,0.0,0.0,0.0,0.0,0.0,0.0,0.0,0.0,0.000289509079762,-0.0126162500397,-0.000370762332941,0.0,0.0,0.0,0.0,0.0,0.0,0.0,0.0,0.0,6.11113751505,-0.0088994834153,7.41586773955,0.0,0.0,0.0,0.0,0.0,0.0,0.0,0.0,0.0
23248000000,274,23248000000,imu_link,-0.000444350170812,-0.368352924783,-4.73803129902e-05,0.929685927134,0.0,0.0,0.0,0.0,0.0,0.0,0.0,0.0,0.0,0.000844911055069,-0.0120908344403,-0.000439058775887,0.0,0.0,0.0,0.0,0.0,0.0,0.0,0.0,0.0,6.11270766304,-0.00871691246809,7.41279159312,0.0,0.0,0.0,0.0,0.0,0.0,0.0,0.0,0.0
23252000000,275,23252000000,imu_link,-0.000441946659739,-0.368374641329,-4.73598863379e-05,0.929677323627,0.0,0.0,0.0,0.0,0.0,0.0,0.0,0.0,0.0,0.0011196203023,-0.0116792946595,-0.000438203675112,0.0,0.0,0.0,0.0,0.0,0.0,0.0,0.0,0.0,6.11502053704,-0.0085155021008,7.41296941312,0.0,0.0,0.0,0.0,0.0,0.0,0.0,0.0,0.0
23256000000,276,23256000000,imu_link,-0.000439884694994,-0.36839582444,-4.72604259361e-05,0.929668930751,0.0,0.0,0.0,0.0,0.0,0.0,0.0,0.0,0.0,0.000975447291075,-0.0113925634096,-0.000338434367087,0.0,0.0,0.0,0.0,0.0,0.0,0.0,0.0,0.0,6.1170959925,-0.00833014880284,7.41252670386,0.0,0.0,0.0,0.0,0.0,0.0,0.0,0.0,0.0
23260000000,277,23260000000,imu_link,-0.000438581564371,-0.368416442949,-4.71432121704e-05,0.929660760702,0.0,0.0,0.0,0.0,0.0,0.0,0.0,0.0,0.0,0.000626020837715,-0.0110890946181,-0.000190276885381,0.0,0.0,0.0,0.0,0.0,0.0,0.0,0.0,0.0,6.11872661898,-0.00833348886685,7.40896156139,0.0,0.0,0.0,0.0,0.0,0.0,0.0,0.0,0.0
23264000000,278,23264000000,imu_link,-0.000438028600158,-0.368436338199,-4.70273276658e-05,0.929652876408,0.0,0.0,0.0,0.0,0.0,0.0,0.0,0.0,0.0,0.000277121453747,-0.010700280885,-5.2542606218e-05,0.0,0.0,0.0,0.0,0.0,0.0,0.0,0.0,0.0,6.12006980953,-0.00846700795844,7.40394532945,0.0,0.0,0.0,0.0,0.0,0.0,0.0,0.0,0.0
23268000000,279,23268000000,imu_link,-0.000437897679451,-0.368455381542,-4.69120268271e-05,0.929645329068,0.0,0.0,0.0,0.0,0.0,0.0,0.0,0.0,0.0,8.08907187948e-05,-0.0102422288508,2.51286750215e-05,0.0,0.0,0.0,0.0,0.0,0.0,0.0,0.0,0.0,6.12226817537,-0.00866228337765,7.40110784431,0.0,0.0,0.0,0.0,0.0,0.0,0.0,0.0,0.0
23272000000,280,23272000000,imu_link,-0.000437951444763,-0.368473701881,-4.68051366436e-05,0.929638067761,0.0,0.0,0.0,0.0,0.0,0.0,0.0,0.0,0.0,-6.45933653556e-06,-0.00985346706307,5.54085009972e-05,0.0,0.0,0.0,0.0,0.0,0.0,0.0,0.0,0.0,6.12465087768,-0.00879940289112,7.4006033711,0.0,0.0,0.0,0.0,0.0,0.0,0.0,0.0,0.0
23276000000,281,23276000000,imu_link,-0.000438182907537,-0.368491698448,-4.67804639862e-05,0.929630934287,0.0,0.0,0.0,0.0,0.0,0.0,0.0,0.0,0.0,-0.000104183582323,-0.00967940644257,5.00045406486e-05,0.0,0.0,0.0,0.0,0.0,0.0,0.0,0.0,0.0,6.12765059472,-0.0088545289073,7.40339612309,0.0,0.0,0.0,0.0,0.0,0.0,0.0,0.0,0.0
23280000000,282,23280000000,imu_link,-0.000438689174666,-0.368509696983,-4.68942841986e-05,0.929623799492,0.0,0.0,0.0,0.0,0.0,0.0,0.0,0.0,0.0,-0.000257433876117,-0.00968054082229,3.62620120381e-05,0.0,0.0,0.0,0.0,0.0,0.0,0.0,0.0,0.0,6.12929863056,-0.00882181410547,7.40259773316,0.0,0.0,0.0,0.0,0.0,0.0,0.0,0.0,0.0
23284000000,283,23284000000,imu_link,-0.000439655307188,-0.368527893925,-4.71897073342e-05,0.929616585414,0.0,0.0,0.0,0.0,0.0,0.0,0.0,0.0,0.0,-0.000504658740934,-0.00978734167717,3.65378624374e-05,0.0,0.0,0.0,0.0,0.0,0.0,0.0,0.0,0.0,6.1314514481,-0.00875104163258,7.40190919785,0.0,0.0,0.0,0.0,0.0,0.0,0.0,0.0,0.0
23288000000,284,23288000000,imu_link,-0.000441325265643,-0.368546336058,-4.76705462627e-05,0.929609273371,0.0,0.0,0.0,0.0,0.0,0.0,0.0,0.0,0.0,-0.00086598406724,-0.0099193362996,7.9988597298e-05,0.0,0.0,0.0,0.0,0.0,0.0,0.0,0.0,0.0,6.13314687643,-0.00869114011619,7.39907559726,0.0,0.0,0.0,0.0,0.0,0.0,0.0,0.0,0.0
23292000000,285,23292000000,imu_link,-0.000443976331613,-0.368565168858,-4.8372689859e-05,0.929601805533,0.0,0.0,0.0,0.0,0.0,0.0,0.0,0.0,0.0,-0.00136281296789,-0.0101296032071,0.000157827032497,0.0,0.0,0.0,0.0,0.0,0.0,0.0,0.0,0.0,6.13533603646,-0.0087213998873,7.39821977456,0.0,0.0,0.0,0.0,0.0,0.0,0.0,0.0,0.0
23296000000,286,23296000000,imu_link,-0.000447633284402,-0.368584662826,-4.9281974327e-05,0.929594074597,0.0,0.0,0.0,0.0,0.0,0.0,0.0,0.0,0.0,-0.00186856493833,-0.0104853771833,0.000246762056348,0.0,0.0,0.0,0.0,0.0,0.0,0.0,0.0,0.0,6.13718833756,-0.00887793553611,7.39750650936,0.0,0.0,0.0,0.0,0.0,0.0,0.0,0.0,0.0
23300000000,287,23300000000,imu_link,-0.000452169502177,-0.368605052594,-5.03780086989e-05,0.929585987527,0.0,0.0,0.0,0.0,0.0,0.0,0.0,0.0,0.0,-0.0023117189094,-0.0109673552406,0.000321793777977,0.0,0.0,0.0,0.0,0.0,0.0,0.0,0.0,0.0,6.1386301025,-0.0090457400465,7.39565468828,0.0,0.0,0.0,0.0,0.0,0.0,0.0,0.0,0.0
23304000000,288,23304000000,imu_link,-0.000457067461588,-0.368626584104,-5.16062036556e-05,0.929577446971,0.0,0.0,0.0,0.0,0.0,0.0,0.0,0.0,0.0,-0.00250428518426,-0.0115815868028,0.000326766808237,0.0,0.0,0.0,0.0,0.0,0.0,0.0,0.0,0.0,6.14180895268,-0.0092373390946,7.3975226321,0.0,0.0,0.0,0.0,0.0,0.0,0.0,0.0,0.0
23308000000,289,23308000000,imu_link,-0.000461748910001,-0.368649345446,-5.29095277094e-05,0.929568418187,0.0,0.0,0.0,0.0,0.0,0.0,0.0,0.0,0.0,-0.00241758044828,-0.0122431630841,0.00025164814031,0.0,0.0,0.0,0.0,0.0,0.0,0.0,0.0,0.0,6.14493781457,-0.00935569115146,7.39820052565,0.0,0.0,0.0,0.0,0.0,0.0,0.0,0.0,0.0
23312000000,290,23312000000,imu_link,-0.000465708802161,-0.368673330279,-5.41780812786e-05,0.929558903847,0.0,0.0,0.0,0.0,0.0,0.0,0.0,0.0,0.0,-0.00207588317297,-0.0129013108383,0.000134512974437,0.0,0.0,0.0,0.0,0.0,0.0,0.0,0.0,0.0,6.1475790263,-0.00936543476603,7.39675517872,0.0,0.0,0.0,0.0,0.0,0.0,0.0,0.0,0.0
23316000000,291,23316000000,imu_link,-0.00046879203017,-0.368698456032,-5.53709662585e-05,0.929548936683,0.0,0.0,0.0,0.0,0.0,0.0,0.0,0.0,0.0,-0.00165455372907,-0.0135150532757,7.80289868977e-06,0.0,0.0,0.0,0.0,0.0,0.0,0.0,0.0,0.0,6.14952565035,-0.00925776413254,7.39308206266,0.0,0.0,0.0,0.0,0.0,0.0,0.0,0.0,0.0
23320000000,292,23320000000,imu_link,-0.000471052134026,-0.368724672833,-5.64665747921e-05,0.929538536353,0.0,0.0,0.0,0.0,0.0,0.0,0.0,0.0,0.0,-0.00125412512712,-0.0141019982924,-9.89955244834e-05,0.0,0.0,0.0,0.0,0.0,0.0,0.0,0.0,0.0,6.15143335986,-0.00909698384834,7.38964227208,0.0,0.0,0.0,0.0,0.0,0.0,0.0,0.0,0.0
23324000000,293,23324000000,imu_link,-0.00047267938261,-0.3687518091,-5.75022232075e-05,0.929527770727,0.0,0.0,0.0,0.0,0.0,0.0,0.0,0.0,0.0,-0.000948999134748,-0.0145966809634,-0.000188029452674,0.0,0.0,0.0,0.0,0.0,0.0,0.0,0.0,0.0,6.15363987995,-0.00892295195975,7.38597033437,0.0,0.0,0.0,0.0,0.0,0.0,0.0,0.0,0.0
23328000000,294,23328000000,imu_link,-0.000473476834025,-0.368779606493,-5.84811382851e-05,0.92951674231,0.0,0.0,0.0,0.0,0.0,0.0,0.0,0.0,0.0,-0.000552922218026,-0.0149523903365,-0.000314820255581,0.0,0.0,0.0,0.0,0.0,0.0,0.0,0.0,0.0,6.15575764333,-0.00879788798696,7.38197945665,0.0,0.0,0.0,0.0,0.0,0.0,0.0,0.0,0.0
23332000000,295,23332000000,imu_link,-0.000473223052647,-0.368807749899,-5.93829855412e-05,0.929505576179,0.0,0.0,0.0,0.0,0.0,0.0,0.0,0.0,0.0,-5.01649414917e-05,-0.0151385831818,-0.000472924889555,0.0,0.0,0.0,0.0,0.0,0.0,0.0,0.0,0.0,6.15798461867,-0.00860982873011,7.37789104601,0.0,0.0,0.0,0.0,0.0,0.0,0.0,0.0,0.0
23336000000,296,23336000000,imu_link,-0.000471752995706,-0.368836101911,-6.01941542274e-05,0.929494326907,0.0,0.0,0.0,0.0,0.0,0.0,0.0,0.0,0.0,0.000531810519726,-0.0152508503882,-0.000655119525791,0.0,0.0,0.0,0.0,0.0,0.0,0.0,0.0,0.0,6.15890954422,-0.00839730857879,7.37252977493,0.0,0.0,0.0,0.0,0.0,0.0,0.0,0.0,0.0
23340000000,297,23340000000,imu_link,-0.000469209779575,-0.368864417384,-6.09319554807e-05,0.929483091679,0.0,0.0,0.0,0.0,0.0,0.0,0.0,0.0,0.0,0.0010440907009,-0.0152312639641,-0.000818923104125,0.0,0.0,0.0,0.0,0.0,0.0,0.0,0.0,0.0,6.15957584196,-0.00817274171303,7.36594372089,0.0,0.0,0.0,0.0,0.0,0.0,0.0,0.0,0.0
23344000000,298,23344000000,imu_link,-0.000466036181451,-0.368892373731,-6.16234402143e-05,0.929471998296,0.0,0.0,0.0,0.0,0.0,0.0,0.0,0.0,0.0,0.00134561999731,-0.0150381942504,-0.000913572062398,0.0,0.0,0.0,0.0,0.0,0.0,0.0,0.0,0.0,6.16241939166,-0.00796849303717,7.36398634684,0.0,0.0,0.0,0.0,0.0,0.0,0.0,0.0,0.0
23348000000,299,23348000000,imu_link,-0.000462901185347,-0.368919597017,-6.23416457082e-05,0.929461194872,0.0,0.0,0.0,0.0,0.0,0.0,0.0,0.0,0.0,0.00132279668549,-0.0146440277089,-0.000918690415746,0.0,0.0,0.0,0.0,0.0,0.0,0.0,0.0,0.0,6.16627128167,-0.0077797132054,7.36374293363,0.0,0.0,0.0,0.0,0.0,0.0,0.0,0.0,0.0
23352000000,300,23352000000,imu_link,-0.000460274145173,-0.368945669258,-6.31595206667e-05,0.929450847164,0.0,0.0,0.0,0.0,0.0,0.0,0.0,0.0,0.0,0.00106841861,-0.0140250328312,-0.000871031801677,0.0,0.0,0.0,0.0,0.0,0.0,0.0,0.0,0.0,6.16902681811,-0.00772410239984,7.36067121093,0.0,0.0,0.0,0.0,0.0,0.0,0.0,0.0,0.0
23356000000,301,23356000000,imu_link,-0.000458329492995,-0.368970327347,-6.41156677494e-05,0.929441059648,0.0,0.0,0.0,0.0,0.0,0.0,0.0,0.0,0.0,0.000725872371312,-0.0132644904737,-0.000809065186018,0.0,0.0,0.0,0.0,0.0,0.0,0.0,0.0,0.0,6.16938854792,-0.00776898649163,7.35391298207,0.0,0.0,0.0,0.0,0.0,0.0,0.0,0.0,0.0
23360000000,302,23360000000,imu_link,-0.000456985783973,-0.368993656363,-6.52086909542e-05,0.929431798722,0.0,0.0,0.0,0.0,0.0,0.0,0.0,0.0,0.0,0.000421428203818,-0.0125496821824,-0.00076148777497,0.0,0.0,0.0,0.0,0.0,0.0,0.0,0.0,0.0,6.16995575601,-0.00789142132726,7.35004127453,0.0,0.0,0.0,0.0,0.0,0.0,0.0,0.0,0.0
23364000000,303,23364000000,imu_link,-0.000455864312814,-0.36901614227,-6.63929191913e-05,0.929422871746,0.0,0.0,0.0,0.0,0.0,0.0,0.0,0.0,0.0,0.000301372512461,-0.012096250298,-0.000762666490454,0.0,0.0,0.0,0.0,0.0,0.0,0.0,0.0,0.0,6.17218702752,-0.00806288722632,7.35283233553,0.0,0.0,0.0,0.0,0.0,0.0,0.0,0.0,0.0
23368000000,304,23368000000,imu_link,-0.00045461468259,-0.369038266588,-6.76132402719e-05,0.929414087771,0.0,0.0,0.0,0.0,0.0,0.0,0.0,0.0,0.0,0.000354290665763,-0.0119018182657,-0.000802998464475,0.0,0.0,0.0,0.0,0.0,0.0,0.0,0.0,0.0,6.17505694988,-0.00817807108052,7.35646338113,0.0,0.0,0.0,0.0,0.0,0.0,0.0,0.0,0.0
23372000000,305,23372000000,imu_link,-0.0004527966368,-0.369060078698,-6.88286638373e-05,0.929405427437,0.0,0.0,0.0,0.0,0.0,0.0,0.0,0.0,0.0,0.00061935861799,-0.0117339005145,-0.000905530955007,0.0,0.0,0.0,0.0,0.0,0.0,0.0,0.0,0.0,6.17747877159,-0.0081862296767,7.35590029373,0.0,0.0,0.0,0.0,0.0,0.0,0.0,0.0,0.0
23376000000,306,23376000000,imu_link,-0.000449948872792,-0.369081368814,-6.99899298243e-05,0.929396974302,0.0,0.0,0.0,0.0,0.0,0.0,0.0,0.0,0.0,0.0011078941144,-0.0114530715823,-0.00107025241603,0.0,0.0,0.0,0.0,0.0,0.0,0.0,0.0,0.0,6.17850001314,-0.00808382074738,7.35023902035,0.0,0.0,0.0,0.0,0.0,0.0,0.0,0.0,0.0
23380000000,307,23380000000,imu_link,-0.000445698448114,-0.369101986672,-7.10542682336e-05,0.929388788258,0.0,0.0,0.0,0.0,0.0,0.0,0.0,0.0,0.0,0.00177763204983,-0.0110913572839,-0.00128389768918,0.0,0.0,0.0,0.0,0.0,0.0,0.0,0.0,0.0,6.17952740456,-0.00790480297033,7.34503678359,0.0,0.0,0.0,0.0,0.0,0.0,0.0,0.0,0.0
23384000000,308,23384000000,imu_link,-0.000440121040877,-0.369121843823,-7.20207678453e-05,0.92938090443,0.0,0.0,0.0,0.0,0.0,0.0,0.0,0.0,0.0,0.00241236997708,-0.0106820615007,-0.00148314823829,0.0,0.0,0.0,0.0,0.0,0.0,0.0,0.0,0.0,6.18075205978,-0.00767927538328,7.34094253287,0.0,0.0,0.0,0.0,0.0,0.0,0.0,0.0,0.0
23388000000,309,23388000000,imu_link,-0.000433726922408,-0.369140892965,-7.29336409002e-05,0.929373341399,0.0,0.0,0.0,0.0,0.0,0.0,0.0,0.0,0.0,0.00280182675318,-0.0102473633722,-0.00160877210431,0.0,0.0,0.0,0.0,0.0,0.0,0.0,0.0,0.0,6.18249641936,-0.00746336584749,7.33870959827,0.0,0.0,0.0,0.0,0.0,0.0,0.0,0.0,0.0
23392000000,310,23392000000,imu_link,-0.000427374391075,-0.369159392059,-7.38893513263e-05,0.929365996336,0.0,0.0,0.0,0.0,0.0,0.0,0.0,0.0,0.0,0.00277462246372,-0.00995152470563,-0.00162087506938,0.0,0.0,0.0,0.0,0.0,0.0,0.0,0.0,0.0,6.18656099904,-0.00726939422442,7.34404928887,0.0,0.0,0.0,0.0,0.0,0.0,0.0,0.0,0.0
23396000000,311,23396000000,imu_link,-0.000421592179855,-0.369177879012,-7.49563621532e-05,0.929358655358,0.0,0.0,0.0,0.0,0.0,0.0,0.0,0.0,0.0,0.00248906103346,-0.00994512682656,-0.001567322215,0.0,0.0,0.0,0.0,0.0,0.0,0.0,0.0,0.0,6.18928887841,-0.00722796273439,7.34825109393,0.0,0.0,0.0,0.0,0.0,0.0,0.0,0.0,0.0
23400000000,312,23400000000,imu_link,-0.000416391678321,-0.369196826526,-7.61203422629e-05,0.929351130686,0.0,0.0,0.0,0.0,0.0,0.0,0.0,0.0,0.0,0.00220083164977,-0.0101930489811,-0.00150510863112,0.0,0.0,0.0,0.0,0.0,0.0,0.0,0.0,0.0,6.19024033339,-0.00733683408316,7.34788029253,0.0,0.0,0.0,0.0,0.0,0.0,0.0,0.0,0.0
23404000000,313,23404000000,imu_link,-0.000411445655178,-0.369216436302,-7.73299406373e-05,0.92934334231,0.0,0.0,0.0,0.0,0.0,0.0,0.0,0.0,0.0,0.00207413100418,-0.0105494655166,-0.00147947793367,0.0,0.0,0.0,0.0,0.0,0.0,0.0,0.0,0.0,6.19173624737,-0.00748322802252,7.34658155181,0.0,0.0,0.0,0.0,0.0,0.0,0.0,0.0,0.0
23408000000,314,23408000000,imu_link,-0.000406606861672,-0.369236431419,-7.85413665478e-05,0.929335400281,0.0,0.0,0.0,0.0,0.0,0.0,0.0,0.0,0.0,0.0020239503404,-0.0107568920167,-0.0014606168802,0.0,0.0,0.0,0.0,0.0,0.0,0.0,0.0,0.0,6.19395541976,-0.00755441996625,7.3426896748,0.0,0.0,0.0,0.0,0.0,0.0,0.0,0.0,0.0
23412000000,315,23412000000,imu_link,-0.000402156230861,-0.369256470896,-7.97452028692e-05,0.929327439933,0.0,0.0,0.0,0.0,0.0,0.0,0.0,0.0,0.0,0.00184498286788,-0.0107809032796,-0.00138543807692,0.0,0.0,0.0,0.0,0.0,0.0,0.0,0.0,0.0,6.19673472418,-0.00753625721346,7.33980834273,0.0,0.0,0.0,0.0,0.0,0.0,0.0,0.0,0.0
23416000000,316,23416000000,imu_link,-0.000398410213064,-0.369276452532,-8.09448562908e-05,0.929319501744,0.0,0.0,0.0,0.0,0.0,0.0,0.0,0.0,0.0,0.00151834919433,-0.0107499646659,-0.00125339046364,0.0,0.0,0.0,0.0,0.0,0.0,0.0,0.0,0.0,6.19794269512,-0.00753680609223,7.33546178722,0.0,0.0,0.0,0.0,0.0,0.0,0.0,0.0,0.0
23420000000,317,23420000000,imu_link,-0.000395386133046,-0.36929668835,-8.21116876611e-05,0.929311461729,0.0,0.0,0.0,0.0,0.0,0.0,0.0,0.0,0.0,0.00118894397417,-0.0108869093693,-0.00110489682196,0.0,0.0,0.0,0.0,0.0,0.0,0.0,0.0,0.0,6.19903561704,-0.00759981772303,7.33425564732,0.0,0.0,0.0,0.0,0.0,0.0,0.0,0.0,0.0
23424000000,318,23424000000,imu_link,-0.000392876313655,-0.369317901603,-8.32168934672e-05,0.929303032535,0.0,0.0,0.0,0.0,0.0,0.0,0.0,0.0,0.0,0.000961332076037,-0.0114129748803,-0.00098151398716,0.0,0.0,0.0,0.0,0.0,0.0,0.0,0.0,0.0,6.2032465631,-0.00768023106054,7.34290579654,0.0,0.0,0.0,0.0,0.0,0.0,0.0,0.0,0.0
23428000000,319,23428000000,imu_link,-0.000390376524338,-0.369340563807,-8.41983367973e-05,0.929294026906,0.0,0.0,0.0,0.0,0.0,0.0,0.0,0.0,0.0,0.000979472491198,-0.0121927002204,-0.000922464035904,0.0,0.0,0.0,0.0,0.0,0.0,0.0,0.0,0.0,6.20538423086,-0.00780047864436,7.34513695167,0.0,0.0,0.0,0.0,0.0,0.0,0.0,0.0,0.0
23432000000,320,23432000000,imu_link,-0.000387515623325,-0.369364739994,-8.50231722035e-05,0.92928441903,0.0,0.0,0.0,0.0,0.0,0.0,0.0,0.0,0.0,0.00117612897795,-0.0130074012214,-0.000916704096793,0.0,0.0,0.0,0.0,0.0,0.0,0.0,0.0,0.0,6.20680600427,-0.00785999867994,7.34254347963,0.0,0.0,0.0,0.0,0.0,0.0,0.0,0.0,0.0
23436000000,321,23436000000,imu_link,-0.000384276537864,-0.369390237334,-8.56907332931e-05,0.929274285424,0.0,0.0,0.0,0.0,0.0,0.0,0.0,0.0,0.0,0.00138084952861,-0.0137183715415,-0.000913750143825,0.0,0.0,0.0,0.0,0.0,0.0,0.0,0.0,0.0,6.20693316054,-0.00785101214761,7.33505991848,0.0,0.0,0.0,0.0,0.0,0.0,0.0,0.0,0.0
23440000000,322,23440000000,imu_link,-0.000380884077445,-0.369416691445,-8.62327257287e-05,0.92926377072,0.0,0.0,0.0,0.0,0.0,0.0,0.0,0.0,0.0,0.0014752729182,-0.0142333276404,-0.000883934050126,0.0,0.0,0.0,0.0,0.0,0.0,0.0,0.0,0.0,6.20848711545,-0.00777067194435,7.32914121151,0.0,0.0,0.0,0.0,0.0,0.0,0.0,0.0,0.0
23444000000,323,23444000000,imu_link,-0.00037765208941,-0.369443778712,-8.66822190735e-05,0.92925300335,0.0,0.0,0.0,0.0,0.0,0.0,0.0,0.0,0.0,0.00141777686761,-0.0145742060989,-0.000811446908247,0.0,0.0,0.0,0.0,0.0,0.0,0.0,0.0,0.0,6.21079168746,-0.00770145381109,7.3257282494,0.0,0.0,0.0,0.0,0.0,0.0,0.0,0.0,0.0
23448000000,324,23448000000,imu_link,-0.000374770957635,-0.369471086826,-8.70487016973e-05,0.929242147112,0.0,0.0,0.0,0.0,0.0,0.0,0.0,0.0,0.0,0.00127008643843,-0.0146932641359,-0.000708112649115,0.0,0.0,0.0,0.0,0.0,0.0,0.0,0.0,0.0,6.21332519139,-0.00768539772828,7.3222005307,0.0,0.0,0.0,0.0,0.0,0.0,0.0,0.0,0.0
23452000000,325,23452000000,imu_link,-0.000372281752222,-0.369498410679,-8.73090239393e-05,0.929231283529,0.0,0.0,0.0,0.0,0.0,0.0,0.0,0.0,0.0,0.00110760009646,-0.0147019709307,-0.000586388838325,0.0,0.0,0.0,0.0,0.0,0.0,0.0,0.0,0.0,6.21507612712,-0.00773766655873,7.31856087931,0.0,0.0,0.0,0.0,0.0,0.0,0.0,0.0,0.0
23456000000,326,23456000000,imu_link,-0.00037031962498,-0.369525950264,-8.74733060572e-05,0.929220333018,0.0,0.0,0.0,0.0,0.0,0.0,0.0,0.0,0.0,0.000880447906762,-0.0148183036188,-0.000444433772102,0.0,0.0,0.0,0.0,0.0,0.0,0.0,0.0,0.0,6.21694734702,-0.00779646914364,7.31855887898,0.0,0.0,0.0,0.0,0.0,0.0,0.0,0.0,0.0
23460000000,327,23460000000,imu_link,-0.000369002551073,-0.369554037095,-8.75820984115e-05,0.929209163662,0.0,0.0,0.0,0.0,0.0,0.0,0.0,0.0,0.0,0.000590985436497,-0.0151130329159,-0.000299581590082,0.0,0.0,0.0,0.0,0.0,0.0,0.0,0.0,0.0,6.21853786198,-0.00789682361321,7.31871865391,0.0,0.0,0.0,0.0,0.0,0.0,0.0,0.0,0.0
23464000000,328,23464000000,imu_link,-0.000368329221115,-0.369582841754,-8.7660941794e-05,0.929197707557,0.0,0.0,0.0,0.0,0.0,0.0,0.0,0.0,0.0,0.000297411459053,-0.015499557687,-0.000166863070324,0.0,0.0,0.0,0.0,0.0,0.0,0.0,0.0,0.0,6.22115480251,-0.00797979360831,7.31996473864,0.0,0.0,0.0,0.0,0.0,0.0,0.0,0.0,0.0
23468000000,329,23468000000,imu_link,-0.000367911432015,-0.369612342945,-8.76751041608e-05,0.929185973257,0.0,0.0,0.0,0.0,0.0,0.0,0.0,0.0,0.0,0.000190619261476,-0.0158745963975,-8.97310560037e-05,0.0,0.0,0.0,0.0,0.0,0.0,0.0,0.0,0.0,6.22231470777,-0.00808082286295,7.31673178252,0.0,0.0,0.0,0.0,0.0,0.0,0.0,0.0,0.0
23472000000,330,23472000000,imu_link,-0.000367047022763,-0.369642533974,-8.75588885278e-05,0.92917396363,0.0,0.0,0.0,0.0,0.0,0.0,0.0,0.0,0.0,0.000422190103511,-0.0162459769871,-0.000111835481411,0.0,0.0,0.0,0.0,0.0,0.0,0.0,0.0,0.0,6.22628868727,-0.00816341177427,7.31972780056,0.0,0.0,0.0,0.0,0.0,0.0,0.0,0.0,0.0
23476000000,331,23476000000,imu_link,-0.000365214403729,-0.369673343707,-8.72885092519e-05,0.929161707106,0.0,0.0,0.0,0.0,0.0,0.0,0.0,0.0,0.0,0.000900482259416,-0.0165790366736,-0.000219283174406,0.0,0.0,0.0,0.0,0.0,0.0,0.0,0.0,0.0,6.22770961606,-0.00816285694305,7.31693711671,0.0,0.0,0.0,0.0,0.0,0.0,0.0,0.0,0.0
23480000000,332,23480000000,imu_link,-0.000362196860312,-0.36970466466,-8.68528511001e-05,0.929149246461,0.0,0.0,0.0,0.0,0.0,0.0,0.0,0.0,0.0,0.00148151007605,-0.0168542470174,-0.00036161751367,0.0,0.0,0.0,0.0,0.0,0.0,0.0,0.0,0.0,6.2281723561,-0.00809473477211,7.31187009282,0.0,0.0,0.0,0.0,0.0,0.0,0.0,0.0,0.0
23484000000,333,23484000000,imu_link,-0.000358076594002,-0.369736210649,-8.62729837052e-05,0.929136695472,0.0,0.0,0.0,0.0,0.0,0.0,0.0,0.0,0.0,0.00202045797561,-0.0169754715484,-0.000498507134749,0.0,0.0,0.0,0.0,0.0,0.0,0.0,0.0,0.0,6.22972241581,-0.00794138897535,7.3075056583,0.0,0.0,0.0,0.0,0.0,0.0,0.0,0.0,0.0
23488000000,334,23488000000,imu_link,-0.000353279708073,-0.369767590726,-8.56346257586e-05,0.929124209516,0.0,0.0,0.0,0.0,0.0,0.0,0.0,0.0,0.0,0.00234561155751,-0.0168863528577,-0.000596387152656,0.0,0.0,0.0,0.0,0.0,0.0,0.0,0.0,0.0,6.23233692138,-0.00773532881824,7.30472611391,0.0,0.0,0.0,0.0,0.0,0.0,0.0,0.0,0.0
23492000000,335,23492000000,imu_link,-0.000348369258366,-0.369798519557,-8.50217696186e-05,0.929111901949,0.0,0.0,0.0,0.0,0.0,0.0,0.0,0.0,0.0,0.00239366630463,-0.0166437305789,-0.000629143082121,0.0,0.0,0.0,0.0,0.0,0.0,0.0,0.0,0.0,6.23437553525,-0.00756742011149,7.30196699784,0.0,0.0,0.0,0.0,0.0,0.0,0.0,0.0,0.0
23496000000,336,23496000000,imu_link,-0.00034358935402,-0.369828971816,-8.44807909676e-05,0.929099782809,0.0,0.0,0.0,0.0,0.0,0.0,0.0,0.0,0.0,0.00231974314697,-0.0163874893087,-0.000638305434931,0.0,0.0,0.0,0.0,0.0,0.0,0.0,0.0,0.0,6.23429202437,-0.007513843646,7.29648677146,0.0,0.0,0.0,0.0,0.0,0.0,0.0,0.0,0.0
23500000000,337,23500000000,imu_link,-0.000338860844342,-0.369859015871,-8.39770204516e-05,0.929087824966,0.0,0.0,0.0,0.0,0.0,0.0,0.0,0.0,0.0,0.00228899790336,-0.0161680275843,-0.000646009910621,0.0,0.0,0.0,0.0,0.0,0.0,0.0,0.0,0.0,6.23537851056,-0.0075733708317,7.29378023559,0.0,0.0,0.0,0.0,0.0,0.0,0.0,0.0,0.0
23504000000,338,23504000000,imu_link,-0.000333951860903,-0.369888632313,-8.34267445823e-05,0.929076036286,0.0,0.0,0.0,0.0,0.0,0.0,0.0,0.0,0.0,0.00238144680945,-0.0159381000192,-0.000657701502427,0.0,0.0,0.0,0.0,0.0,0.0,0.0,0.0,0.0,6.23847868644,-0.00765333202441,7.29441736015,0.0,0.0,0.0,0.0,0.0,0.0,0.0,0.0,0.0
23508000000,339,23508000000,imu_link,-0.000328771274086,-0.369917636255,-8.27945458946e-05,0.929064490465,0.0,0.0,0.0,0.0,0.0,0.0,0.0,0.0,0.0,0.00252278306582,-0.0156086570492,-0.000669764336255,0.0,0.0,0.0,0.0,0.0,0.0,0.0,0.0,0.0,6.2408219774,-0.00763816283686,7.29238193453,0.0,0.0,0.0,0.0,0.0,0.0,0.0,0.0,0.0
23512000000,340,23512000000,imu_link,-0.00032332039689,-0.369945874784,-8.20727996767e-05,0.929053248451,0.0,0.0,0.0,0.0,0.0,0.0,0.0,0.0,0.0,0.00266492252401,-0.0151969100687,-0.000678020810689,0.0,0.0,0.0,0.0,0.0,0.0,0.0,0.0,0.0,6.24175374695,-0.00757057158763,7.28805945988,0.0,0.0,0.0,0.0,0.0,0.0,0.0,0.0,0.0
23516000000,341,23516000000,imu_link,-0.000317591564359,-0.369973341716,-8.12724022778e-05,0.929042312788,0.0,0.0,0.0,0.0,0.0,0.0,0.0,0.0,0.0,0.00280860637784,-0.0147818169316,-0.000692762149378,0.0,0.0,0.0,0.0,0.0,0.0,0.0,0.0,0.0,6.24233787145,-0.00749522045511,7.28413472073,0.0,0.0,0.0,0.0,0.0,0.0,0.0,0.0,0.0
23520000000,342,23520000000,imu_link,-0.000311700512799,-0.370000412989,-8.0451489186e-05,0.92903153378,0.0,0.0,0.0,0.0,0.0,0.0,0.0,0.0,0.0,0.00288776447679,-0.0145690431747,-0.000713171339529,0.0,0.0,0.0,0.0,0.0,0.0,0.0,0.0,0.0,6.24399238679,-0.00743109902911,7.285562136,0.0,0.0,0.0,0.0,0.0,0.0,0.0,0.0,0.0
23524000000,343,23524000000,imu_link,-0.000305714343359,-0.370027620508,-7.96495149805e-05,0.929020699584,0.0,0.0,0.0,0.0,0.0,0.0,0.0,0.0,0.0,0.00292844141396,-0.01464253397,-0.000739589032224,0.0,0.0,0.0,0.0,0.0,0.0,0.0,0.0,0.0,6.24627810463,-0.00745436823821,7.28980854122,0.0,0.0,0.0,0.0,0.0,0.0,0.0,0.0,0.0
23528000000,344,23528000000,imu_link,-0.000299737674843,-0.370055227778,-7.88659714944e-05,0.929009705187,0.0,0.0,0.0,0.0,0.0,0.0,0.0,0.0,0.0,0.00292060963034,-0.0148578598896,-0.000746459974691,0.0,0.0,0.0,0.0,0.0,0.0,0.0,0.0,0.0,6.24794550601,-0.00753994585623,7.29063945814,0.0,0.0,0.0,0.0,0.0,0.0,0.0,0.0,0.0
23532000000,345,23532000000,imu_link,-0.000294123989761,-0.370083052928,-7.81303205367e-05,0.928998622885,0.0,0.0,0.0,0.0,0.0,0.0,0.0,0.0,0.0,0.0027431360412,-0.014975338106,-0.000701580447673,0.0,0.0,0.0,0.0,0.0,0.0,0.0,0.0,0.0,6.24978330673,-0.00754351385289,7.28812794184,0.0,0.0,0.0,0.0,0.0,0.0,0.0,0.0,0.0
23536000000,346,23536000000,imu_link,-0.00028918240227,-0.370110987163,-7.74745265132e-05,0.928987495908,0.0,0.0,0.0,0.0,0.0,0.0,0.0,0.0,0.0,0.00241616801492,-0.0150342887983,-0.000614325761692,0.0,0.0,0.0,0.0,0.0,0.0,0.0,0.0,0.0,6.25096960586,-0.00757995604997,7.28503793984,0.0,0.0,0.0,0.0,0.0,0.0,0.0,0.0,0.0
23540000000,347,23540000000,imu_link,-0.000284987899252,-0.370139128044,-7.69205918366e-05,0.928976285357,0.0,0.0,0.0,0.0,0.0,0.0,0.0,0.0,0.0,0.00205029823769,-0.0151457547901,-0.000523419822427,0.0,0.0,0.0,0.0,0.0,0.0,0.0,0.0,0.0,6.25262777137,-0.00767463240371,7.28431689964,0.0,0.0,0.0,0.0,0.0,0.0,0.0,0.0,0.0
23544000000,348,23544000000,imu_link,-0.000281478801355,-0.370167865443,-7.64701268716e-05,0.928964835887,0.0,0.0,0.0,0.0,0.0,0.0,0.0,0.0,0.0,0.00171277548888,-0.015467058971,-0.000444726838782,0.0,0.0,0.0,0.0,0.0,0.0,0.0,0.0,0.0,6.25434053231,-0.00780618661663,7.28556294154,0.0,0.0,0.0,0.0,0.0,0.0,0.0,0.0,0.0
23548000000,349,23548000000,imu_link,-0.000278685155796,-0.370197530017,-7.61274105334e-05,0.928953015663,0.0,0.0,0.0,0.0,0.0,0.0,0.0,0.0,0.0,0.00136050118773,-0.0159663482049,-0.000362500114768,0.0,0.0,0.0,0.0,0.0,0.0,0.0,0.0,0.0,6.25591184724,-0.00791890125808,7.28616664017,0.0,0.0,0.0,0.0,0.0,0.0,0.0,0.0,0.0
23552000000,350,23552000000,imu_link,-0.000276559506308,-0.370228094744,-7.58854855881e-05,0.92894083537,0.0,0.0,0.0,0.0,0.0,0.0,0.0,0.0,0.0,0.00103156043397,-0.0164511074153,-0.000285809236439,0.0,0.0,0.0,0.0,0.0,0.0,0.0,0.0,0.0,6.25700174951,-0.00805343130424,7.2827053626,0.0,0.0,0.0,0.0,0.0,0.0,0.0,0.0,0.0
23556000000,351,23556000000,imu_link,-0.000274995114983,-0.37025921992,-7.5724488883e-05,0.928928430348,0.0,0.0,0.0,0.0,0.0,0.0,0.0,0.0,0.0,0.000755881855358,-0.0167530303341,-0.000219587265369,0.0,0.0,0.0,0.0,0.0,0.0,0.0,0.0,0.0,6.25829581923,-0.00814954408906,7.27721337445,0.0,0.0,0.0,0.0,0.0,0.0,0.0,0.0,0.0
23560000000,352,23560000000,imu_link,-0.00027383913678,-0.37029049612,-7.56092444787e-05,0.928915963787,0.0,0.0,0.0,0.0,0.0,0.0,0.0,0.0,0.0,0.00055771572623,-0.0168345772555,-0.000165251305189,0.0,0.0,0.0,0.0,0.0,0.0,0.0,0.0,0.0,6.25999382637,-0.00818522365475,7.27216286004,0.0,0.0,0.0,0.0,0.0,0.0,0.0,0.0,0.0
23564000000,353,23564000000,imu_link,-0.000273126550052,-0.370321723899,-7.55372495024e-05,0.928903515175,0.0,0.0,0.0,0.0,0.0,0.0,0.0,0.0,0.0,0.000343772217355,-0.0168087754035,-0.000103239714224,0.0,0.0,0.0,0.0,0.0,0.0,0.0,0.0,0.0,6.26172092944,-0.00815493944894,7.26911279915,0.0,0.0,0.0,0.0,0.0,0.0,0.0,0.0,0.0
23568000000,354,23568000000,imu_link,-0.000273058911578,-0.370352892941,-7.55104411399e-05,0.928891088571,0.0,0.0,0.0,0.0,0.0,0.0,0.0,0.0,0.0,3.58588615166e-05,-0.0167774385205,-4.79868929738e-06,0.0,0.0,0.0,0.0,0.0,0.0,0.0,0.0,0.0,6.26382159048,-0.00816482272341,7.26880230288,0.0,0.0,0.0,0.0,0.0,0.0,0.0,0.0,0.0
23572000000,355,23572000000,imu_link,-0.000273881954766,-0.370384081194,-7.54985651734e-05,0.928878652832,0.0,0.0,0.0,0.0,0.0,0.0,0.0,0.0,0.0,-0.000380579917646,-0.0167880837327,0.000153196323383,0.0,0.0,0.0,0.0,0.0,0.0,0.0,0.0,0.0,6.26694374153,-0.0082699604763,7.27152843405,0.0,0.0,0.0,0.0,0.0,0.0,0.0,0.0,0.0
23576000000,356,23576000000,imu_link,-0.000275724354641,-0.37041497501,-7.54965894635e-05,0.928866332991,0.0,0.0,0.0,0.0,0.0,0.0,0.0,0.0,0.0,-0.00085583794338,-0.0166299091484,0.000337419695592,0.0,0.0,0.0,0.0,0.0,0.0,0.0,0.0,0.0,6.26801788993,-0.00838597182269,7.26638960492,0.0,0.0,0.0,0.0,0.0,0.0,0.0,0.0,0.0
23580000000,357,23580000000,imu_link,-0.000278517982592,-0.37044497475,-7.5495520333e-05,0.928854368246,0.0,0.0,0.0,0.0,0.0,0.0,0.0,0.0,0.0,-0.00129777251138,-0.0161489403389,0.000513309875401,0.0,0.0,0.0,0.0,0.0,0.0,0.0,0.0,0.0,6.27063206838,-0.00855094752613,7.26229159879,0.0,0.0,0.0,0.0,0.0,0.0,0.0,0.0,0.0
23584000000,358,23584000000,imu_link,-0.000282020794501,-0.370473419859,-7.54821683716e-05,0.92884302223,0.0,0.0,0.0,0.0,0.0,0.0,0.0,0.0,0.0,-0.00162483428456,-0.0153123534355,0.000650611024912,0.0,0.0,0.0,0.0,0.0,0.0,0.0,0.0,0.0,6.27289673288,-0.00872431241535,7.25726613133,0.0,0.0,0.0,0.0,0.0,0.0,0.0,0.0,0.0
23588000000,359,23588000000,imu_link,-0.000286137896583,-0.370500092028,-7.54704078481e-05,0.928832382207,0.0,0.0,0.0,0.0,0.0,0.0,0.0,0.0,0.0,-0.00191038600752,-0.0143582086007,0.000763937665408,0.0,0.0,0.0,0.0,0.0,0.0,0.0,0.0,0.0,6.2742636488,-0.00881992081861,7.2542010179,0.0,0.0,0.0,0.0,0.0,0.0,0.0,0.0,0.0
23592000000,360,23592000000,imu_link,-0.00029093747956,-0.370525351155,-7.55352275444e-05,0.92882230475,0.0,0.0,0.0,0.0,0.0,0.0,0.0,0.0,0.0,-0.00224150051073,-0.0135977691393,0.00085502557955,0.0,0.0,0.0,0.0,0.0,0.0,0.0,0.0,0.0,6.2758791668,-0.00890070732751,7.25599678122,0.0,0.0,0.0,0.0,0.0,0.0,0.0,0.0,0.0
23596000000,361,23596000000,imu_link,-0.000296492015262,-0.370549936598,-7.57646047691e-05,0.928812494984,0.0,0.0,0.0,0.0,0.0,0.0,0.0,0.0,0.0,-0.00262258184643,-0.0132353138003,0.000918575900003,0.0,0.0,0.0,0.0,0.0,0.0,0.0,0.0,0.0,6.27790097316,-0.00896840469881,7.26130960479,0.0,0.0,0.0,0.0,0.0,0.0,0.0,0.0,0.0
23600000000,362,23600000000,imu_link,-0.000302805955905,-0.370574482608,-7.62464891699e-05,0.928802699896,0.0,0.0,0.0,0.0,0.0,0.0,0.0,0.0,0.0,-0.00302203682225,-0.0132142727565,0.000942015117979,0.0,0.0,0.0,0.0,0.0,0.0,0.0,0.0,0.0,6.28087129564,-0.00897394474742,7.26801912949,0.0,0.0,0.0,0.0,0.0,0.0,0.0,0.0,0.0
23604000000,363,23604000000,imu_link,-0.000309800319258,-0.370599287075,-7.7010093715e-05,0.928792800636,0.0,0.0,0.0,0.0,0.0,0.0,0.0,0.0,0.0,-0.00339023111515,-0.0133535857325,0.000937214447114,0.0,0.0,0.0,0.0,0.0,0.0,0.0,0.0,0.0,6.28332947879,-0.00893911032109,7.27076550408,0.0,0.0,0.0,0.0,0.0,0.0,0.0,0.0,0.0
23608000000,364,23608000000,imu_link,-0.000317354512112,-0.370624128884,-7.80676511655e-05,0.928782885437,0.0,0.0,0.0,0.0,0.0,0.0,0.0,0.0,0.0,-0.00370468431913,-0.0133738565278,0.000904433584727,0.0,0.0,0.0,0.0,0.0,0.0,0.0,0.0,0.0,6.28455158911,-0.00891447723448,7.2666481945,0.0,0.0,0.0,0.0,0.0,0.0,0.0,0.0,0.0
23612000000,365,23612000000,imu_link,-0.00032513645896,-0.370648606906,-7.94162826096e-05,0.928773114478,0.0,0.0,0.0,0.0,0.0,0.0,0.0,0.0,0.0,-0.00386438216068,-0.0131781501281,0.000811530230919,0.0,0.0,0.0,0.0,0.0,0.0,0.0,0.0,0.0,6.28630551161,-0.008932874675,7.26238951142,0.0,0.0,0.0,0.0,0.0,0.0,0.0,0.0,0.0
23616000000,366,23616000000,imu_link,-0.000332684528456,-0.37067229962,-8.09875822951e-05,0.928763656189,0.0,0.0,0.0,0.0,0.0,0.0,0.0,0.0,0.0,-0.00379701885203,-0.0127554728734,0.000664923017121,0.0,0.0,0.0,0.0,0.0,0.0,0.0,0.0,0.0,6.28738601212,-0.00897653778754,7.25693318928,0.0,0.0,0.0,0.0,0.0,0.0,0.0,0.0,0.0
23620000000,367,23620000000,imu_link,-0.000339698946209,-0.370695107621,-8.26952888087e-05,0.928754550434,0.0,0.0,0.0,0.0,0.0,0.0,0.0,0.0,0.0,-0.00357445897985,-0.0122792467629,0.000502834645907,0.0,0.0,0.0,0.0,0.0,0.0,0.0,0.0,0.0,6.28855574692,-0.00896058746659,7.2538520207,0.0,0.0,0.0,0.0,0.0,0.0,0.0,0.0,0.0
23624000000,368,23624000000,imu_link,-0.000345883340144,-0.370717145642,-8.44407345821e-05,0.928745751625,0.0,0.0,0.0,0.0,0.0,0.0,0.0,0.0,0.0,-0.00319598936279,-0.0118647534213,0.000331609979122,0.0,0.0,0.0,0.0,0.0,0.0,0.0,0.0,0.0,6.2893172557,-0.0088728678415,7.251601795,0.0,0.0,0.0,0.0,0.0,0.0,0.0,0.0,0.0
23628000000,369,23628000000,imu_link,-0.000350958102832,-0.370738391461,-8.61936903969e-05,0.92873726882,0.0,0.0,0.0,0.0,0.0,0.0,0.0,0.0,0.0,-0.00268207755607,-0.0114382537647,0.000122593201747,0.0,0.0,0.0,0.0,0.0,0.0,0.0,0.0,0.0,6.29042021852,-0.00874373723018,7.24931859897,0.0,0.0,0.0,0.0,0.0,0.0,0.0,0.0,0.0
23632000000,370,23632000000,imu_link,-0.000354950211163,-0.370758970511,-8.79575005321e-05,0.928729052016,0.0,0.0,0.0,0.0,0.0,0.0,0.0,0.0,0.0,-0.00218132094594,-0.0110792701459,-8.30095036451e-05,0.0,0.0,0.0,0.0,0.0,0.0,0.0,0.0,0.0,6.29080277626,-0.00851335937176,7.24676592803,0.0,0.0,0.0,0.0,0.0,0.0,0.0,0.0,0.0
23636000000,371,23636000000,imu_link,-0.000358081683015,-0.370779229683,-8.97918014103e-05,0.928720962696,0.0,0.0,0.0,0.0,0.0,0.0,0.0,0.0,0.0,-0.0017947308751,-0.0109070466985,-0.000275224874732,0.0,0.0,0.0,0.0,0.0,0.0,0.0,0.0,0.0,6.29238143916,-0.0082750668147,7.24786627588,0.0,0.0,0.0,0.0,0.0,0.0,0.0,0.0,0.0
23640000000,372,23640000000,imu_link,-0.000360614345012,-0.370799627169,-9.17121959499e-05,0.928712817849,0.0,0.0,0.0,0.0,0.0,0.0,0.0,0.0,0.0,-0.00153263184515,-0.0109815266939,-0.000426243754174,0.0,0.0,0.0,0.0,0.0,0.0,0.0,0.0,0.0,6.29401900109,-0.00807807016689,7.24984552696,0.0,0.0,0.0,0.0,0.0,0.0,0.0,0.0,0.0
23644000000,373,23644000000,imu_link,-0.000362660680124,-0.370820627853,-9.36915433017e-05,0.928704431807,0.0,0.0,0.0,0.0,0.0,0.0,0.0,0.0,0.0,-0.00131774850842,-0.0113063095024,-0.000543903605244,0.0,0.0,0.0,0.0,0.0,0.0,0.0,0.0,0.0,6.29591898748,-0.00789340737901,7.25239136334,0.0,0.0,0.0,0.0,0.0,0.0,0.0,0.0,0.0
23648000000,374,23648000000,imu_link,-0.000364229078315,-0.370842468221,-9.56814177724e-05,0.928695710093,0.0,0.0,0.0,0.0,0.0,0.0,0.0,0.0,0.0,-0.00109779080846,-0.0117584316922,-0.000637574315817,0.0,0.0,0.0,0.0,0.0,0.0,0.0,0.0,0.0,6.2968408287,-0.00772085244592,7.25123137978,0.0,0.0,0.0,0.0,0.0,0.0,0.0,0.0,0.0
23652000000,375,23652000000,imu_link,-0.000365269525107,-0.370865326375,-9.76449776033e-05,0.928686581542,0.0,0.0,0.0,0.0,0.0,0.0,0.0,0.0,0.0,-0.000847783815386,-0.0123064541995,-0.000723453386209,0.0,0.0,0.0,0.0,0.0,0.0,0.0,0.0,0.0,6.29822222395,-0.00753777676524,7.25071759052,0.0,0.0,0.0,0.0,0.0,0.0,0.0,0.0,0.0
23656000000,376,23656000000,imu_link,-0.000365894733822,-0.370889495796,-9.95874484455e-05,0.928676928814,0.0,0.0,0.0,0.0,0.0,0.0,0.0,0.0,0.0,-0.000651091925907,-0.0130125151355,-0.000790924633004,0.0,0.0,0.0,0.0,0.0,0.0,0.0,0.0,0.0,6.29943223595,-0.00733360789971,7.25065309047,0.0,0.0,0.0,0.0,0.0,0.0,0.0,0.0,0.0
23660000000,377,23660000000,imu_link,-0.000366288439396,-0.370915099391,-0.000101544017872,0.928666702625,0.0,0.0,0.0,0.0,0.0,0.0,0.0,0.0,0.0,-0.000546244122027,-0.0137847889393,-0.000840693123022,0.0,0.0,0.0,0.0,0.0,0.0,0.0,0.0,0.0,6.30000266783,-0.00718339779077,7.24812009928,0.0,0.0,0.0,0.0,0.0,0.0,0.0,0.0,0.0
23664000000,378,23664000000,imu_link,-0.000366374815481,-0.370942191249,-0.00010353344867,0.928655881262,0.0,0.0,0.0,0.0,0.0,0.0,0.0,0.0,0.0,-0.000409668620543,-0.0145861966764,-0.000913251112263,0.0,0.0,0.0,0.0,0.0,0.0,0.0,0.0,0.0,6.30076440776,-0.00715380808654,7.24530767485,0.0,0.0,0.0,0.0,0.0,0.0,0.0,0.0,0.0
23668000000,379,23668000000,imu_link,-0.000365789470833,-0.370970540415,-0.000105559166938,0.928644556975,0.0,0.0,0.0,0.0,0.0,0.0,0.0,0.0,0.0,-0.000104527234959,-0.0152632362798,-0.00105494153684,0.0,0.0,0.0,0.0,0.0,0.0,0.0,0.0,0.0,6.30314977017,-0.00714230354084,7.24357236367,0.0,0.0,0.0,0.0,0.0,0.0,0.0,0.0,0.0
23672000000,380,23672000000,imu_link,-0.000364077480703,-0.370999690618,-0.000107622000143,0.928632912095,0.0,0.0,0.0,0.0,0.0,0.0,0.0,0.0,0.0,0.000411698732287,-0.0156945750269,-0.00128131439711,0.0,0.0,0.0,0.0,0.0,0.0,0.0,0.0,0.0,6.30630778433,-0.00710082298059,7.24187696504,0.0,0.0,0.0,0.0,0.0,0.0,0.0,0.0,0.0
