%time,field.header.seq,field.header.stamp,field.header.frame_id,field.orientation.x,field.orientation.y,field.orientation.z,field.orientation.w,field.orientation_covariance0,field.orientation_covariance1,field.orientation_covariance2,field.orientation_covariance3,field.orientation_covariance4,field.orientation_covariance5,field.orientation_covariance6,field.orientation_covariance7,field.orientation_covariance8,field.angular_velocity.x,field.angular_velocity.y,field.angular_velocity.z,field.angular_velocity_covariance0,field.angular_velocity_covariance1,field.angular_velocity_covariance2,field.angular_velocity_covariance3,field.angular_velocity_covariance4,field.angular_velocity_covariance5,field.angular_velocity_covariance6,field.angular_velocity_covariance7,field.angular_velocity_covariance8,field.linear_acceleration.x,field.linear_acceleration.y,field.linear_acceleration.z,field.linear_acceleration_covariance0,field.linear_acceleration_covariance1,field.linear_acceleration_covariance2,field.linear_acceleration_covariance3,field.linear_acceleration_covariance4,field.linear_acceleration_covariance5,field.linear_acceleration_covariance6,field.linear_acceleration_covariance7,field.linear_acceleration_covariance8
27728000000,0,27728000000,imu_link,-0.00103372960531,-0.309268216783,0.00034146944825,0.950974229351,0.0,0.0,0.0,0.0,0.0,0.0,0.0,0.0,0.0,0.002490658388,-0.201256382345,0.00147001280378,0.0,0.0,0.0,0.0,0.0,0.0,0.0,0.0,0.0,4.3519383886,-0.020919435676,8.97440648241,0.0,0.0,0.0,0.0,0.0,0.0,0.0,0.0,0.0
27732000000,1,27732000000,imu_link,-0.00103018425691,-0.309651160744,0.000346106560256,0.950849608288,0.0,0.0,0.0,0.0,0.0,0.0,0.0,0.0,0.0,0.00227302927152,-0.201358604046,0.0014800022283,0.0,0.0,0.0,0.0,0.0,0.0,0.0,0.0,0.0,4.35776138486,-0.020774401951,8.96796732527,0.0,0.0,0.0,0.0,0.0,0.0,0.0,0.0,0.0
27736000000,2,27736000000,imu_link,-0.00102695356075,-0.310034379778,0.000350639914083,0.950724726603,0.0,0.0,0.0,0.0,0.0,0.0,0.0,0.0,0.0,0.00210718951424,-0.20152962413,0.00147929264471,0.0,0.0,0.0,0.0,0.0,0.0,0.0,0.0,0.0,4.36257674346,-0.0203579833486,8.96167363258,0.0,0.0,0.0,0.0,0.0,0.0,0.0,0.0,0.0
27740000000,3,27740000000,imu_link,-0.001023830058,-0.310418054838,0.000355108338024,0.950599524985,0.0,0.0,0.0,0.0,0.0,0.0,0.0,0.0,0.0,0.00204592432069,-0.201795944822,0.00146486617252,0.0,0.0,0.0,0.0,0.0,0.0,0.0,0.0,0.0,4.3670188199,-0.020284565992,8.95648568165,0.0,0.0,0.0,0.0,0.0,0.0,0.0,0.0,0.0
27744000000,4,27744000000,imu_link,-0.0010201919147,-0.310802856507,0.000359708822406,0.95047378407,0.0,0.0,0.0,0.0,0.0,0.0,0.0,0.0,0.0,0.00231055373696,-0.202415284584,0.00144727663582,0.0,0.0,0.0,0.0,0.0,0.0,0.0,0.0,0.0,4.37253706073,-0.0205654940666,8.96086014238,0.0,0.0,0.0,0.0,0.0,0.0,0.0,0.0,0.0
27748000000,5,27748000000,imu_link,-0.00101540019853,-0.311189076029,0.000364645691333,0.950347407507,0.0,0.0,0.0,0.0,0.0,0.0,0.0,0.0,0.0,0.00291046956392,-0.203188260524,0.0014272631922,0.0,0.0,0.0,0.0,0.0,0.0,0.0,0.0,0.0,4.3787019794,-0.0209847718665,8.96081763198,0.0,0.0,0.0,0.0,0.0,0.0,0.0,0.0,0.0
27752000000,6,27752000000,imu_link,-0.00100891782749,-0.311576834844,0.000370046899575,0.950220353991,0.0,0.0,0.0,0.0,0.0,0.0,0.0,0.0,0.0,0.00378544869873,-0.204025566759,0.0013841902829,0.0,0.0,0.0,0.0,0.0,0.0,0.0,0.0,0.0,4.38468120369,-0.0213443842457,8.96029126275,0.0,0.0,0.0,0.0,0.0,0.0,0.0,0.0,0.0
27756000000,7,27756000000,imu_link,-0.0010010894287,-0.311965800719,0.00037580167509,0.950092730093,0.0,0.0,0.0,0.0,0.0,0.0,0.0,0.0,0.0,0.0044795308632,-0.204688339078,0.0013419747779,0.0,0.0,0.0,0.0,0.0,0.0,0.0,0.0,0.0,4.38997543841,-0.0212765999801,8.95201731369,0.0,0.0,0.0,0.0,0.0,0.0,0.0,0.0,0.0
27760000000,8,27760000000,imu_link,-0.000992758003219,-0.312355353731,0.000381707982417,0.949964737096,0.0,0.0,0.0,0.0,0.0,0.0,0.0,0.0,0.0,0.00474183317951,-0.205025000576,0.00133527131835,0.0,0.0,0.0,0.0,0.0,0.0,0.0,0.0,0.0,4.39584941268,-0.0210391411157,8.94798467244,0.0,0.0,0.0,0.0,0.0,0.0,0.0,0.0,0.0
27764000000,9,27764000000,imu_link,-0.000984392895704,-0.312745155811,0.000387617138057,0.949836485002,0.0,0.0,0.0,0.0,0.0,0.0,0.0,0.0,0.0,0.00475810025226,-0.205183776316,0.00133128965299,0.0,0.0,0.0,0.0,0.0,0.0,0.0,0.0,0.0,4.40302656768,-0.0210708920932,8.94327785421,0.0,0.0,0.0,0.0,0.0,0.0,0.0,0.0,0.0
27768000000,10,27768000000,imu_link,-0.000975852337029,-0.313134776302,0.000393507682534,0.949708115546,0.0,0.0,0.0,0.0,0.0,0.0,0.0,0.0,0.0,0.00483849236856,-0.205115913286,0.00129512724133,0.0,0.0,0.0,0.0,0.0,0.0,0.0,0.0,0.0,4.41116348594,-0.0213090619295,8.94016293178,0.0,0.0,0.0,0.0,0.0,0.0,0.0,0.0,0.0
27772000000,11,27772000000,imu_link,-0.000966779489877,-0.313523937324,0.000399388482494,0.949579721009,0.0,0.0,0.0,0.0,0.0,0.0,0.0,0.0,0.0,0.00508980422278,-0.204901759717,0.00120739011563,0.0,0.0,0.0,0.0,0.0,0.0,0.0,0.0,0.0,4.41824733793,-0.0213323418288,8.93349655374,0.0,0.0,0.0,0.0,0.0,0.0,0.0,0.0,0.0
27776000000,12,27776000000,imu_link,-0.000957133610021,-0.313912068236,0.000405248813808,0.949451490643,0.0,0.0,0.0,0.0,0.0,0.0,0.0,0.0,0.0,0.00535895072152,-0.20438704219,0.00110830722721,0.0,0.0,0.0,0.0,0.0,0.0,0.0,0.0,0.0,4.42469719948,-0.0209814284543,8.92529730147,0.0,0.0,0.0,0.0,0.0,0.0,0.0,0.0,0.0
27780000000,13,27780000000,imu_link,-0.000946928643017,-0.314298671077,0.000411125329542,0.949323590595,0.0,0.0,0.0,0.0,0.0,0.0,0.0,0.0,0.0,0.00562737174921,-0.20360990316,0.00102890263263,0.0,0.0,0.0,0.0,0.0,0.0,0.0,0.0,0.0,4.43133568272,-0.0206736374472,8.91911669658,0.0,0.0,0.0,0.0,0.0,0.0,0.0,0.0,0.0
27784000000,14,27784000000,imu_link,-0.000936322018575,-0.314684146485,0.000417068258443,0.949195889849,0.0,0.0,0.0,0.0,0.0,0.0,0.0,0.0,0.0,0.00582878610933,-0.203043547057,0.000997799054244,0.0,0.0,0.0,0.0,0.0,0.0,0.0,0.0,0.0,4.43782580235,-0.0202970087458,8.91874154978,0.0,0.0,0.0,0.0,0.0,0.0,0.0,0.0,0.0
27788000000,15,27788000000,imu_link,-0.000925493667155,-0.315068629335,0.000423107044067,0.949068344879,0.0,0.0,0.0,0.0,0.0,0.0,0.0,0.0,0.0,0.00594937949099,-0.202548062432,0.00100883766762,0.0,0.0,0.0,0.0,0.0,0.0,0.0,0.0,0.0,4.44439099684,-0.0203258500144,8.91934954316,0.0,0.0,0.0,0.0,0.0,0.0,0.0,0.0,0.0
27792000000,16,27792000000,imu_link,-0.000914608277311,-0.315452382975,0.00042924234893,0.948940869242,0.0,0.0,0.0,0.0,0.0,0.0,0.0,0.0,0.0,0.005991837617,-0.202191161732,0.00104597661028,0.0,0.0,0.0,0.0,0.0,0.0,0.0,0.0,0.0,4.44990214086,-0.0205586880393,8.91847300928,0.0,0.0,0.0,0.0,0.0,0.0,0.0,0.0,0.0
27796000000,17,27796000000,imu_link,-0.000904161469237,-0.315835201717,0.000435354842055,0.948813531899,0.0,0.0,0.0,0.0,0.0,0.0,0.0,0.0,0.0,0.00578040939774,-0.201725662669,0.00110472680417,0.0,0.0,0.0,0.0,0.0,0.0,0.0,0.0,0.0,4.45652320672,-0.0206553377614,8.91442667794,0.0,0.0,0.0,0.0,0.0,0.0,0.0,0.0,0.0
27800000000,18,27800000000,imu_link,-0.000894636194507,-0.3162171546,0.000441329760111,0.948686310637,0.0,0.0,0.0,0.0,0.0,0.0,0.0,0.0,0.0,0.00532174313547,-0.201296299561,0.00118535277101,0.0,0.0,0.0,0.0,0.0,0.0,0.0,0.0,0.0,4.46180848513,-0.0208218104664,8.91027765451,0.0,0.0,0.0,0.0,0.0,0.0,0.0,0.0,0.0
27804000000,19,27804000000,imu_link,-0.000886524322803,-0.316599011071,0.000447095643961,0.948558949338,0.0,0.0,0.0,0.0,0.0,0.0,0.0,0.0,0.0,0.00461821356026,-0.201272302377,0.00130974400647,0.0,0.0,0.0,0.0,0.0,0.0,0.0,0.0,0.0,4.46788143865,-0.0210994828231,8.91607835854,0.0,0.0,0.0,0.0,0.0,0.0,0.0,0.0,0.0
27808000000,20,27808000000,imu_link,-0.000880143424351,-0.316981225979,0.000452623806962,0.948431295802,0.0,0.0,0.0,0.0,0.0,0.0,0.0,0.0,0.0,0.00375940764771,-0.20148807078,0.00147091655722,0.0,0.0,0.0,0.0,0.0,0.0,0.0,0.0,0.0,4.47321910216,-0.0214317829628,8.91983512819,0.0,0.0,0.0,0.0,0.0,0.0,0.0,0.0,0.0
27812000000,21,27812000000,imu_link,-0.000875558122343,-0.317364123652,0.000457832629409,0.948303240955,0.0,0.0,0.0,0.0,0.0,0.0,0.0,0.0,0.0,0.002856964041,-0.201874905955,0.00160385581773,0.0,0.0,0.0,0.0,0.0,0.0,0.0,0.0,0.0,4.48009334063,-0.0219544503941,8.91705053363,0.0,0.0,0.0,0.0,0.0,0.0,0.0,0.0,0.0
27816000000,22,27816000000,imu_link,-0.000872697865152,-0.317747970352,0.000462692332368,0.94817469469,0.0,0.0,0.0,0.0,0.0,0.0,0.0,0.0,0.0,0.00198319979514,-0.202402319818,0.00171175095406,0.0,0.0,0.0,0.0,0.0,0.0,0.0,0.0,0.0,4.48602666722,-0.0225055557286,8.91187454878,0.0,0.0,0.0,0.0,0.0,0.0,0.0,0.0,0.0
27820000000,23,27820000000,imu_link,-0.000871288944746,-0.318132911648,0.000467208807868,0.948045607077,0.0,0.0,0.0,0.0,0.0,0.0,0.0,0.0,0.0,0.00124011996662,-0.203006774987,0.00177925843703,0.0,0.0,0.0,0.0,0.0,0.0,0.0,0.0,0.0,4.49243679749,-0.0227583547076,8.9087659598,0.0,0.0,0.0,0.0,0.0,0.0,0.0,0.0,0.0
27824000000,24,27824000000,imu_link,-0.000870875062154,-0.318519773051,0.000471444923879,0.94791569957,0.0,0.0,0.0,0.0,0.0,0.0,0.0,0.0,0.0,0.000723047792617,-0.204047012411,0.00180399383504,0.0,0.0,0.0,0.0,0.0,0.0,0.0,0.0,0.0,4.50045473235,-0.022659623335,8.91429920504,0.0,0.0,0.0,0.0,0.0,0.0,0.0,0.0,0.0
27828000000,25,27828000000,imu_link,-0.00087089657753,-0.318908947857,0.000475505570838,0.947784837614,0.0,0.0,0.0,0.0,0.0,0.0,0.0,0.0,0.0,0.00048778138269,-0.205295294911,0.00178938797461,0.0,0.0,0.0,0.0,0.0,0.0,0.0,0.0,0.0,4.50880001461,-0.0226038386574,8.91750858782,0.0,0.0,0.0,0.0,0.0,0.0,0.0,0.0,0.0
27832000000,26,27832000000,imu_link,-0.000871046866712,-0.319300698109,0.000479465421705,0.947652929915,0.0,0.0,0.0,0.0,0.0,0.0,0.0,0.0,0.0,0.000409616372674,-0.206682453488,0.00176128218398,0.0,0.0,0.0,0.0,0.0,0.0,0.0,0.0,0.0,4.51428142932,-0.0224280784049,8.91098585925,0.0,0.0,0.0,0.0,0.0,0.0,0.0,0.0,0.0
27836000000,27,27836000000,imu_link,-0.000871162832127,-0.319694542622,0.000483381982172,0.947520135319,0.0,0.0,0.0,0.0,0.0,0.0,0.0,0.0,0.0,0.000418080227682,-0.207816352992,0.00173459076388,0.0,0.0,0.0,0.0,0.0,0.0,0.0,0.0,0.0,4.52003276003,-0.0226214624767,8.90385300351,0.0,0.0,0.0,0.0,0.0,0.0,0.0,0.0,0.0
27840000000,28,27840000000,imu_link,-0.000871524037529,-0.320089130658,0.000487212096332,0.947386906973,0.0,0.0,0.0,0.0,0.0,0.0,0.0,0.0,0.0,0.000287708461725,-0.208237841325,0.00173261786697,0.0,0.0,0.0,0.0,0.0,0.0,0.0,0.0,0.0,4.52750020595,-0.0230712840461,8.89937175545,0.0,0.0,0.0,0.0,0.0,0.0,0.0,0.0,0.0
27844000000,29,27844000000,imu_link,-0.000872776329825,-0.320483509302,0.000490866946973,0.947253565618,0.0,0.0,0.0,0.0,0.0,0.0,0.0,0.0,0.0,-0.000162441815168,-0.208156446318,0.00179232908032,0.0,0.0,0.0,0.0,0.0,0.0,0.0,0.0,0.0,4.53524465278,-0.0232445510609,8.89572736381,0.0,0.0,0.0,0.0,0.0,0.0,0.0,0.0,0.0
27848000000,30,27848000000,imu_link,-0.000875394791014,-0.320876957516,0.000494302396956,0.947120355332,0.0,0.0,0.0,0.0,0.0,0.0,0.0,0.0,0.0,-0.000844367642625,-0.207694336438,0.00190770622177,0.0,0.0,0.0,0.0,0.0,0.0,0.0,0.0,0.0,4.5415982555,-0.0232863241431,8.89134164062,0.0,0.0,0.0,0.0,0.0,0.0,0.0,0.0,0.0
27852000000,31,27852000000,imu_link,-0.000879390863166,-0.3212695029,0.000497518599393,0.946987267947,0.0,0.0,0.0,0.0,0.0,0.0,0.0,0.0,0.0,-0.00153164820786,-0.207246637615,0.00202526592304,0.0,0.0,0.0,0.0,0.0,0.0,0.0,0.0,0.0,4.54597695797,-0.0233417253113,8.88422756674,0.0,0.0,0.0,0.0,0.0,0.0,0.0,0.0,0.0
27856000000,32,27856000000,imu_link,-0.000884274474958,-0.321661234542,0.000500595750616,0.946854274773,0.0,0.0,0.0,0.0,0.0,0.0,0.0,0.0,0.0,-0.00197398522069,-0.206845919572,0.00210233013716,0.0,0.0,0.0,0.0,0.0,0.0,0.0,0.0,0.0,4.5509205514,-0.0235194244741,8.88128235084,0.0,0.0,0.0,0.0,0.0,0.0,0.0,0.0,0.0
27860000000,33,27860000000,imu_link,-0.000888942218581,-0.322052219925,0.000503765160484,0.946721354805,0.0,0.0,0.0,0.0,0.0,0.0,0.0,0.0,0.0,-0.00185673019295,-0.20648094197,0.00211160129761,0.0,0.0,0.0,0.0,0.0,0.0,0.0,0.0,0.0,4.55822857541,-0.0241292695973,8.88044502423,0.0,0.0,0.0,0.0,0.0,0.0,0.0,0.0,0.0
27864000000,34,27864000000,imu_link,-0.000892262329862,-0.322442848655,0.000507244923148,0.946588377238,0.0,0.0,0.0,0.0,0.0,0.0,0.0,0.0,0.0,-0.00116877483798,-0.206321868318,0.00204167913736,0.0,0.0,0.0,0.0,0.0,0.0,0.0,0.0,0.0,4.56506741831,-0.0245864528923,8.88110857825,0.0,0.0,0.0,0.0,0.0,0.0,0.0,0.0,0.0
27868000000,35,27868000000,imu_link,-0.00089377607088,-0.322832631669,0.000511070634257,0.946455509731,0.0,0.0,0.0,0.0,0.0,0.0,0.0,0.0,0.0,-0.000257792318171,-0.205904464557,0.00191453831446,0.0,0.0,0.0,0.0,0.0,0.0,0.0,0.0,0.0,4.57124801999,-0.0245328022678,8.87442954307,0.0,0.0,0.0,0.0,0.0,0.0,0.0,0.0,0.0
27872000000,36,27872000000,imu_link,-0.000893609931367,-0.323221591907,0.000515141744576,0.946322745481,0.0,0.0,0.0,0.0,0.0,0.0,0.0,0.0,0.0,0.000577041674252,-0.205498975511,0.00175984919491,0.0,0.0,0.0,0.0,0.0,0.0,0.0,0.0,0.0,4.57674084499,-0.0238227286221,8.86933625139,0.0,0.0,0.0,0.0,0.0,0.0,0.0,0.0,0.0
27876000000,37,27876000000,imu_link,-0.000892278830695,-0.323609775032,0.000519311704521,0.94619006952,0.0,0.0,0.0,0.0,0.0,0.0,0.0,0.0,0.0,0.00114447111861,-0.205117351073,0.00161867518453,0.0,0.0,0.0,0.0,0.0,0.0,0.0,0.0,0.0,4.58208486833,-0.023051437867,8.86667507378,0.0,0.0,0.0,0.0,0.0,0.0,0.0,0.0,0.0
27880000000,38,27880000000,imu_link,-0.0008904317685,-0.323997140675,0.000523443536821,0.946057496124,0.0,0.0,0.0,0.0,0.0,0.0,0.0,0.0,0.0,0.00138265875664,-0.204714125692,0.00151749015852,0.0,0.0,0.0,0.0,0.0,0.0,0.0,0.0,0.0,4.5861554621,-0.0223123936303,8.86023963659,0.0,0.0,0.0,0.0,0.0,0.0,0.0,0.0,0.0
27884000000,39,27884000000,imu_link,-0.000888371906271,-0.324383695763,0.000527540023376,0.945925023678,0.0,0.0,0.0,0.0,0.0,0.0,0.0,0.0,0.0,0.00147785042145,-0.204314396542,0.00146663175011,0.0,0.0,0.0,0.0,0.0,0.0,0.0,0.0,0.0,4.5925762277,-0.0222448470702,8.86108368956,0.0,0.0,0.0,0.0,0.0,0.0,0.0,0.0,0.0
27888000000,40,27888000000,imu_link,-0.00088646735779,-0.324769016019,0.000531561324379,0.945792798583,0.0,0.0,0.0,0.0,0.0,0.0,0.0,0.0,0.0,0.00139263393125,-0.203690174079,0.00145674567619,0.0,0.0,0.0,0.0,0.0,0.0,0.0,0.0,0.0,4.59969770709,-0.0225447339855,8.85935891085,0.0,0.0,0.0,0.0,0.0,0.0,0.0,0.0,0.0
27892000000,41,27892000000,imu_link,-0.000884776754261,-0.325153242623,0.00053550082049,0.945660773862,0.0,0.0,0.0,0.0,0.0,0.0,0.0,0.0,0.0,0.00127855576058,-0.203140359115,0.00145323327041,0.0,0.0,0.0,0.0,0.0,0.0,0.0,0.0,0.0,4.60547348739,-0.022873484832,8.85483366515,0.0,0.0,0.0,0.0,0.0,0.0,0.0,0.0,0.0
27896000000,42,27896000000,imu_link,-0.000883144912249,-0.32553630432,0.000539383184487,0.945528975595,0.0,0.0,0.0,0.0,0.0,0.0,0.0,0.0,0.0,0.00124189526569,-0.202552698491,0.00143622742488,0.0,0.0,0.0,0.0,0.0,0.0,0.0,0.0,0.0,4.61109884231,-0.0232091511094,8.8490240459,0.0,0.0,0.0,0.0,0.0,0.0,0.0,0.0,0.0
27900000000,43,27900000000,imu_link,-0.000881201244905,-0.325918196879,0.000543243685403,0.94539740708,0.0,0.0,0.0,0.0,0.0,0.0,0.0,0.0,0.0,0.00138617336511,-0.201962649491,0.00137559039567,0.0,0.0,0.0,0.0,0.0,0.0,0.0,0.0,0.0,4.61762634457,-0.0233963354372,8.84929771153,0.0,0.0,0.0,0.0,0.0,0.0,0.0,0.0,0.0
27904000000,44,27904000000,imu_link,-0.000878582575046,-0.326299128247,0.00054713554691,0.945265998352,0.0,0.0,0.0,0.0,0.0,0.0,0.0,0.0,0.0,0.0017106881813,-0.201482453845,0.0012807967968,0.0,0.0,0.0,0.0,0.0,0.0,0.0,0.0,0.0,4.62427983952,-0.0233433202327,8.85130090649,0.0,0.0,0.0,0.0,0.0,0.0,0.0,0.0,0.0
27908000000,45,27908000000,imu_link,-0.000874984592611,-0.326679167664,0.000551133852968,0.94513472694,0.0,0.0,0.0,0.0,0.0,0.0,0.0,0.0,0.0,0.00219121437213,-0.201038800332,0.00117168583529,0.0,0.0,0.0,0.0,0.0,0.0,0.0,0.0,0.0,4.63085696362,-0.0233814925548,8.84630706011,0.0,0.0,0.0,0.0,0.0,0.0,0.0,0.0,0.0
27912000000,46,27912000000,imu_link,-0.000870529842058,-0.327058609268,0.000555289673673,0.945003492022,0.0,0.0,0.0,0.0,0.0,0.0,0.0,0.0,0.0,0.00262200413779,-0.200750637113,0.00110642944585,0.0,0.0,0.0,0.0,0.0,0.0,0.0,0.0,0.0,4.63771506895,-0.0231272248229,8.84508161663,0.0,0.0,0.0,0.0,0.0,0.0,0.0,0.0,0.0
27916000000,47,27916000000,imu_link,-0.000865413457353,-0.327437052949,0.000559641700581,0.944872432774,0.0,0.0,0.0,0.0,0.0,0.0,0.0,0.0,0.0,0.00296706645102,-0.200250658393,0.00109132623211,0.0,0.0,0.0,0.0,0.0,0.0,0.0,0.0,0.0,4.64369159703,-0.0228039140175,8.84034568628,0.0,0.0,0.0,0.0,0.0,0.0,0.0,0.0,0.0
27920000000,48,27920000000,imu_link,-0.00085966817546,-0.327814147635,0.000564248671187,0.944741672207,0.0,0.0,0.0,0.0,0.0,0.0,0.0,0.0,0.0,0.00330642600902,-0.199564731301,0.00110930888981,0.0,0.0,0.0,0.0,0.0,0.0,0.0,0.0,0.0,4.64809799763,-0.0224142263837,8.8343748141,0.0,0.0,0.0,0.0,0.0,0.0,0.0,0.0,0.0
27924000000,49,27924000000,imu_link,-0.000853273410508,-0.328190234367,0.000569142467544,0.944611093555,0.0,0.0,0.0,0.0,0.0,0.0,0.0,0.0,0.0,0.00366059822315,-0.199059091817,0.00113872407419,0.0,0.0,0.0,0.0,0.0,0.0,0.0,0.0,0.0,4.65380338426,-0.0221231466622,8.83619247449,0.0,0.0,0.0,0.0,0.0,0.0,0.0,0.0,0.0
27928000000,50,27928000000,imu_link,-0.000846508951936,-0.328565754378,0.000574179064705,0.944480544422,0.0,0.0,0.0,0.0,0.0,0.0,0.0,0.0,0.0,0.00385881336583,-0.19878674929,0.00114573815196,0.0,0.0,0.0,0.0,0.0,0.0,0.0,0.0,0.0,4.66002210851,-0.0218427637995,8.83788340403,0.0,0.0,0.0,0.0,0.0,0.0,0.0,0.0,0.0
27932000000,51,27932000000,imu_link,-0.000839935474089,-0.328941218536,0.000579154092364,0.944349847163,0.0,0.0,0.0,0.0,0.0,0.0,0.0,0.0,0.0,0.00375846309357,-0.198784626324,0.00114810358274,0.0,0.0,0.0,0.0,0.0,0.0,0.0,0.0,0.0,4.6656704104,-0.0219523975449,8.84033205377,0.0,0.0,0.0,0.0,0.0,0.0,0.0,0.0,0.0
27936000000,52,27936000000,imu_link,-0.000834322132112,-0.329316490513,0.000583827841154,0.944219048806,0.0,0.0,0.0,0.0,0.0,0.0,0.0,0.0,0.0,0.00325557264619,-0.198710106776,0.0011638713734,0.0,0.0,0.0,0.0,0.0,0.0,0.0,0.0,0.0,4.67171675219,-0.022261641519,8.83470844518,0.0,0.0,0.0,0.0,0.0,0.0,0.0,0.0,0.0
27940000000,53,27940000000,imu_link,-0.000829803996638,-0.329691107213,0.000588179219246,0.944088311174,0.0,0.0,0.0,0.0,0.0,0.0,0.0,0.0,0.0,0.0026856508033,-0.198390290614,0.0011922675094,0.0,0.0,0.0,0.0,0.0,0.0,0.0,0.0,0.0,4.67878731602,-0.0227442126691,8.82938827059,0.0,0.0,0.0,0.0,0.0,0.0,0.0,0.0,0.0
27944000000,54,27944000000,imu_link,-0.000826238543927,-0.330065063059,0.000592283020351,0.943957637121,0.0,0.0,0.0,0.0,0.0,0.0,0.0,0.0,0.0,0.00219535119697,-0.198067474922,0.00123270125128,0.0,0.0,0.0,0.0,0.0,0.0,0.0,0.0,0.0,4.68572179249,-0.0230994387832,8.82836608834,0.0,0.0,0.0,0.0,0.0,0.0,0.0,0.0,0.0
27948000000,55,27948000000,imu_link,-0.000823539489355,-0.330438528755,0.000596213932146,0.943826967736,0.0,0.0,0.0,0.0,0.0,0.0,0.0,0.0,0.0,0.00175804431446,-0.197835036133,0.00129428615001,0.0,0.0,0.0,0.0,0.0,0.0,0.0,0.0,0.0,4.69135814321,-0.0233209242319,8.82609132764,0.0,0.0,0.0,0.0,0.0,0.0,0.0,0.0,0.0
27952000000,56,27952000000,imu_link,-0.000821442991138,-0.330811576017,0.000600096651367,0.943696278624,0.0,0.0,0.0,0.0,0.0,0.0,0.0,0.0,0.0,0.00146584409528,-0.197640631422,0.00137127552739,0.0,0.0,0.0,0.0,0.0,0.0,0.0,0.0,0.0,4.69748008184,-0.0236284837805,8.82161699886,0.0,0.0,0.0,0.0,0.0,0.0,0.0,0.0,0.0
27956000000,57,27956000000,imu_link,-0.0008195280058,-0.331184659825,0.000604080295604,0.943565410853,0.0,0.0,0.0,0.0,0.0,0.0,0.0,0.0,0.0,0.00139680681347,-0.197687413501,0.00144895869132,0.0,0.0,0.0,0.0,0.0,0.0,0.0,0.0,0.0,4.7043296056,-0.0240370296185,8.81896843817,0.0,0.0,0.0,0.0,0.0,0.0,0.0,0.0,0.0
27960000000,58,27960000000,imu_link,-0.000817592496412,-0.331557959728,0.000608232774518,0.943434301336,0.0,0.0,0.0,0.0,0.0,0.0,0.0,0.0,0.0,0.00143428310765,-0.197829470094,0.00152519782217,0.0,0.0,0.0,0.0,0.0,0.0,0.0,0.0,0.0,4.71093100183,-0.0239551472808,8.81566612597,0.0,0.0,0.0,0.0,0.0,0.0,0.0,0.0,0.0
27964000000,59,27964000000,imu_link,-0.000815881136048,-0.33193234939,0.000612557623419,0.943302642072,0.0,0.0,0.0,0.0,0.0,0.0,0.0,0.0,0.0,0.00135656733536,-0.198434667472,0.00164338860501,0.0,0.0,0.0,0.0,0.0,0.0,0.0,0.0,0.0,4.71941991037,-0.0234280931742,8.82536296079,0.0,0.0,0.0,0.0,0.0,0.0,0.0,0.0,0.0
27968000000,60,27968000000,imu_link,-0.000814737126323,-0.332308245025,0.000617031534931,0.943170284606,0.0,0.0,0.0,0.0,0.0,0.0,0.0,0.0,0.0,0.00111296891818,-0.199260726241,0.00180745470884,0.0,0.0,0.0,0.0,0.0,0.0,0.0,0.0,0.0,4.72523881279,-0.0229253113266,8.824449641,0.0,0.0,0.0,0.0,0.0,0.0,0.0,0.0,0.0
27972000000,61,27972000000,imu_link,-0.00081443140085,-0.332686380638,0.000621645889916,0.943036967672,0.0,0.0,0.0,0.0,0.0,0.0,0.0,0.0,0.0,0.000739899826802,-0.200476285269,0.00201235368109,0.0,0.0,0.0,0.0,0.0,0.0,0.0,0.0,0.0,4.73086919286,-0.0225753877388,8.82561301796,0.0,0.0,0.0,0.0,0.0,0.0,0.0,0.0,0.0
27976000000,62,27976000000,imu_link,-0.000814869269623,-0.333067287077,0.000626436031672,0.94290250071,0.0,0.0,0.0,0.0,0.0,0.0,0.0,0.0,0.0,0.000417192756974,-0.201973920763,0.00221816138261,0.0,0.0,0.0,0.0,0.0,0.0,0.0,0.0,0.0,4.73533059013,-0.0228352089344,8.82420456968,0.0,0.0,0.0,0.0,0.0,0.0,0.0,0.0,0.0
27980000000,63,27980000000,imu_link,-0.000815800779537,-0.333450834748,0.000631430143226,0.9427669259,0.0,0.0,0.0,0.0,0.0,0.0,0.0,0.0,0.0,0.000217154183597,-0.203403556177,0.00239580194245,0.0,0.0,0.0,0.0,0.0,0.0,0.0,0.0,0.0,4.73921901817,-0.0234030234324,8.81930162228,0.0,0.0,0.0,0.0,0.0,0.0,0.0,0.0,0.0
27984000000,64,27984000000,imu_link,-0.000817674656457,-0.333837022252,0.000636409998477,0.942630239789,0.0,0.0,0.0,0.0,0.0,0.0,0.0,0.0,0.0,-0.000230725698864,-0.20483290857,0.00254547237049,0.0,0.0,0.0,0.0,0.0,0.0,0.0,0.0,0.0,4.74612629951,-0.0238160664628,8.81676889707,0.0,0.0,0.0,0.0,0.0,0.0,0.0,0.0,0.0
27988000000,65,27988000000,imu_link,-0.000820774468152,-0.334225316908,0.000641174859375,0.942492627431,0.0,0.0,0.0,0.0,0.0,0.0,0.0,0.0,0.0,-0.000845463075208,-0.205980171413,0.00264820675371,0.0,0.0,0.0,0.0,0.0,0.0,0.0,0.0,0.0,4.75220811564,-0.0242022239153,8.81191343597,0.0,0.0,0.0,0.0,0.0,0.0,0.0,0.0,0.0
27992000000,66,27992000000,imu_link,-0.000825216887575,-0.334615267283,0.000645557076208,0.942354246117,0.0,0.0,0.0,0.0,0.0,0.0,0.0,0.0,0.0,-0.00154295311787,-0.206888338382,0.0026918209325,0.0,0.0,0.0,0.0,0.0,0.0,0.0,0.0,0.0,4.75719654434,-0.0244174375065,8.80613610562,0.0,0.0,0.0,0.0,0.0,0.0,0.0,0.0,0.0
27996000000,67,27996000000,imu_link,-0.000830643862642,-0.335005745927,0.000649566177715,0.942215494614,0.0,0.0,0.0,0.0,0.0,0.0,0.0,0.0,0.0,-0.00206960155787,-0.207198709987,0.00268064272232,0.0,0.0,0.0,0.0,0.0,0.0,0.0,0.0,0.0,4.76439245684,-0.0245898473184,8.80328069681,0.0,0.0,0.0,0.0,0.0,0.0,0.0,0.0,0.0
28000000000,68,28000000000,imu_link,-0.000836344495759,-0.335395602081,0.000653325637388,0.942076782326,0.0,0.0,0.0,0.0,0.0,0.0,0.0,0.0,0.0,-0.00224012126276,-0.206898688481,0.00260911882044,0.0,0.0,0.0,0.0,0.0,0.0,0.0,0.0,0.0,4.77366818936,-0.0250443684504,8.79858202269,0.0,0.0,0.0,0.0,0.0,0.0,0.0,0.0,0.0
28004000000,69,28004000000,imu_link,-0.000842086006837,-0.335784620543,0.00065692140255,0.941938186906,0.0,0.0,0.0,0.0,0.0,0.0,0.0,0.0,0.0,-0.00228650505123,-0.206484423439,0.00253917968203,0.0,0.0,0.0,0.0,0.0,0.0,0.0,0.0,0.0,4.78045421503,-0.0253636563328,8.79123692981,0.0,0.0,0.0,0.0,0.0,0.0,0.0,0.0,0.0
28008000000,70,28008000000,imu_link,-0.000848226319295,-0.336172425272,0.000660339554621,0.941799843359,0.0,0.0,0.0,0.0,0.0,0.0,0.0,0.0,0.0,-0.00250364335192,-0.205870299202,0.00252291339083,0.0,0.0,0.0,0.0,0.0,0.0,0.0,0.0,0.0,4.78811066855,-0.0253343505876,8.78705795473,0.0,0.0,0.0,0.0,0.0,0.0,0.0,0.0,0.0
28012000000,71,28012000000,imu_link,-0.000855103289249,-0.336559172562,0.000663567065535,0.94166169713,0.0,0.0,0.0,0.0,0.0,0.0,0.0,0.0,0.0,-0.00288214667052,-0.205338860647,0.00255734578105,0.0,0.0,0.0,0.0,0.0,0.0,0.0,0.0,0.0,4.79389896766,-0.0249738754261,8.78206978568,0.0,0.0,0.0,0.0,0.0,0.0,0.0,0.0,0.0
28016000000,72,28016000000,imu_link,-0.000862794651311,-0.336944765033,0.000666638426506,0.941523784349,0.0,0.0,0.0,0.0,0.0,0.0,0.0,0.0,0.0,-0.00329138151728,-0.204755514545,0.00262128743215,0.0,0.0,0.0,0.0,0.0,0.0,0.0,0.0,0.0,4.79903136234,-0.0246781418365,8.77658498857,0.0,0.0,0.0,0.0,0.0,0.0,0.0,0.0,0.0
28020000000,73,28020000000,imu_link,-0.0008710858455,-0.337329278755,0.000669627077913,0.941386079408,0.0,0.0,0.0,0.0,0.0,0.0,0.0,0.0,0.0,-0.00358724469589,-0.204212429687,0.00268380216538,0.0,0.0,0.0,0.0,0.0,0.0,0.0,0.0,0.0,4.80276807336,-0.0242623570119,8.76946842936,0.0,0.0,0.0,0.0,0.0,0.0,0.0,0.0,0.0
28024000000,74,28024000000,imu_link,-0.000879458466231,-0.337713132166,0.000672648840202,0.941248433974,0.0,0.0,0.0,0.0,0.0,0.0,0.0,0.0,0.0,-0.00361973996963,-0.203891575645,0.0027133886779,0.0,0.0,0.0,0.0,0.0,0.0,0.0,0.0,0.0,4.80764578766,-0.0242699557929,8.77064943813,0.0,0.0,0.0,0.0,0.0,0.0,0.0,0.0,0.0
28028000000,75,28028000000,imu_link,-0.000887745551146,-0.338096291653,0.000675704359423,0.941110861112,0.0,0.0,0.0,0.0,0.0,0.0,0.0,0.0,0.0,-0.00357351936397,-0.203552788118,0.00271511295339,0.0,0.0,0.0,0.0,0.0,0.0,0.0,0.0,0.0,4.81186972056,-0.0245028068781,8.76553461045,0.0,0.0,0.0,0.0,0.0,0.0,0.0,0.0,0.0
28032000000,76,28032000000,imu_link,-0.000895777139897,-0.338478627223,0.00067884473497,0.940973408586,0.0,0.0,0.0,0.0,0.0,0.0,0.0,0.0,0.0,-0.00343861766305,-0.203144870749,0.002712176462,0.0,0.0,0.0,0.0,0.0,0.0,0.0,0.0,0.0,4.81613730964,-0.0247329733476,8.75928046017,0.0,0.0,0.0,0.0,0.0,0.0,0.0,0.0,0.0
28036000000,77,28036000000,imu_link,-0.000903197985351,-0.338859984109,0.000682202257672,0.940836133449,0.0,0.0,0.0,0.0,0.0,0.0,0.0,0.0,0.0,-0.0031141095609,-0.202654695863,0.00271135766657,0.0,0.0,0.0,0.0,0.0,0.0,0.0,0.0,0.0,4.81957145971,-0.0250081996222,8.75333994383,0.0,0.0,0.0,0.0,0.0,0.0,0.0,0.0,0.0
28040000000,78,28040000000,imu_link,-0.000909893242173,-0.339240201307,0.000685808963978,0.940699095129,0.0,0.0,0.0,0.0,0.0,0.0,0.0,0.0,0.0,-0.00273006465522,-0.202078802453,0.00270607556077,0.0,0.0,0.0,0.0,0.0,0.0,0.0,0.0,0.0,4.82411623854,-0.025137184652,8.75105565161,0.0,0.0,0.0,0.0,0.0,0.0,0.0,0.0,0.0
28044000000,79,28044000000,imu_link,-0.000915875367206,-0.339619773382,0.000689607583878,0.940562116578,0.0,0.0,0.0,0.0,0.0,0.0,0.0,0.0,0.0,-0.00236184260053,-0.201765562515,0.00267565354575,0.0,0.0,0.0,0.0,0.0,0.0,0.0,0.0,0.0,4.83083670482,-0.0250730802033,8.75753385971,0.0,0.0,0.0,0.0,0.0,0.0,0.0,0.0,0.0
28048000000,80,28048000000,imu_link,-0.000921139670245,-0.339999191599,0.000693534457749,0.940425021054,0.0,0.0,0.0,0.0,0.0,0.0,0.0,0.0,0.0,-0.00200248620689,-0.201713375485,0.00261418647253,0.0,0.0,0.0,0.0,0.0,0.0,0.0,0.0,0.0,4.83786736433,-0.0252523111488,8.7576054442,0.0,0.0,0.0,0.0,0.0,0.0,0.0,0.0,0.0
28052000000,81,28052000000,imu_link,-0.000925702851686,-0.340379090799,0.000697542658389,0.940287578911,0.0,0.0,0.0,0.0,0.0,0.0,0.0,0.0,0.0,-0.0016593109459,-0.201998745712,0.00253313561183,0.0,0.0,0.0,0.0,0.0,0.0,0.0,0.0,0.0,4.84511973818,-0.0250954970242,8.75856079187,0.0,0.0,0.0,0.0,0.0,0.0,0.0,0.0,0.0
28056000000,82,28056000000,imu_link,-0.000929552924642,-0.340759555444,0.000701635603207,0.940149758822,0.0,0.0,0.0,0.0,0.0,0.0,0.0,0.0,0.0,-0.00130999696346,-0.2023291966,0.00245148404582,0.0,0.0,0.0,0.0,0.0,0.0,0.0,0.0,0.0,4.85249114406,-0.024890679124,8.75554755012,0.0,0.0,0.0,0.0,0.0,0.0,0.0,0.0,0.0
28060000000,83,28060000000,imu_link,-0.000932647795688,-0.341140227552,0.000705837620622,0.940011689878,0.0,0.0,0.0,0.0,0.0,0.0,0.0,0.0,0.0,-0.000936600164757,-0.202469435009,0.00237407607289,0.0,0.0,0.0,0.0,0.0,0.0,0.0,0.0,0.0,4.8582785605,-0.0243658231695,8.74816075831,0.0,0.0,0.0,0.0,0.0,0.0,0.0,0.0,0.0
28064000000,84,28064000000,imu_link,-0.000934908780942,-0.341521008271,0.00071014699545,0.939873407724,0.0,0.0,0.0,0.0,0.0,0.0,0.0,0.0,0.0,-0.000526494724953,-0.202557194743,0.00228232328095,0.0,0.0,0.0,0.0,0.0,0.0,0.0,0.0,0.0,4.86432521023,-0.0239264506611,8.74550780447,0.0,0.0,0.0,0.0,0.0,0.0,0.0,0.0,0.0
28068000000,85,28068000000,imu_link,-0.000936115402801,-0.341901716579,0.00071455616464,0.939734978224,0.0,0.0,0.0,0.0,0.0,0.0,0.0,0.0,0.0,-1.40128540833e-05,-0.202548747586,0.00214926284586,0.0,0.0,0.0,0.0,0.0,0.0,0.0,0.0,0.0,4.86983122337,-0.0235819448434,8.74198774039,0.0,0.0,0.0,0.0,0.0,0.0,0.0,0.0,0.0
28072000000,86,28072000000,imu_link,-0.000935756575031,-0.34228238261,0.000719125541673,0.93959639089,0.0,0.0,0.0,0.0,0.0,0.0,0.0,0.0,0.0,0.000748869991396,-0.20255649959,0.00195700050805,0.0,0.0,0.0,0.0,0.0,0.0,0.0,0.0,0.0,4.87518115598,-0.0236670387623,8.73996399482,0.0,0.0,0.0,0.0,0.0,0.0,0.0,0.0,0.0
28076000000,87,28076000000,imu_link,-0.000933965230712,-0.342663249582,0.000723802765225,0.939457556894,0.0,0.0,0.0,0.0,0.0,0.0,0.0,0.0,0.0,0.00144013306185,-0.20269368045,0.00176249867829,0.0,0.0,0.0,0.0,0.0,0.0,0.0,0.0,0.0,4.88220472591,-0.0236841767121,8.73922091575,0.0,0.0,0.0,0.0,0.0,0.0,0.0,0.0,0.0
28080000000,88,28080000000,imu_link,-0.000931314928999,-0.343044512842,0.000728482560415,0.939318404043,0.0,0.0,0.0,0.0,0.0,0.0,0.0,0.0,0.0,0.00184375838839,-0.202934770708,0.00161647040692,0.0,0.0,0.0,0.0,0.0,0.0,0.0,0.0,0.0,4.88814812392,-0.0235342406527,8.73710852242,0.0,0.0,0.0,0.0,0.0,0.0,0.0,0.0,0.0
28084000000,89,28084000000,imu_link,-0.000928609541934,-0.343426703069,0.000733027084515,0.939178736969,0.0,0.0,0.0,0.0,0.0,0.0,0.0,0.0,0.0,0.00184585063747,-0.203458287429,0.00154324637838,0.0,0.0,0.0,0.0,0.0,0.0,0.0,0.0,0.0,4.89507208268,-0.023406776956,8.74183873006,0.0,0.0,0.0,0.0,0.0,0.0,0.0,0.0,0.0
28088000000,90,28088000000,imu_link,-0.000926745143359,-0.343809920491,0.000737243887141,0.939038516881,0.0,0.0,0.0,0.0,0.0,0.0,0.0,0.0,0.0,0.00139402394721,-0.204035146463,0.0015334865656,0.0,0.0,0.0,0.0,0.0,0.0,0.0,0.0,0.0,4.90027580582,-0.0233599635396,8.74163704029,0.0,0.0,0.0,0.0,0.0,0.0,0.0,0.0,0.0
28092000000,91,28092000000,imu_link,-0.00092602726911,-0.344194141887,0.000741118409868,0.938897750507,0.0,0.0,0.0,0.0,0.0,0.0,0.0,0.0,0.0,0.000796245812362,-0.204599860102,0.00156960894263,0.0,0.0,0.0,0.0,0.0,0.0,0.0,0.0,0.0,4.9041290463,-0.0236396424515,8.73525364912,0.0,0.0,0.0,0.0,0.0,0.0,0.0,0.0,0.0
28096000000,92,28096000000,imu_link,-0.00092606056248,-0.344579146613,0.000744766275388,0.938756517663,0.0,0.0,0.0,0.0,0.0,0.0,0.0,0.0,0.0,0.000404097692511,-0.20504748798,0.00159228888434,0.0,0.0,0.0,0.0,0.0,0.0,0.0,0.0,0.0,4.90927517711,-0.0243611839199,8.72758733022,0.0,0.0,0.0,0.0,0.0,0.0,0.0,0.0,0.0
28100000000,93,28100000000,imu_link,-0.00092624718389,-0.344964178825,0.000748269772941,0.938615095492,0.0,0.0,0.0,0.0,0.0,0.0,0.0,0.0,0.0,0.000307157841048,-0.205092884742,0.0015510002929,0.0,0.0,0.0,0.0,0.0,0.0,0.0,0.0,0.0,4.91669028206,-0.024579053334,8.72323402094,0.0,0.0,0.0,0.0,0.0,0.0,0.0,0.0,0.0
28104000000,94,28104000000,imu_link,-0.000926199489807,-0.345349146673,0.000751684205412,0.938473518016,0.0,0.0,0.0,0.0,0.0,0.0,0.0,0.0,0.0,0.000401713902663,-0.2050895119,0.00146887405879,0.0,0.0,0.0,0.0,0.0,0.0,0.0,0.0,0.0,4.92314548147,-0.0242857336639,8.72288304537,0.0,0.0,0.0,0.0,0.0,0.0,0.0,0.0,0.0
28108000000,95,28108000000,imu_link,-0.000926070973951,-0.34573399715,0.000754941863237,0.938331804678,0.0,0.0,0.0,0.0,0.0,0.0,0.0,0.0,0.0,0.000412548649566,-0.205057855268,0.00138145917621,0.0,0.0,0.0,0.0,0.0,0.0,0.0,0.0,0.0,4.92765436238,-0.023727708873,8.71838775962,0.0,0.0,0.0,0.0,0.0,0.0,0.0,0.0,0.0
28112000000,96,28112000000,imu_link,-0.000925942014263,-0.346119294163,0.000758093466759,0.938189747404,0.0,0.0,0.0,0.0,0.0,0.0,0.0,0.0,0.0,0.000394095781717,-0.205326760428,0.00133154845005,0.0,0.0,0.0,0.0,0.0,0.0,0.0,0.0,0.0,4.93333581788,-0.0233195573283,8.71841111209,0.0,0.0,0.0,0.0,0.0,0.0,0.0,0.0,0.0
28116000000,97,28116000000,imu_link,-0.000925750575277,-0.346505222265,0.000761213899585,0.938047277317,0.0,0.0,0.0,0.0,0.0,0.0,0.0,0.0,0.0,0.00041757978006,-0.205694251983,0.00130597808863,0.0,0.0,0.0,0.0,0.0,0.0,0.0,0.0,0.0,4.93840561923,-0.0232700152785,8.71500169399,0.0,0.0,0.0,0.0,0.0,0.0,0.0,0.0,0.0
28120000000,98,28120000000,imu_link,-0.00092519093419,-0.346891345019,0.000764401011127,0.937904555093,0.0,0.0,0.0,0.0,0.0,0.0,0.0,0.0,0.0,0.000601636752016,-0.205829402971,0.00127346587016,0.0,0.0,0.0,0.0,0.0,0.0,0.0,0.0,0.0,4.94369743395,-0.0235837390859,8.70817830752,0.0,0.0,0.0,0.0,0.0,0.0,0.0,0.0,0.0
28124000000,99,28124000000,imu_link,-0.00092390685355,-0.34727792133,0.000767733002752,0.937761484781,0.0,0.0,0.0,0.0,0.0,0.0,0.0,0.0,0.0,0.000966158811685,-0.206102817546,0.00121568003062,0.0,0.0,0.0,0.0,0.0,0.0,0.0,0.0,0.0,4.95150542786,-0.0240922505487,8.70969221525,0.0,0.0,0.0,0.0,0.0,0.0,0.0,0.0,0.0
28128000000,100,28128000000,imu_link,-0.000921534012928,-0.347664998231,0.000771250351058,0.937618048543,0.0,0.0,0.0,0.0,0.0,0.0,0.0,0.0,0.0,0.00150848138751,-0.206401577334,0.0011134482666,0.0,0.0,0.0,0.0,0.0,0.0,0.0,0.0,0.0,4.95813595452,-0.0243799293784,8.70858399723,0.0,0.0,0.0,0.0,0.0,0.0,0.0,0.0,0.0
28132000000,101,28132000000,imu_link,-0.000918201180524,-0.348052718901,0.000774875131374,0.93747419236,0.0,0.0,0.0,0.0,0.0,0.0,0.0,0.0,0.0,0.00197676766357,-0.206776801592,0.000996800895846,0.0,0.0,0.0,0.0,0.0,0.0,0.0,0.0,0.0,4.96244491787,-0.0243300633017,8.70317649628,0.0,0.0,0.0,0.0,0.0,0.0,0.0,0.0,0.0
28136000000,102,28136000000,imu_link,-0.000914336458761,-0.348441155982,0.000778459933626,0.93732988793,0.0,0.0,0.0,0.0,0.0,0.0,0.0,0.0,0.0,0.00221864336639,-0.207190805052,0.000885343679205,0.0,0.0,0.0,0.0,0.0,0.0,0.0,0.0,0.0,4.96624904079,-0.023960082046,8.69846695149,0.0,0.0,0.0,0.0,0.0,0.0,0.0,0.0,0.0
28140000000,103,28140000000,imu_link,-0.000910055479862,-0.348830000785,0.000781959696711,0.937185248972,0.0,0.0,0.0,0.0,0.0,0.0,0.0,0.0,0.0,0.00239860130384,-0.207440294523,0.000772912045162,0.0,0.0,0.0,0.0,0.0,0.0,0.0,0.0,0.0,4.97189598215,-0.0239819425997,8.69055553656,0.0,0.0,0.0,0.0,0.0,0.0,0.0,0.0,0.0
28144000000,104,28144000000,imu_link,-0.000905158267999,-0.349219159111,0.000785413083837,0.937040310085,0.0,0.0,0.0,0.0,0.0,0.0,0.0,0.0,0.0,0.00267901583046,-0.207639741514,0.000643674933545,0.0,0.0,0.0,0.0,0.0,0.0,0.0,0.0,0.0,4.97768189792,-0.0239679432468,8.68598054138,0.0,0.0,0.0,0.0,0.0,0.0,0.0,0.0,0.0
28148000000,105,28148000000,imu_link,-0.000898961156841,-0.349607895301,0.000788996899262,0.936895345754,0.0,0.0,0.0,0.0,0.0,0.0,0.0,0.0,0.0,0.00331097319398,-0.20744697418,0.000478009379123,0.0,0.0,0.0,0.0,0.0,0.0,0.0,0.0,0.0,4.98463410975,-0.0240423346013,8.68289043172,0.0,0.0,0.0,0.0,0.0,0.0,0.0,0.0,0.0
28152000000,106,28152000000,imu_link,-0.000890962814256,-0.349995980887,0.000792858333807,0.93675044218,0.0,0.0,0.0,0.0,0.0,0.0,0.0,0.0,0.0,0.00420356882888,-0.207132415496,0.000293465494693,0.0,0.0,0.0,0.0,0.0,0.0,0.0,0.0,0.0,4.98939872834,-0.0236914563365,8.67913352812,0.0,0.0,0.0,0.0,0.0,0.0,0.0,0.0,0.0
28156000000,107,28156000000,imu_link,-0.000881729457938,-0.350382977644,0.000796861111688,0.936605763672,0.0,0.0,0.0,0.0,0.0,0.0,0.0,0.0,0.0,0.00480728541564,-0.206583600843,0.000143938107519,0.0,0.0,0.0,0.0,0.0,0.0,0.0,0.0,0.0,4.99588969486,-0.0230816898835,8.67782599763,0.0,0.0,0.0,0.0,0.0,0.0,0.0,0.0,0.0
28160000000,108,28160000000,imu_link,-0.000872326931537,-0.350768540599,0.00080077236752,0.936461440068,0.0,0.0,0.0,0.0,0.0,0.0,0.0,0.0,0.0,0.00487120210655,-0.205849998175,7.19316104933e-05,0.0,0.0,0.0,0.0,0.0,0.0,0.0,0.0,0.0,5.00122176386,-0.0224697420896,8.67529280955,0.0,0.0,0.0,0.0,0.0,0.0,0.0,0.0,0.0
28164000000,109,28164000000,imu_link,-0.000863544333265,-0.351152823993,0.000804376278699,0.936317414914,0.0,0.0,0.0,0.0,0.0,0.0,0.0,0.0,0.0,0.00452767175477,-0.205198142013,3.71876453049e-05,0.0,0.0,0.0,0.0,0.0,0.0,0.0,0.0,0.0,5.00610439495,-0.0224723160024,8.67626256739,0.0,0.0,0.0,0.0,0.0,0.0,0.0,0.0,0.0
28168000000,110,28168000000,imu_link,-0.000855428566235,-0.351535586937,0.000807664533396,0.936173780362,0.0,0.0,0.0,0.0,0.0,0.0,0.0,0.0,0.0,0.00416084719421,-0.204417345464,6.98954122891e-06,0.0,0.0,0.0,0.0,0.0,0.0,0.0,0.0,0.0,5.01342805786,-0.0229196390407,8.6739252333,0.0,0.0,0.0,0.0,0.0,0.0,0.0,0.0,0.0
28172000000,111,28172000000,imu_link,-0.000847218034357,-0.351916778792,0.00081077324049,0.936030558087,0.0,0.0,0.0,0.0,0.0,0.0,0.0,0.0,0.0,0.0041744574824,-0.203609435472,-9.32054684018e-05,0.0,0.0,0.0,0.0,0.0,0.0,0.0,0.0,0.0,5.02009768609,-0.023503733081,8.67241229298,0.0,0.0,0.0,0.0,0.0,0.0,0.0,0.0,0.0
28176000000,112,28176000000,imu_link,-0.000838278350139,-0.352296382511,0.00081384142401,0.935887757064,0.0,0.0,0.0,0.0,0.0,0.0,0.0,0.0,0.0,0.0045094037357,-0.202792318974,-0.000239969623965,0.0,0.0,0.0,0.0,0.0,0.0,0.0,0.0,0.0,5.02581456157,-0.023827661959,8.66996629799,0.0,0.0,0.0,0.0,0.0,0.0,0.0,0.0,0.0
28180000000,113,28180000000,imu_link,-0.000828425973765,-0.352674344615,0.000816955841793,0.935745399638,0.0,0.0,0.0,0.0,0.0,0.0,0.0,0.0,0.0,0.00494549049383,-0.201946386809,-0.000378596111454,0.0,0.0,0.0,0.0,0.0,0.0,0.0,0.0,0.0,5.03067113699,-0.0239076282105,8.66705286878,0.0,0.0,0.0,0.0,0.0,0.0,0.0,0.0,0.0
28184000000,114,28184000000,imu_link,-0.000817600102699,-0.353051197302,0.000820201752419,0.935603287127,0.0,0.0,0.0,0.0,0.0,0.0,0.0,0.0,0.0,0.0054247038152,-0.201384585527,-0.000488378017418,0.0,0.0,0.0,0.0,0.0,0.0,0.0,0.0,0.0,5.03584429823,-0.0238301951611,8.66892410121,0.0,0.0,0.0,0.0,0.0,0.0,0.0,0.0,0.0
28188000000,115,28188000000,imu_link,-0.000805504322789,-0.353427156594,0.000823687172491,0.935461339492,0.0,0.0,0.0,0.0,0.0,0.0,0.0,0.0,0.0,0.00606148264146,-0.20093816761,-0.000600208928484,0.0,0.0,0.0,0.0,0.0,0.0,0.0,0.0,0.0,5.04255152889,-0.0240686548866,8.66676221652,0.0,0.0,0.0,0.0,0.0,0.0,0.0,0.0,0.0
28192000000,116,28192000000,imu_link,-0.000792150516516,-0.353802601252,0.000827422046501,0.935319414541,0.0,0.0,0.0,0.0,0.0,0.0,0.0,0.0,0.0,0.00669420318717,-0.200694067161,-0.000705644091796,0.0,0.0,0.0,0.0,0.0,0.0,0.0,0.0,0.0,5.04948533762,-0.0236755214812,8.66645944589,0.0,0.0,0.0,0.0,0.0,0.0,0.0,0.0,0.0
28196000000,117,28196000000,imu_link,-0.00077777710868,-0.354177670669,0.000831362460594,0.935177459896,0.0,0.0,0.0,0.0,0.0,0.0,0.0,0.0,0.0,0.0072075335845,-0.200524338753,-0.000789729218216,0.0,0.0,0.0,0.0,0.0,0.0,0.0,0.0,0.0,5.05512298856,-0.0230113842738,8.66259849485,0.0,0.0,0.0,0.0,0.0,0.0,0.0,0.0,0.0
28200000000,118,28200000000,imu_link,-0.000762723404014,-0.354552334625,0.000835491270883,0.935035487144,0.0,0.0,0.0,0.0,0.0,0.0,0.0,0.0,0.0,0.00755915710651,-0.20033831175,-0.000821945049642,0.0,0.0,0.0,0.0,0.0,0.0,0.0,0.0,0.0,5.05945244704,-0.0224256418469,8.65691287563,0.0,0.0,0.0,0.0,0.0,0.0,0.0,0.0,0.0
28204000000,119,28204000000,imu_link,-0.000747110205293,-0.354927224352,0.000839901137416,0.934893256905,0.0,0.0,0.0,0.0,0.0,0.0,0.0,0.0,0.0,0.00787036259384,-0.200489851152,-0.000789709763601,0.0,0.0,0.0,0.0,0.0,0.0,0.0,0.0,0.0,5.06512554733,-0.0221147377403,8.6617814311,0.0,0.0,0.0,0.0,0.0,0.0,0.0,0.0,0.0
28208000000,120,28208000000,imu_link,-0.000730639916278,-0.35530255943,0.000844740672862,0.934750685392,0.0,0.0,0.0,0.0,0.0,0.0,0.0,0.0,0.0,0.00834694268942,-0.200759113034,-0.000740987860095,0.0,0.0,0.0,0.0,0.0,0.0,0.0,0.0,0.0,5.06874768583,-0.022115983715,8.65978181763,0.0,0.0,0.0,0.0,0.0,0.0,0.0,0.0,0.0
28212000000,121,28212000000,imu_link,-0.000713041524852,-0.355677808015,0.000850022797088,0.934607974457,0.0,0.0,0.0,0.0,0.0,0.0,0.0,0.0,0.0,0.00895280205121,-0.200744095109,-0.000734451128348,0.0,0.0,0.0,0.0,0.0,0.0,0.0,0.0,0.0,5.07179390735,-0.0224719818243,8.65128017152,0.0,0.0,0.0,0.0,0.0,0.0,0.0,0.0,0.0
28216000000,122,28216000000,imu_link,-0.000694680996338,-0.356052326971,0.000855590291152,0.93446536899,0.0,0.0,0.0,0.0,0.0,0.0,0.0,0.0,0.0,0.00936004934233,-0.20038480633,-0.000736418987293,0.0,0.0,0.0,0.0,0.0,0.0,0.0,0.0,0.0,5.07634298893,-0.0228131057345,8.64140719191,0.0,0.0,0.0,0.0,0.0,0.0,0.0,0.0,0.0
28220000000,123,28220000000,imu_link,-0.000676265602742,-0.356425403101,0.000861217506694,0.934323141634,0.0,0.0,0.0,0.0,0.0,0.0,0.0,0.0,0.0,0.00939706465305,-0.199643400766,-0.000717943181137,0.0,0.0,0.0,0.0,0.0,0.0,0.0,0.0,0.0,5.08077103711,-0.0229209839445,8.63317619772,0.0,0.0,0.0,0.0,0.0,0.0,0.0,0.0,0.0
28224000000,124,28224000000,imu_link,-0.000658522890247,-0.356796323391,0.000866735953667,0.934181566255,0.0,0.0,0.0,0.0,0.0,0.0,0.0,0.0,0.0,0.00906457869596,-0.198519757688,-0.000648427140316,0.0,0.0,0.0,0.0,0.0,0.0,0.0,0.0,0.0,5.08536717146,-0.0229725095823,8.62471097716,0.0,0.0,0.0,0.0,0.0,0.0,0.0,0.0,0.0
28228000000,125,28228000000,imu_link,-0.000642148625823,-0.357164405476,0.000872006357749,0.934040906337,0.0,0.0,0.0,0.0,0.0,0.0,0.0,0.0,0.0,0.00838267016828,-0.197030066871,-0.000519619277867,0.0,0.0,0.0,0.0,0.0,0.0,0.0,0.0,0.0,5.09023010306,-0.0231202433761,8.61662415319,0.0,0.0,0.0,0.0,0.0,0.0,0.0,0.0,0.0
28232000000,126,28232000000,imu_link,-0.000627011026116,-0.357529070772,0.000877066642852,0.933901387281,0.0,0.0,0.0,0.0,0.0,0.0,0.0,0.0,0.0,0.00776945491519,-0.195230011744,-0.000396303195403,0.0,0.0,0.0,0.0,0.0,0.0,0.0,0.0,0.0,5.09456287622,-0.0236197024012,8.60214692102,0.0,0.0,0.0,0.0,0.0,0.0,0.0,0.0,0.0
28236000000,127,28236000000,imu_link,-0.000612508971332,-0.357889551145,0.000882037605446,0.933763308352,0.0,0.0,0.0,0.0,0.0,0.0,0.0,0.0,0.0,0.00745900575483,-0.193018108444,-0.000323719051361,0.0,0.0,0.0,0.0,0.0,0.0,0.0,0.0,0.0,5.10005624669,-0.0242645768456,8.58904229174,0.0,0.0,0.0,0.0,0.0,0.0,0.0,0.0,0.0
28240000000,128,28240000000,imu_link,-0.000598088269153,-0.358244905551,0.000887056882749,0.933627036384,0.0,0.0,0.0,0.0,0.0,0.0,0.0,0.0,0.0,0.00743248340075,-0.190301520588,-0.00028583122662,0.0,0.0,0.0,0.0,0.0,0.0,0.0,0.0,0.0,5.10537810214,-0.0245123595038,8.57708151219,0.0,0.0,0.0,0.0,0.0,0.0,0.0,0.0,0.0
28244000000,129,28244000000,imu_link,-0.00058361866657,-0.358594330327,0.000892204646379,0.933492886752,0.0,0.0,0.0,0.0,0.0,0.0,0.0,0.0,0.0,0.00748159017454,-0.187153390191,-0.000233779323659,0.0,0.0,0.0,0.0,0.0,0.0,0.0,0.0,0.0,5.10798521204,-0.0240854867697,8.56066919695,0.0,0.0,0.0,0.0,0.0,0.0,0.0,0.0,0.0
28248000000,130,28248000000,imu_link,-0.000569375063562,-0.358937419483,0.00089746833818,0.933361023001,0.0,0.0,0.0,0.0,0.0,0.0,0.0,0.0,0.0,0.0074003846212,-0.183786342747,-0.000138320115529,0.0,0.0,0.0,0.0,0.0,0.0,0.0,0.0,0.0,5.11057425449,-0.0234896918753,8.54946597959,0.0,0.0,0.0,0.0,0.0,0.0,0.0,0.0,0.0
28252000000,131,28252000000,imu_link,-0.000555829862469,-0.359274271171,0.000902775950291,0.933231415097,0.0,0.0,0.0,0.0,0.0,0.0,0.0,0.0,0.0,0.00708577751724,-0.180470282187,8.281391772e-06,0.0,0.0,0.0,0.0,0.0,0.0,0.0,0.0,0.0,5.11076945627,-0.0228551951721,8.53471481952,0.0,0.0,0.0,0.0,0.0,0.0,0.0,0.0,0.0
28256000000,132,28256000000,imu_link,-0.000543357568519,-0.359604780161,0.000908044667635,0.933104111181,0.0,0.0,0.0,0.0,0.0,0.0,0.0,0.0,0.0,0.00658165852899,-0.177096302006,0.000183589197139,0.0,0.0,0.0,0.0,0.0,0.0,0.0,0.0,0.0,5.11104188058,-0.0229636122784,8.52123014511,0.0,0.0,0.0,0.0,0.0,0.0,0.0,0.0,0.0
28260000000,133,28260000000,imu_link,-0.000532470411779,-0.359928227875,0.000913158127123,0.932979396019,0.0,0.0,0.0,0.0,0.0,0.0,0.0,0.0,0.0,0.0058181029944,-0.173335622972,0.000396907843209,0.0,0.0,0.0,0.0,0.0,0.0,0.0,0.0,0.0,5.11340416645,-0.0234184636921,8.50832285756,0.0,0.0,0.0,0.0,0.0,0.0,0.0,0.0,0.0
28264000000,134,28264000000,imu_link,-0.000523384028869,-0.360243710491,0.000918095311971,0.932857626984,0.0,0.0,0.0,0.0,0.0,0.0,0.0,0.0,0.0,0.00495075843824,-0.169088919524,0.00063952766896,0.0,0.0,0.0,0.0,0.0,0.0,0.0,0.0,0.0,5.1149798702,-0.0242094702599,8.49347264593,0.0,0.0,0.0,0.0,0.0,0.0,0.0,0.0,0.0
28268000000,135,28268000000,imu_link,-0.000516207470845,-0.360550072566,0.000922833439036,0.932739259965,0.0,0.0,0.0,0.0,0.0,0.0,0.0,0.0,0.0,0.00402918340274,-0.164221129323,0.000891507681528,0.0,0.0,0.0,0.0,0.0,0.0,0.0,0.0,0.0,5.11838642793,-0.0249319341105,8.48340867655,0.0,0.0,0.0,0.0,0.0,0.0,0.0,0.0,0.0
28272000000,136,28272000000,imu_link,-0.000511106397463,-0.360846752767,0.00092722826288,0.932624522536,0.0,0.0,0.0,0.0,0.0,0.0,0.0,0.0,0.0,0.00300475552152,-0.159050426091,0.00110638373696,0.0,0.0,0.0,0.0,0.0,0.0,0.0,0.0,0.0,5.11899999421,-0.0254627694081,8.4666710351,0.0,0.0,0.0,0.0,0.0,0.0,0.0,0.0,0.0
28276000000,137,28276000000,imu_link,-0.000508108158528,-0.361133634583,0.000931144850362,0.932513470556,0.0,0.0,0.0,0.0,0.0,0.0,0.0,0.0,0.0,0.00194337745464,-0.153815279429,0.00126357213505,0.0,0.0,0.0,0.0,0.0,0.0,0.0,0.0,0.0,5.11989444059,-0.0259134077039,8.45453710339,0.0,0.0,0.0,0.0,0.0,0.0,0.0,0.0,0.0
28280000000,138,28280000000,imu_link,-0.000506923085291,-0.361410858736,0.000934554684131,0.932406060053,0.0,0.0,0.0,0.0,0.0,0.0,0.0,0.0,0.0,0.00101189525662,-0.148653825723,0.00135545055934,0.0,0.0,0.0,0.0,0.0,0.0,0.0,0.0,0.0,5.1232508961,-0.0265450184653,8.44430828948,0.0,0.0,0.0,0.0,0.0,0.0,0.0,0.0,0.0
28284000000,139,28284000000,imu_link,-0.000506995353326,-0.361678488448,0.000937594914495,0.932302276553,0.0,0.0,0.0,0.0,0.0,0.0,0.0,0.0,0.0,0.000364332144858,-0.143524767611,0.00141108573051,0.0,0.0,0.0,0.0,0.0,0.0,0.0,0.0,0.0,5.12673815637,-0.0268134833269,8.43208943062,0.0,0.0,0.0,0.0,0.0,0.0,0.0,0.0,0.0
28288000000,140,28288000000,imu_link,-0.000507832244479,-0.361936558973,0.000940380337403,0.932202115997,0.0,0.0,0.0,0.0,0.0,0.0,0.0,0.0,0.0,-3.27772652564e-05,-0.138413147183,0.0014313056131,0.0,0.0,0.0,0.0,0.0,0.0,0.0,0.0,0.0,5.12874041352,-0.0267682868623,8.41724486402,0.0,0.0,0.0,0.0,0.0,0.0,0.0,0.0,0.0
28292000000,141,28292000000,imu_link,-0.000509234945842,-0.362185339998,0.000942966160329,0.932105482757,0.0,0.0,0.0,0.0,0.0,0.0,0.0,0.0,0.0,-0.000327359804917,-0.133444651705,0.00144136579167,0.0,0.0,0.0,0.0,0.0,0.0,0.0,0.0,0.0,5.13046647957,-0.0264676070447,8.4047614909,0.0,0.0,0.0,0.0,0.0,0.0,0.0,0.0,0.0
28296000000,142,28296000000,imu_link,-0.000510962433383,-0.362425019675,0.000945422062201,0.932012312262,0.0,0.0,0.0,0.0,0.0,0.0,0.0,0.0,0.0,-0.000497082241945,-0.128575679612,0.00144031685682,0.0,0.0,0.0,0.0,0.0,0.0,0.0,0.0,0.0,5.13286956813,-0.0262156559396,8.39423656465,0.0,0.0,0.0,0.0,0.0,0.0,0.0,0.0,0.0
28300000000,143,28300000000,imu_link,-0.000512753116699,-0.362655828915,0.000947832061112,0.931922522774,0.0,0.0,0.0,0.0,0.0,0.0,0.0,0.0,0.0,-0.000529793115207,-0.123829278178,0.00143104564718,0.0,0.0,0.0,0.0,0.0,0.0,0.0,0.0,0.0,5.13556232981,-0.0259297917723,8.38381912378,0.0,0.0,0.0,0.0,0.0,0.0,0.0,0.0,0.0
28304000000,144,28304000000,imu_link,-0.000514490557215,-0.362877768826,0.000950224595315,0.931836121464,0.0,0.0,0.0,0.0,0.0,0.0,0.0,0.0,0.0,-0.000503078903424,-0.119082163572,0.00141392153568,0.0,0.0,0.0,0.0,0.0,0.0,0.0,0.0,0.0,5.13894386281,-0.0260030495793,8.37555565586,0.0,0.0,0.0,0.0,0.0,0.0,0.0,0.0,0.0
28308000000,145,28308000000,imu_link,-0.000516453307407,-0.363091220822,0.000952559925753,0.931752966868,0.0,0.0,0.0,0.0,0.0,0.0,0.0,0.0,0.0,-0.00061356582552,-0.114538288573,0.00142879012454,0.0,0.0,0.0,0.0,0.0,0.0,0.0,0.0,0.0,5.14400385717,-0.0260582480297,8.37094848348,0.0,0.0,0.0,0.0,0.0,0.0,0.0,0.0,0.0
28312000000,146,28312000000,imu_link,-0.000518970276014,-0.363296737761,0.000954765204647,0.931672849999,0.0,0.0,0.0,0.0,0.0,0.0,0.0,0.0,0.0,-0.000890809713077,-0.110289747781,0.00146942032191,0.0,0.0,0.0,0.0,0.0,0.0,0.0,0.0,0.0,5.14723245465,-0.0262011250491,8.36364538268,0.0,0.0,0.0,0.0,0.0,0.0,0.0,0.0,0.0
28316000000,147,28316000000,imu_link,-0.000522012503478,-0.363494363454,0.000956874731876,0.931595759775,0.0,0.0,0.0,0.0,0.0,0.0,0.0,0.0,0.0,-0.00114833504654,-0.106063657487,0.00152083091474,0.0,0.0,0.0,0.0,0.0,0.0,0.0,0.0,0.0,5.15039028659,-0.0263371953454,8.35475515277,0.0,0.0,0.0,0.0,0.0,0.0,0.0,0.0,0.0
28320000000,148,28320000000,imu_link,-0.000525213666085,-0.363683839242,0.000958956471832,0.931521803088,0.0,0.0,0.0,0.0,0.0,0.0,0.0,0.0,0.0,-0.00122269986524,-0.101697853364,0.00153740164964,0.0,0.0,0.0,0.0,0.0,0.0,0.0,0.0,0.0,5.15350590676,-0.026618990545,8.34565646881,0.0,0.0,0.0,0.0,0.0,0.0,0.0,0.0,0.0
28324000000,149,28324000000,imu_link,-0.000528111771854,-0.363864787459,0.000961123375156,0.931451133333,0.0,0.0,0.0,0.0,0.0,0.0,0.0,0.0,0.0,-0.00106110960843,-0.0971285102767,0.00152262236183,0.0,0.0,0.0,0.0,0.0,0.0,0.0,0.0,0.0,5.15649308906,-0.02683510611,8.33544764849,0.0,0.0,0.0,0.0,0.0,0.0,0.0,0.0,0.0
28328000000,150,28328000000,imu_link,-0.000530294191697,-0.364037108193,0.000963437132123,0.931383795455,0.0,0.0,0.0,0.0,0.0,0.0,0.0,0.0,0.0,-0.00069605309185,-0.092504676237,0.00146148636632,0.0,0.0,0.0,0.0,0.0,0.0,0.0,0.0,0.0,5.16114883937,-0.0270447309964,8.32635446564,0.0,0.0,0.0,0.0,0.0,0.0,0.0,0.0,0.0
28332000000,151,28332000000,imu_link,-0.000531724778751,-0.364200902649,0.000965906508803,0.931319755403,0.0,0.0,0.0,0.0,0.0,0.0,0.0,0.0,0.0,-0.00031262329644,-0.0879341956351,0.00139778177879,0.0,0.0,0.0,0.0,0.0,0.0,0.0,0.0,0.0,5.16509613213,-0.0267219241023,8.31714509046,0.0,0.0,0.0,0.0,0.0,0.0,0.0,0.0,0.0
28336000000,152,28336000000,imu_link,-0.000532650420953,-0.364356383567,0.000968474139578,0.931258935042,0.0,0.0,0.0,0.0,0.0,0.0,0.0,0.0,0.0,-5.47275741932e-05,-0.0834768773375,0.00135223937689,0.0,0.0,0.0,0.0,0.0,0.0,0.0,0.0,0.0,5.16942222576,-0.0260330958495,8.31108977673,0.0,0.0,0.0,0.0,0.0,0.0,0.0,0.0,0.0
28340000000,153,28340000000,imu_link,-0.000533271794456,-0.364503605378,0.000971106543858,0.931201317782,0.0,0.0,0.0,0.0,0.0,0.0,0.0,0.0,0.0,0.000103601652527,-0.0790478229636,0.00132761725393,0.0,0.0,0.0,0.0,0.0,0.0,0.0,0.0,0.0,5.17374724264,-0.0255321277075,8.30343844884,0.0,0.0,0.0,0.0,0.0,0.0,0.0,0.0,0.0
28344000000,154,28344000000,imu_link,-0.00053385018753,-0.364643054421,0.000973742688482,0.931146717597,0.0,0.0,0.0,0.0,0.0,0.0,0.0,0.0,0.0,0.00012887360639,-0.0748789713819,0.00132213304739,0.0,0.0,0.0,0.0,0.0,0.0,0.0,0.0,0.0,5.17963140061,-0.0251597465087,8.30173659224,0.0,0.0,0.0,0.0,0.0,0.0,0.0,0.0,0.0
28348000000,155,28348000000,imu_link,-0.000534353084581,-0.364775269865,0.000976383251784,0.931094927296,0.0,0.0,0.0,0.0,0.0,0.0,0.0,0.0,0.0,0.000169100024472,-0.0709989357617,0.00131098849068,0.0,0.0,0.0,0.0,0.0,0.0,0.0,0.0,0.0,5.18565365409,-0.0250690237868,8.30081865839,0.0,0.0,0.0,0.0,0.0,0.0,0.0,0.0,0.0
28352000000,156,28352000000,imu_link,-0.000534560862486,-0.364900446634,0.000979061259652,0.931045874127,0.0,0.0,0.0,0.0,0.0,0.0,0.0,0.0,0.0,0.000317488941045,-0.0672230335477,0.00127513895274,0.0,0.0,0.0,0.0,0.0,0.0,0.0,0.0,0.0,5.18993225917,-0.0252715329347,8.29241011549,0.0,0.0,0.0,0.0,0.0,0.0,0.0,0.0,0.0
28356000000,157,28356000000,imu_link,-0.000534417548428,-0.365018946313,0.000981811983527,0.930999419589,0.0,0.0,0.0,0.0,0.0,0.0,0.0,0.0,0.0,0.000498160559418,-0.0636407651824,0.00124544565963,0.0,0.0,0.0,0.0,0.0,0.0,0.0,0.0,0.0,5.19512189858,-0.0255773695161,8.28626734052,0.0,0.0,0.0,0.0,0.0,0.0,0.0,0.0,0.0
28360000000,158,28360000000,imu_link,-0.000534364780539,-0.365131269948,0.000984560477098,0.93095536993,0.0,0.0,0.0,0.0,0.0,0.0,0.0,0.0,0.0,0.000459278752691,-0.0603268605749,0.00126140270999,0.0,0.0,0.0,0.0,0.0,0.0,0.0,0.0,0.0,5.20124266808,-0.025620849709,8.28530780392,0.0,0.0,0.0,0.0,0.0,0.0,0.0,0.0,0.0
28364000000,159,28364000000,imu_link,-0.00053502308198,-0.365238013336,0.000987184560472,0.930913493742,0.0,0.0,0.0,0.0,0.0,0.0,0.0,0.0,0.0,0.000108906577442,-0.0573321949699,0.00133373034946,0.0,0.0,0.0,0.0,0.0,0.0,0.0,0.0,0.0,5.2075555213,-0.0255206548231,8.28597926757,0.0,0.0,0.0,0.0,0.0,0.0,0.0,0.0,0.0
28368000000,160,28368000000,imu_link,-0.00053673538539,-0.365339762043,0.000989563638567,0.930873563353,0.0,0.0,0.0,0.0,0.0,0.0,0.0,0.0,0.0,-0.00042344251547,-0.0546514619524,0.00141254748566,0.0,0.0,0.0,0.0,0.0,0.0,0.0,0.0,0.0,5.21346631892,-0.0255424501924,8.28522110792,0.0,0.0,0.0,0.0,0.0,0.0,0.0,0.0,0.0
28372000000,161,28372000000,imu_link,-0.000539163311977,-0.365436910962,0.000991720113055,0.930835425787,0.0,0.0,0.0,0.0,0.0,0.0,0.0,0.0,0.0,-0.000794425812349,-0.0521826426236,0.00144000975686,0.0,0.0,0.0,0.0,0.0,0.0,0.0,0.0,0.0,5.21836122357,-0.025806284886,8.27866382734,0.0,0.0,0.0,0.0,0.0,0.0,0.0,0.0,0.0
28376000000,162,28376000000,imu_link,-0.000541707761414,-0.365529779014,0.000993762793955,0.930798957693,0.0,0.0,0.0,0.0,0.0,0.0,0.0,0.0,0.0,-0.000866877029446,-0.0498851192878,0.00140866529882,0.0,0.0,0.0,0.0,0.0,0.0,0.0,0.0,0.0,5.22538605151,-0.0260772612413,8.27649370893,0.0,0.0,0.0,0.0,0.0,0.0,0.0,0.0,0.0
28380000000,163,28380000000,imu_link,-0.000544166578818,-0.365618539877,0.000995762205037,0.930764092366,0.0,0.0,0.0,0.0,0.0,0.0,0.0,0.0,0.0,-0.000832457227507,-0.0476807369699,0.00137319308115,0.0,0.0,0.0,0.0,0.0,0.0,0.0,0.0,0.0,5.23088686272,-0.026038796584,8.27038573024,0.0,0.0,0.0,0.0,0.0,0.0,0.0,0.0,0.0
28384000000,164,28384000000,imu_link,-0.000546542671324,-0.365703432341,0.000997751883882,0.930730737301,0.0,0.0,0.0,0.0,0.0,0.0,0.0,0.0,0.0,-0.000793400768155,-0.0456044023599,0.00135384158979,0.0,0.0,0.0,0.0,0.0,0.0,0.0,0.0,0.0,5.2357923607,-0.0257058889423,8.26376773329,0.0,0.0,0.0,0.0,0.0,0.0,0.0,0.0,0.0
28388000000,165,28388000000,imu_link,-0.000549172451463,-0.36578446976,0.000999661227477,0.930698888346,0.0,0.0,0.0,0.0,0.0,0.0,0.0,0.0,0.0,-0.000923812879194,-0.043534854381,0.00136314567639,0.0,0.0,0.0,0.0,0.0,0.0,0.0,0.0,0.0,5.24127317945,-0.0253804135586,8.25690250499,0.0,0.0,0.0,0.0,0.0,0.0,0.0,0.0,0.0
28392000000,166,28392000000,imu_link,-0.000552094033392,-0.36586148537,0.00100147166361,0.930668612219,0.0,0.0,0.0,0.0,0.0,0.0,0.0,0.0,0.0,-0.00107524998707,-0.0413754768252,0.00137080561154,0.0,0.0,0.0,0.0,0.0,0.0,0.0,0.0,0.0,5.24596003269,-0.0251712839946,8.24665425843,0.0,0.0,0.0,0.0,0.0,0.0,0.0,0.0,0.0
28396000000,167,28396000000,imu_link,-0.000555122922508,-0.365934238791,0.00100318120788,0.930640004699,0.0,0.0,0.0,0.0,0.0,0.0,0.0,0.0,0.0,-0.00114104508149,-0.0390868130669,0.00134382798007,0.0,0.0,0.0,0.0,0.0,0.0,0.0,0.0,0.0,5.25084059462,-0.0251902288522,8.23667460836,0.0,0.0,0.0,0.0,0.0,0.0,0.0,0.0,0.0
28400000000,168,28400000000,imu_link,-0.000557896550907,-0.366002508757,0.00100482866152,0.930613154138,0.0,0.0,0.0,0.0,0.0,0.0,0.0,0.0,0.0,-0.00103089118319,-0.0366792164374,0.00126859481134,0.0,0.0,0.0,0.0,0.0,0.0,0.0,0.0,0.0,5.25750696427,-0.0252661262337,8.23057120945,0.0,0.0,0.0,0.0,0.0,0.0,0.0,0.0,0.0
28404000000,169,28404000000,imu_link,-0.000560248928322,-0.366066348118,0.00100645976667,0.930588040937,0.0,0.0,0.0,0.0,0.0,0.0,0.0,0.0,0.0,-0.000835161489815,-0.0342998949635,0.00118426132829,0.0,0.0,0.0,0.0,0.0,0.0,0.0,0.0,0.0,5.26387347711,-0.0253992951518,8.22595782699,0.0,0.0,0.0,0.0,0.0,0.0,0.0,0.0,0.0
28408000000,170,28408000000,imu_link,-0.000562418514811,-0.366125696174,0.00100805430306,0.930564689913,0.0,0.0,0.0,0.0,0.0,0.0,0.0,0.0,0.0,-0.000754049473925,-0.031887662704,0.00113416064084,0.0,0.0,0.0,0.0,0.0,0.0,0.0,0.0,0.0,5.26970223083,-0.0253881017499,8.21994525806,0.0,0.0,0.0,0.0,0.0,0.0,0.0,0.0,0.0
28412000000,171,28412000000,imu_link,-0.000564929602089,-0.366180503275,0.00100954571246,0.930543121351,0.0,0.0,0.0,0.0,0.0,0.0,0.0,0.0,0.0,-0.000929032471747,-0.0294483325381,0.00114907213339,0.0,0.0,0.0,0.0,0.0,0.0,0.0,0.0,0.0,5.27483723524,-0.0253268954271,8.21219090671,0.0,0.0,0.0,0.0,0.0,0.0,0.0,0.0,0.0
28416000000,172,28416000000,imu_link,-0.00056820629992,-0.366230689033,0.00101087667091,0.930523367616,0.0,0.0,0.0,0.0,0.0,0.0,0.0,0.0,0.0,-0.00131178094221,-0.0269654443681,0.00121498398394,0.0,0.0,0.0,0.0,0.0,0.0,0.0,0.0,0.0,5.28023514878,-0.0253060322272,8.2050170272,0.0,0.0,0.0,0.0,0.0,0.0,0.0,0.0,0.0
28420000000,173,28420000000,imu_link,-0.000572288207725,-0.366276256018,0.0010120568773,0.930505428519,0.0,0.0,0.0,0.0,0.0,0.0,0.0,0.0,0.0,-0.00171116925593,-0.0244837683699,0.00129268615106,0.0,0.0,0.0,0.0,0.0,0.0,0.0,0.0,0.0,5.28617509988,-0.0254293456556,8.19824980615,0.0,0.0,0.0,0.0,0.0,0.0,0.0,0.0,0.0
28424000000,174,28424000000,imu_link,-0.00057696443293,-0.366317230543,0.00101316160203,0.930489294523,0.0,0.0,0.0,0.0,0.0,0.0,0.0,0.0,0.0,-0.00199866017537,-0.0220162085708,0.00136681095156,0.0,0.0,0.0,0.0,0.0,0.0,0.0,0.0,0.0,5.29304665926,-0.0253841067309,8.19474275765,0.0,0.0,0.0,0.0,0.0,0.0,0.0,0.0,0.0
28428000000,175,28428000000,imu_link,-0.000581769223491,-0.366353915147,0.00101432999646,0.930474847342,0.0,0.0,0.0,0.0,0.0,0.0,0.0,0.0,0.0,-0.00204415305595,-0.0197113443446,0.00142036385178,0.0,0.0,0.0,0.0,0.0,0.0,0.0,0.0,0.0,5.3000949322,-0.0253043326383,8.19438959047,0.0,0.0,0.0,0.0,0.0,0.0,0.0,0.0,0.0
28432000000,176,28432000000,imu_link,-0.000586333974616,-0.366386720186,0.00101564372069,0.930461926116,0.0,0.0,0.0,0.0,0.0,0.0,0.0,0.0,0.0,-0.0019034451993,-0.0176270698389,0.00144436161406,0.0,0.0,0.0,0.0,0.0,0.0,0.0,0.0,0.0,5.30629883791,-0.0251716088699,8.19269618994,0.0,0.0,0.0,0.0,0.0,0.0,0.0,0.0,0.0
28436000000,177,28436000000,imu_link,-0.000590625607086,-0.366416075673,0.00101710599702,0.930450362,0.0,0.0,0.0,0.0,0.0,0.0,0.0,0.0,0.0,-0.0017470185697,-0.0157737999876,0.00146376124786,0.0,0.0,0.0,0.0,0.0,0.0,0.0,0.0,0.0,5.31294074189,-0.0250355365764,8.19233830018,0.0,0.0,0.0,0.0,0.0,0.0,0.0,0.0,0.0
28440000000,178,28440000000,imu_link,-0.000595102581509,-0.366442340813,0.00101861834623,0.930440013719,0.0,0.0,0.0,0.0,0.0,0.0,0.0,0.0,0.0,-0.00182213990091,-0.0141132625964,0.00152130685272,0.0,0.0,0.0,0.0,0.0,0.0,0.0,0.0,0.0,5.31943068597,-0.0248388517034,8.19086262408,0.0,0.0,0.0,0.0,0.0,0.0,0.0,0.0,0.0
28444000000,179,28444000000,imu_link,-0.000600176471962,-0.366465719342,0.00102008027392,0.930430801173,0.0,0.0,0.0,0.0,0.0,0.0,0.0,0.0,0.0,-0.00210726735413,-0.0125619435685,0.00160749787886,0.0,0.0,0.0,0.0,0.0,0.0,0.0,0.0,0.0,5.32572298706,-0.0248405723313,8.18761877892,0.0,0.0,0.0,0.0,0.0,0.0,0.0,0.0,0.0
28448000000,180,28448000000,imu_link,-0.000605702367089,-0.366486339576,0.00102150775595,0.930422674138,0.0,0.0,0.0,0.0,0.0,0.0,0.0,0.0,0.0,-0.00232212587498,-0.0110796002172,0.00167456941824,0.0,0.0,0.0,0.0,0.0,0.0,0.0,0.0,0.0,5.33219026236,-0.0250469585239,8.1835338284,0.0,0.0,0.0,0.0,0.0,0.0,0.0,0.0,0.0
28452000000,181,28452000000,imu_link,-0.000611003276842,-0.366504222425,0.00102305630271,0.930415624856,0.0,0.0,0.0,0.0,0.0,0.0,0.0,0.0,0.0,-0.00219355131569,-0.00960879852509,0.00168994162061,0.0,0.0,0.0,0.0,0.0,0.0,0.0,0.0,0.0,5.33807713651,-0.0252873129381,8.17757803818,0.0,0.0,0.0,0.0,0.0,0.0,0.0,0.0,0.0
28456000000,182,28456000000,imu_link,-0.000615454633021,-0.366519148345,0.00102488759119,0.930409740231,0.0,0.0,0.0,0.0,0.0,0.0,0.0,0.0,0.0,-0.00174465098215,-0.00802030710158,0.00166610038192,0.0,0.0,0.0,0.0,0.0,0.0,0.0,0.0,0.0,5.34470228105,-0.0253909913291,8.1723663287,0.0,0.0,0.0,0.0,0.0,0.0,0.0,0.0,0.0
28460000000,183,28460000000,imu_link,-0.000618858928665,-0.36653086873,0.00102702765988,0.930405118481,0.0,0.0,0.0,0.0,0.0,0.0,0.0,0.0,0.0,-0.00119893511296,-0.00629827408373,0.00161820185283,0.0,0.0,0.0,0.0,0.0,0.0,0.0,0.0,0.0,5.3510725681,-0.0253079979851,8.16648177636,0.0,0.0,0.0,0.0,0.0,0.0,0.0,0.0,0.0
28464000000,184,28464000000,imu_link,-0.000621554441584,-0.366539656379,0.0010293661185,0.930401652179,0.0,0.0,0.0,0.0,0.0,0.0,0.0,0.0,0.0,-0.000830986028912,-0.00472262949477,0.00158091211757,0.0,0.0,0.0,0.0,0.0,0.0,0.0,0.0,0.0,5.35731377477,-0.025109265413,8.16320325385,0.0,0.0,0.0,0.0,0.0,0.0,0.0,0.0,0.0
28468000000,185,28468000000,imu_link,-0.000623905372561,-0.36654640103,0.00103177362988,0.930398990798,0.0,0.0,0.0,0.0,0.0,0.0,0.0,0.0,0.0,-0.000656729290091,-0.00362490623976,0.0015501046823,0.0,0.0,0.0,0.0,0.0,0.0,0.0,0.0,0.0,5.36502511976,-0.0249365405509,8.16728796153,0.0,0.0,0.0,0.0,0.0,0.0,0.0,0.0,0.0
28472000000,186,28472000000,imu_link,-0.000626140765551,-0.366552102941,0.00103415613108,0.930396740266,0.0,0.0,0.0,0.0,0.0,0.0,0.0,0.0,0.0,-0.000606898669869,-0.0030645784301,0.00151740827855,0.0,0.0,0.0,0.0,0.0,0.0,0.0,0.0,0.0,5.37178238289,-0.0247355419945,8.16959999934,0.0,0.0,0.0,0.0,0.0,0.0,0.0,0.0,0.0
28476000000,187,28476000000,imu_link,-0.000628371604869,-0.366557318325,0.0010364739755,0.930394681441,0.0,0.0,0.0,0.0,0.0,0.0,0.0,0.0,0.0,-0.000616318759764,-0.00280309392298,0.00148654865961,0.0,0.0,0.0,0.0,0.0,0.0,0.0,0.0,0.0,5.37827369857,-0.0244934282809,8.16842698945,0.0,0.0,0.0,0.0,0.0,0.0,0.0,0.0,0.0
28480000000,188,28480000000,imu_link,-0.000630690428178,-0.366561975095,0.00103872080106,0.930392842676,0.0,0.0,0.0,0.0,0.0,0.0,0.0,0.0,0.0,-0.000669906284835,-0.0025028272036,0.00146969792819,0.0,0.0,0.0,0.0,0.0,0.0,0.0,0.0,0.0,5.38444666193,-0.0243396513611,8.16254829761,0.0,0.0,0.0,0.0,0.0,0.0,0.0,0.0,0.0
28484000000,189,28484000000,imu_link,-0.000633014342906,-0.366565749282,0.00104093102366,0.930391351641,0.0,0.0,0.0,0.0,0.0,0.0,0.0,0.0,0.0,-0.0006784153896,-0.00202850698672,0.00145370124015,0.0,0.0,0.0,0.0,0.0,0.0,0.0,0.0,0.0,5.39009185057,-0.0242485738673,8.15354687724,0.0,0.0,0.0,0.0,0.0,0.0,0.0,0.0,0.0
28488000000,190,28488000000,imu_link,-0.000635187260225,-0.366568417216,0.00104311634994,0.930390296566,0.0,0.0,0.0,0.0,0.0,0.0,0.0,0.0,0.0,-0.000612021363725,-0.00143404908164,0.0014145675788,0.0,0.0,0.0,0.0,0.0,0.0,0.0,0.0,0.0,5.39619342715,-0.0242249940763,8.14662525455,0.0,0.0,0.0,0.0,0.0,0.0,0.0,0.0,0.0
28492000000,191,28492000000,imu_link,-0.000637088038292,-0.366569920532,0.00104526245543,0.930389700559,0.0,0.0,0.0,0.0,0.0,0.0,0.0,0.0,0.0,-0.000491858843611,-0.000808264007679,0.00134657387346,0.0,0.0,0.0,0.0,0.0,0.0,0.0,0.0,0.0,5.40147907123,-0.0242237745708,8.13853942623,0.0,0.0,0.0,0.0,0.0,0.0,0.0,0.0,0.0
28496000000,192,28496000000,imu_link,-0.000638844669716,-0.366570368777,0.00104731074653,0.930389520444,0.0,0.0,0.0,0.0,0.0,0.0,0.0,0.0,0.0,-0.000442046579874,-0.00024126836205,0.00127476994269,0.0,0.0,0.0,0.0,0.0,0.0,0.0,0.0,0.0,5.40718017397,-0.0242367714778,8.13296546196,0.0,0.0,0.0,0.0,0.0,0.0,0.0,0.0,0.0
28500000000,193,28500000000,imu_link,-0.000640612278269,-0.366569667294,0.00104923947369,0.930389793437,0.0,0.0,0.0,0.0,0.0,0.0,0.0,0.0,0.0,-0.000468320589128,0.000376671344478,0.00122129134149,0.0,0.0,0.0,0.0,0.0,0.0,0.0,0.0,0.0,5.41278880876,-0.0242293627933,8.12620441692,0.0,0.0,0.0,0.0,0.0,0.0,0.0,0.0,0.0
28504000000,194,28504000000,imu_link,-0.000642546955455,-0.366567658976,0.00105104376752,0.930390581333,0.0,0.0,0.0,0.0,0.0,0.0,0.0,0.0,0.0,-0.000567996287783,0.00107910558822,0.00119417520072,0.0,0.0,0.0,0.0,0.0,0.0,0.0,0.0,0.0,5.41794137698,-0.0242255995431,8.11781046086,0.0,0.0,0.0,0.0,0.0,0.0,0.0,0.0,0.0
28508000000,195,28508000000,imu_link,-0.000644689914022,-0.366564009291,0.00105273032388,0.930392015887,0.0,0.0,0.0,0.0,0.0,0.0,0.0,0.0,0.0,-0.000685396850869,0.00196133158366,0.00117776638695,0.0,0.0,0.0,0.0,0.0,0.0,0.0,0.0,0.0,5.42352505644,-0.0242532458495,8.10955647215,0.0,0.0,0.0,0.0,0.0,0.0,0.0,0.0,0.0
28512000000,196,28512000000,imu_link,-0.000646886967826,-0.366558476609,0.00105435982576,0.930394192312,0.0,0.0,0.0,0.0,0.0,0.0,0.0,0.0,0.0,-0.0007197885176,0.00297331219421,0.00116135603184,0.0,0.0,0.0,0.0,0.0,0.0,0.0,0.0,0.0,5.42864226589,-0.0243204317062,8.1004637203,0.0,0.0,0.0,0.0,0.0,0.0,0.0,0.0,0.0
28516000000,197,28516000000,imu_link,-0.000648955926188,-0.366551212291,0.00105603364114,0.93039705095,0.0,0.0,0.0,0.0,0.0,0.0,0.0,0.0,0.0,-0.000650943603473,0.00390381805498,0.00115869374646,0.0,0.0,0.0,0.0,0.0,0.0,0.0,0.0,0.0,5.43424969252,-0.0243230639974,8.09539962694,0.0,0.0,0.0,0.0,0.0,0.0,0.0,0.0,0.0
28520000000,198,28520000000,imu_link,-0.000650878636666,-0.366542541039,0.00105777842748,0.930400463817,0.0,0.0,0.0,0.0,0.0,0.0,0.0,0.0,0.0,-0.000568979338401,0.00465979793937,0.00116506954001,0.0,0.0,0.0,0.0,0.0,0.0,0.0,0.0,0.0,5.44014170337,-0.0242355737015,8.09258176571,0.0,0.0,0.0,0.0,0.0,0.0,0.0,0.0,0.0
28524000000,199,28524000000,imu_link,-0.000652599501756,-0.3665327287,0.0010596114461,0.930404326156,0.0,0.0,0.0,0.0,0.0,0.0,0.0,0.0,0.0,-0.000458160591923,0.00527287171013,0.00116925638736,0.0,0.0,0.0,0.0,0.0,0.0,0.0,0.0,0.0,5.44606187417,-0.0241567396973,8.08960376886,0.0,0.0,0.0,0.0,0.0,0.0,0.0,0.0,0.0
28528000000,200,28528000000,imu_link,-0.000653799796116,-0.366522004628,0.00106159912189,0.930408547723,0.0,0.0,0.0,0.0,0.0,0.0,0.0,0.0,0.0,-0.000187046245008,0.00576252001454,0.00114590731417,0.0,0.0,0.0,0.0,0.0,0.0,0.0,0.0,0.0,5.45344881396,-0.0241406367289,8.09032108689,0.0,0.0,0.0,0.0,0.0,0.0,0.0,0.0,0.0
28532000000,201,28532000000,imu_link,-0.000654165380246,-0.36651038166,0.00106379393405,0.930413123589,0.0,0.0,0.0,0.0,0.0,0.0,0.0,0.0,0.0,0.000239817493265,0.00624510885839,0.00108940399142,0.0,0.0,0.0,0.0,0.0,0.0,0.0,0.0,0.0,5.45876838403,-0.0240710419981,8.0837195848,0.0,0.0,0.0,0.0,0.0,0.0,0.0,0.0,0.0
28536000000,202,28536000000,imu_link,-0.000653479847577,-0.366497931129,0.00106625699987,0.930418025695,0.0,0.0,0.0,0.0,0.0,0.0,0.0,0.0,0.0,0.000778509685891,0.00668923445881,0.00102167189904,0.0,0.0,0.0,0.0,0.0,0.0,0.0,0.0,0.0,5.46461738604,-0.0239720655315,8.07878977143,0.0,0.0,0.0,0.0,0.0,0.0,0.0,0.0,0.0
28540000000,203,28540000000,imu_link,-0.000652007524313,-0.366484840369,0.00106892495863,0.930423180099,0.0,0.0,0.0,0.0,0.0,0.0,0.0,0.0,0.0,0.00118250194186,0.00703282210435,0.000972886059217,0.0,0.0,0.0,0.0,0.0,0.0,0.0,0.0,0.0,5.47079122394,-0.0237733081187,8.07606992674,0.0,0.0,0.0,0.0,0.0,0.0,0.0,0.0,0.0
28544000000,204,28544000000,imu_link,-0.000650437891221,-0.366471360177,0.00107168030559,0.930428487634,0.0,0.0,0.0,0.0,0.0,0.0,0.0,0.0,0.0,0.00124404288536,0.00724197017837,0.000995753887491,0.0,0.0,0.0,0.0,0.0,0.0,0.0,0.0,0.0,5.47787667819,-0.0235761103712,8.07662349991,0.0,0.0,0.0,0.0,0.0,0.0,0.0,0.0,0.0
28548000000,205,28548000000,imu_link,-0.000649427628797,-0.366457545958,0.00107440567173,0.930433926137,0.0,0.0,0.0,0.0,0.0,0.0,0.0,0.0,0.0,0.000978543706465,0.00742167173472,0.00108434150654,0.0,0.0,0.0,0.0,0.0,0.0,0.0,0.0,0.0,5.48432309913,-0.0234839794212,8.07401655532,0.0,0.0,0.0,0.0,0.0,0.0,0.0,0.0,0.0
28552000000,206,28552000000,imu_link,-0.000649311214226,-0.366443228854,0.00107702463977,0.930439561949,0.0,0.0,0.0,0.0,0.0,0.0,0.0,0.0,0.0,0.000543549547547,0.0076922896718,0.00119867924385,0.0,0.0,0.0,0.0,0.0,0.0,0.0,0.0,0.0,5.48938144113,-0.0235404598911,8.06608766046,0.0,0.0,0.0,0.0,0.0,0.0,0.0,0.0,0.0
28556000000,207,28556000000,imu_link,-0.000650123899152,-0.366428206422,0.00107949822045,0.930445474792,0.0,0.0,0.0,0.0,0.0,0.0,0.0,0.0,0.0,8.51457443314e-05,0.00807172722835,0.00130135308479,0.0,0.0,0.0,0.0,0.0,0.0,0.0,0.0,0.0,5.49471344795,-0.0236922437345,8.05858462804,0.0,0.0,0.0,0.0,0.0,0.0,0.0,0.0,0.0
28560000000,208,28560000000,imu_link,-0.000651759627934,-0.366412384758,0.00108182326258,0.930451701682,0.0,0.0,0.0,0.0,0.0,0.0,0.0,0.0,0.0,-0.000324433858319,0.0085015793282,0.00138313310935,0.0,0.0,0.0,0.0,0.0,0.0,0.0,0.0,0.0,5.50061130924,-0.0238563038776,8.05374382102,0.0,0.0,0.0,0.0,0.0,0.0,0.0,0.0,0.0
28564000000,209,28564000000,imu_link,-0.00065401474794,-0.366395715794,0.00108404936489,0.930458261584,0.0,0.0,0.0,0.0,0.0,0.0,0.0,0.0,0.0,-0.000630150219625,0.0089571418882,0.00145067604297,0.0,0.0,0.0,0.0,0.0,0.0,0.0,0.0,0.0,5.50646028924,-0.0239935953307,8.04931061858,0.0,0.0,0.0,0.0,0.0,0.0,0.0,0.0,0.0
28568000000,210,28568000000,imu_link,-0.000656586986328,-0.366378285343,0.00108626908465,0.930465120755,0.0,0.0,0.0,0.0,0.0,0.0,0.0,0.0,0.0,-0.000778341590349,0.00936640742682,0.00150588890214,0.0,0.0,0.0,0.0,0.0,0.0,0.0,0.0,0.0,5.51271998734,-0.0240973282935,8.04686892438,0.0,0.0,0.0,0.0,0.0,0.0,0.0,0.0,0.0
28572000000,211,28572000000,imu_link,-0.000659018004441,-0.366360335218,0.00108860095019,0.930472184121,0.0,0.0,0.0,0.0,0.0,0.0,0.0,0.0,0.0,-0.000691748142353,0.00964546923483,0.00153225245147,0.0,0.0,0.0,0.0,0.0,0.0,0.0,0.0,0.0,5.5181691868,-0.0241978767232,8.0429964356,0.0,0.0,0.0,0.0,0.0,0.0,0.0,0.0,0.0
28576000000,212,28576000000,imu_link,-0.000660763802533,-0.366341995407,0.00109114353453,0.930479400738,0.0,0.0,0.0,0.0,0.0,0.0,0.0,0.0,0.0,-0.000334096947539,0.00985439562375,0.00150481271467,0.0,0.0,0.0,0.0,0.0,0.0,0.0,0.0,0.0,5.52404314189,-0.0242577469819,8.03975332681,0.0,0.0,0.0,0.0,0.0,0.0,0.0,0.0,0.0
28580000000,213,28580000000,imu_link,-0.000661585993008,-0.366323300329,0.00109389567031,0.930486757204,0.0,0.0,0.0,0.0,0.0,0.0,0.0,0.0,0.0,0.000134225756337,0.0100447233538,0.00143316731059,0.0,0.0,0.0,0.0,0.0,0.0,0.0,0.0,0.0,5.52980138883,-0.0241802623062,8.03548697068,0.0,0.0,0.0,0.0,0.0,0.0,0.0,0.0,0.0
28584000000,214,28584000000,imu_link,-0.00066154721704,-0.366304179879,0.00109682891093,0.930494281081,0.0,0.0,0.0,0.0,0.0,0.0,0.0,0.0,0.0,0.000568244190274,0.0102727567049,0.00135977825226,0.0,0.0,0.0,0.0,0.0,0.0,0.0,0.0,0.0,5.53540743993,-0.0240270166916,8.03044029352,0.0,0.0,0.0,0.0,0.0,0.0,0.0,0.0,0.0
28588000000,215,28588000000,imu_link,-0.000660906482606,-0.366284552237,0.0010999107325,0.9305020044,0.0,0.0,0.0,0.0,0.0,0.0,0.0,0.0,0.0,0.000875860676201,0.0105448755057,0.00131871354571,0.0,0.0,0.0,0.0,0.0,0.0,0.0,0.0,0.0,5.54084076705,-0.023877899666,8.02530008535,0.0,0.0,0.0,0.0,0.0,0.0,0.0,0.0,0.0
28592000000,216,28592000000,imu_link,-0.000659831768647,-0.366264414547,0.00110310529892,0.930509928167,0.0,0.0,0.0,0.0,0.0,0.0,0.0,0.0,0.0,0.00109876517821,0.0108186106167,0.00129174651727,0.0,0.0,0.0,0.0,0.0,0.0,0.0,0.0,0.0,5.54509749565,-0.0237682300362,8.01767823796,0.0,0.0,0.0,0.0,0.0,0.0,0.0,0.0,0.0
28596000000,217,28596000000,imu_link,-0.000658387193194,-0.366244023,0.00110633378265,0.930517951556,0.0,0.0,0.0,0.0,0.0,0.0,0.0,0.0,0.0,0.00127722930696,0.0109547474878,0.00123982196273,0.0,0.0,0.0,0.0,0.0,0.0,0.0,0.0,0.0,5.55087035695,-0.0237066943772,8.01583740115,0.0,0.0,0.0,0.0,0.0,0.0,0.0,0.0,0.0
28600000000,218,28600000000,imu_link,-0.000656449012374,-0.366223765943,0.00110954068175,0.93052592186,0.0,0.0,0.0,0.0,0.0,0.0,0.0,0.0,0.0,0.00150283914514,0.0108821879863,0.00113937460838,0.0,0.0,0.0,0.0,0.0,0.0,0.0,0.0,0.0,5.5578685812,-0.0236877241518,8.01797949293,0.0,0.0,0.0,0.0,0.0,0.0,0.0,0.0,0.0
28604000000,219,28604000000,imu_link,-0.000653611468988,-0.366204091132,0.00111274302846,0.930533663138,0.0,0.0,0.0,0.0,0.0,0.0,0.0,0.0,0.0,0.00192004745264,0.01056885558,0.000972508522994,0.0,0.0,0.0,0.0,0.0,0.0,0.0,0.0,0.0,5.56479725363,-0.0237163076636,8.02027436576,0.0,0.0,0.0,0.0,0.0,0.0,0.0,0.0,0.0
28608000000,220,28608000000,imu_link,-0.000649628383666,-0.366185432095,0.0011159737961,0.930541004957,0.0,0.0,0.0,0.0,0.0,0.0,0.0,0.0,0.0,0.00245753835718,0.0100224610724,0.000775871055464,0.0,0.0,0.0,0.0,0.0,0.0,0.0,0.0,0.0,5.57126383544,-0.0236492886411,8.02113784226,0.0,0.0,0.0,0.0,0.0,0.0,0.0,0.0,0.0
28612000000,221,28612000000,imu_link,-0.000644502753813,-0.366167942064,0.00111924891988,0.930547887055,0.0,0.0,0.0,0.0,0.0,0.0,0.0,0.0,0.0,0.00299645029648,0.00939373390493,0.000587193883528,0.0,0.0,0.0,0.0,0.0,0.0,0.0,0.0,0.0,5.57526705476,-0.0234957203489,8.01344158974,0.0,0.0,0.0,0.0,0.0,0.0,0.0,0.0,0.0
28616000000,222,28616000000,imu_link,-0.000638526793909,-0.366151642001,0.00112255538805,0.930554301055,0.0,0.0,0.0,0.0,0.0,0.0,0.0,0.0,0.0,0.00339700858835,0.00875388502844,0.000445974301211,0.0,0.0,0.0,0.0,0.0,0.0,0.0,0.0,0.0,5.58088076811,-0.0233216030003,8.00926256303,0.0,0.0,0.0,0.0,0.0,0.0,0.0,0.0,0.0
28620000000,223,28620000000,imu_link,-0.000632190149135,-0.366136521107,0.00112586831893,0.930560250961,0.0,0.0,0.0,0.0,0.0,0.0,0.0,0.0,0.0,0.00356520017258,0.00812007613116,0.000382832592806,0.0,0.0,0.0,0.0,0.0,0.0,0.0,0.0,0.0,5.58651554321,-0.0231566488068,8.00501383157,0.0,0.0,0.0,0.0,0.0,0.0,0.0,0.0,0.0
28624000000,224,28624000000,imu_link,-0.000625925625501,-0.366122726276,0.00112913092603,0.930565678813,0.0,0.0,0.0,0.0,0.0,0.0,0.0,0.0,0.0,0.00352151944905,0.00740757049114,0.000372495751335,0.0,0.0,0.0,0.0,0.0,0.0,0.0,0.0,0.0,5.59243302046,-0.0230674533098,8.00284541928,0.0,0.0,0.0,0.0,0.0,0.0,0.0,0.0,0.0
28628000000,225,28628000000,imu_link,-0.000619958723886,-0.366110451026,0.00113227918674,0.930570508476,0.0,0.0,0.0,0.0,0.0,0.0,0.0,0.0,0.0,0.00336106351069,0.00659123360433,0.000373637576858,0.0,0.0,0.0,0.0,0.0,0.0,0.0,0.0,0.0,5.59872077779,-0.0230752544093,8.00184392419,0.0,0.0,0.0,0.0,0.0,0.0,0.0,0.0,0.0
28632000000,226,28632000000,imu_link,-0.000614275232855,-0.366099656161,0.00113533877147,0.930574755423,0.0,0.0,0.0,0.0,0.0,0.0,0.0,0.0,0.0,0.00321194540848,0.00579595114571,0.000384128746288,0.0,0.0,0.0,0.0,0.0,0.0,0.0,0.0,0.0,5.60287029854,-0.0231716491072,7.99391645665,0.0,0.0,0.0,0.0,0.0,0.0,0.0,0.0,0.0
28636000000,227,28636000000,imu_link,-0.000608800005627,-0.36609031545,0.00113838019706,0.930578430003,0.0,0.0,0.0,0.0,0.0,0.0,0.0,0.0,0.0,0.00311071758857,0.00501470391833,0.000413680472431,0.0,0.0,0.0,0.0,0.0,0.0,0.0,0.0,0.0,5.60808724414,-0.0232800602629,7.98926023448,0.0,0.0,0.0,0.0,0.0,0.0,0.0,0.0,0.0
28640000000,228,28640000000,imu_link,-0.000603524437594,-0.366082413758,0.00114146094179,0.930581538159,0.0,0.0,0.0,0.0,0.0,0.0,0.0,0.0,0.0,0.00302402400114,0.00424156479115,0.000468406254921,0.0,0.0,0.0,0.0,0.0,0.0,0.0,0.0,0.0,5.61266290136,-0.0233454664148,7.98295608747,0.0,0.0,0.0,0.0,0.0,0.0,0.0,0.0,0.0
28644000000,229,28644000000,imu_link,-0.00059831718906,-0.366076146751,0.00114463869269,0.930584002978,0.0,0.0,0.0,0.0,0.0,0.0,0.0,0.0,0.0,0.00300886459662,0.00336321287859,0.00052592150475,0.0,0.0,0.0,0.0,0.0,0.0,0.0,0.0,0.0,5.61776631086,-0.0234200310968,7.97954451413,0.0,0.0,0.0,0.0,0.0,0.0,0.0,0.0,0.0
28648000000,230,28648000000,imu_link,-0.000593142135966,-0.366071491563,0.00114787851639,0.93058583356,0.0,0.0,0.0,0.0,0.0,0.0,0.0,0.0,0.0,0.00300413378896,0.00249715698071,0.000560577268205,0.0,0.0,0.0,0.0,0.0,0.0,0.0,0.0,0.0,5.62293847281,-0.0234501927116,7.97506426077,0.0,0.0,0.0,0.0,0.0,0.0,0.0,0.0,0.0
28652000000,231,28652000000,imu_link,-0.000587876727717,-0.366068176231,0.00115117228152,0.930587137002,0.0,0.0,0.0,0.0,0.0,0.0,0.0,0.0,0.0,0.00305512328091,0.00177717829799,0.000569042791191,0.0,0.0,0.0,0.0,0.0,0.0,0.0,0.0,0.0,5.62679846136,-0.0235196946481,7.96567148221,0.0,0.0,0.0,0.0,0.0,0.0,0.0,0.0,0.0
28656000000,232,28656000000,imu_link,-0.000582304813325,-0.36606584188,0.0011545127916,0.930588054635,0.0,0.0,0.0,0.0,0.0,0.0,0.0,0.0,0.0,0.00320561649444,0.00124992725255,0.000534625564338,0.0,0.0,0.0,0.0,0.0,0.0,0.0,0.0,0.0,5.63175016425,-0.0235928103765,7.95880721569,0.0,0.0,0.0,0.0,0.0,0.0,0.0,0.0,0.0
28660000000,233,28660000000,imu_link,-0.000576276388787,-0.366064191112,0.00115788871433,0.930588703555,0.0,0.0,0.0,0.0,0.0,0.0,0.0,0.0,0.0,0.00342403678094,0.000882403418915,0.000467502562822,0.0,0.0,0.0,0.0,0.0,0.0,0.0,0.0,0.0,5.63641334532,-0.0236544620028,7.95180953026,0.0,0.0,0.0,0.0,0.0,0.0,0.0,0.0,0.0
28664000000,234,28664000000,imu_link,-0.000569943257172,-0.36606322471,0.00116123814096,0.930589083434,0.0,0.0,0.0,0.0,0.0,0.0,0.0,0.0,0.0,0.00356049189647,0.000514560114149,0.000399361473343,0.0,0.0,0.0,0.0,0.0,0.0,0.0,0.0,0.0,5.6421649524,-0.0236198663888,7.94972013187,0.0,0.0,0.0,0.0,0.0,0.0,0.0,0.0,0.0
28668000000,235,28668000000,imu_link,-0.000563573301674,-0.366063062516,0.00116450122789,0.930589147037,0.0,0.0,0.0,0.0,0.0,0.0,0.0,0.0,0.0,0.00356126588435,8.24808481276e-05,0.000352402603324,0.0,0.0,0.0,0.0,0.0,0.0,0.0,0.0,0.0,5.64584906964,-0.0235597893467,7.94314059663,0.0,0.0,0.0,0.0,0.0,0.0,0.0,0.0,0.0
28672000000,236,28672000000,imu_link,-0.000557360782177,-0.366063821778,0.00116763843942,0.930588848179,0.0,0.0,0.0,0.0,0.0,0.0,0.0,0.0,0.0,0.0034643339455,-0.000412482108106,0.000322600606478,0.0,0.0,0.0,0.0,0.0,0.0,0.0,0.0,0.0,5.64944942315,-0.0235347992269,7.93638368438,0.0,0.0,0.0,0.0,0.0,0.0,0.0,0.0,0.0
28676000000,237,28676000000,imu_link,-0.000551229206428,-0.366065628796,0.00117066391032,0.930588137205,0.0,0.0,0.0,0.0,0.0,0.0,0.0,0.0,0.0,0.00340549261948,-0.000975349611785,0.000285372211001,0.0,0.0,0.0,0.0,0.0,0.0,0.0,0.0,0.0,5.65392569834,-0.023605593076,7.93221717135,0.0,0.0,0.0,0.0,0.0,0.0,0.0,0.0,0.0
28680000000,238,28680000000,imu_link,-0.00054487548949,-0.366068533401,0.00117365868473,0.930586994585,0.0,0.0,0.0,0.0,0.0,0.0,0.0,0.0,0.0,0.00350247371312,-0.00156517646323,0.000230380337877,0.0,0.0,0.0,0.0,0.0,0.0,0.0,0.0,0.0,5.65965533828,-0.0237338244622,7.9311077889,0.0,0.0,0.0,0.0,0.0,0.0,0.0,0.0,0.0
28684000000,239,28684000000,imu_link,-0.000538039610616,-0.366072375021,0.00117667075088,0.930585483556,0.0,0.0,0.0,0.0,0.0,0.0,0.0,0.0,0.0,0.00372933527144,-0.00206888295997,0.000150134829554,0.0,0.0,0.0,0.0,0.0,0.0,0.0,0.0,0.0,5.66384884304,-0.0237755547209,7.92451847863,0.0,0.0,0.0,0.0,0.0,0.0,0.0,0.0,0.0
28688000000,240,28688000000,imu_link,-0.000530649258694,-0.366076874927,0.00117973160341,0.930583713745,0.0,0.0,0.0,0.0,0.0,0.0,0.0,0.0,0.0,0.00399580031864,-0.00242288469444,7.132130656e-05,0.0,0.0,0.0,0.0,0.0,0.0,0.0,0.0,0.0,5.6692515132,-0.023741273613,7.920341718,0.0,0.0,0.0,0.0,0.0,0.0,0.0,0.0,0.0
28692000000,241,28692000000,imu_link,-0.000522746083012,-0.366081730958,0.00118285344095,0.930581803955,0.0,0.0,0.0,0.0,0.0,0.0,0.0,0.0,0.0,0.00424532843252,-0.00261452691566,5.81875276419e-06,0.0,0.0,0.0,0.0,0.0,0.0,0.0,0.0,0.0,5.67291457623,-0.023661185538,7.91174548825,0.0,0.0,0.0,0.0,0.0,0.0,0.0,0.0,0.0
28696000000,242,28696000000,imu_link,-0.000514399690919,-0.366086606319,0.00118603122949,0.930579886628,0.0,0.0,0.0,0.0,0.0,0.0,0.0,0.0,0.0,0.00446178091325,-0.00262517721788,-4.92750662823e-05,0.0,0.0,0.0,0.0,0.0,0.0,0.0,0.0,0.0,5.67650335511,-0.0235931717214,7.90292310727,0.0,0.0,0.0,0.0,0.0,0.0,0.0,0.0,0.0
28700000000,243,28700000000,imu_link,-0.000505833450627,-0.366091052035,0.0011892506168,0.930578138275,0.0,0.0,0.0,0.0,0.0,0.0,0.0,0.0,0.0,0.00457198669246,-0.00239447916162,-7.01510166174e-05,0.0,0.0,0.0,0.0,0.0,0.0,0.0,0.0,0.0,5.68185386214,-0.0235292387465,7.8979698718,0.0,0.0,0.0,0.0,0.0,0.0,0.0,0.0,0.0
28704000000,244,28704000000,imu_link,-0.000497289593235,-0.366094682494,0.00119247734241,0.930576710514,0.0,0.0,0.0,0.0,0.0,0.0,0.0,0.0,0.0,0.00456348127123,-0.00195645464953,-6.26239387345e-05,0.0,0.0,0.0,0.0,0.0,0.0,0.0,0.0,0.0,5.68607033554,-0.0234977754528,7.89093527368,0.0,0.0,0.0,0.0,0.0,0.0,0.0,0.0,0.0
28708000000,245,28708000000,imu_link,-0.000488872993586,-0.366097253226,0.00119567016429,0.93057569953,0.0,0.0,0.0,0.0,0.0,0.0,0.0,0.0,0.0,0.00449879921859,-0.00138700146085,-5.50897580602e-05,0.0,0.0,0.0,0.0,0.0,0.0,0.0,0.0,0.0,5.69024848813,-0.0235103892875,7.88502531729,0.0,0.0,0.0,0.0,0.0,0.0,0.0,0.0,0.0
28712000000,246,28712000000,imu_link,-0.000480447612581,-0.366098753248,0.00119882872204,0.930575109731,0.0,0.0,0.0,0.0,0.0,0.0,0.0,0.0,0.0,0.00449735613528,-0.000811713207403,-7.26299350151e-05,0.0,0.0,0.0,0.0,0.0,0.0,0.0,0.0,0.0,5.69380691461,-0.0235735254343,7.87927435375,0.0,0.0,0.0,0.0,0.0,0.0,0.0,0.0,0.0
28716000000,247,28716000000,imu_link,-0.000471913158246,-0.366099403744,0.00120200481385,0.930574854088,0.0,0.0,0.0,0.0,0.0,0.0,0.0,0.0,0.0,0.00455190568778,-0.000355341752997,-8.4433581042e-05,0.0,0.0,0.0,0.0,0.0,0.0,0.0,0.0,0.0,5.69835995817,-0.0236019499111,7.87742152109,0.0,0.0,0.0,0.0,0.0,0.0,0.0,0.0,0.0
28720000000,248,28720000000,imu_link,-0.000463617417008,-0.366099468325,0.00120518587848,0.930574828736,0.0,0.0,0.0,0.0,0.0,0.0,0.0,0.0,0.0,0.00444215223292,-4.04255765791e-05,-3.84235874205e-05,0.0,0.0,0.0,0.0,0.0,0.0,0.0,0.0,0.0,5.70392880621,-0.0235772857439,7.87845685098,0.0,0.0,0.0,0.0,0.0,0.0,0.0,0.0,0.0
28724000000,249,28724000000,imu_link,-0.000455929274092,-0.366099399507,0.00120834850536,0.930574855508,0.0,0.0,0.0,0.0,0.0,0.0,0.0,0.0,0.0,0.00415616182472,3.15547414917e-05,6.42177911765e-05,0.0,0.0,0.0,0.0,0.0,0.0,0.0,0.0,0.0,5.70945031734,-0.0236425550861,7.88074338907,0.0,0.0,0.0,0.0,0.0,0.0,0.0,0.0,0.0
28728000000,250,28728000000,imu_link,-0.000449054891765,-0.366099569827,0.00121141820112,0.930574787853,0.0,0.0,0.0,0.0,0.0,0.0,0.0,0.0,0.0,0.00376035223223,-9.6484889739e-05,0.000169939271024,0.0,0.0,0.0,0.0,0.0,0.0,0.0,0.0,0.0,5.71425013106,-0.0237942573025,7.8807149702,0.0,0.0,0.0,0.0,0.0,0.0,0.0,0.0,0.0
28732000000,251,28732000000,imu_link,-0.000442833072853,-0.366099992547,0.00121436991265,0.930574620684,0.0,0.0,0.0,0.0,0.0,0.0,0.0,0.0,0.0,0.00343495048844,-0.000231717899879,0.000234497895102,0.0,0.0,0.0,0.0,0.0,0.0,0.0,0.0,0.0,5.71799677545,-0.0240020469508,7.87532189576,0.0,0.0,0.0,0.0,0.0,0.0,0.0,0.0,0.0
28736000000,252,28736000000,imu_link,-0.000436824287869,-0.366100455115,0.00121724325542,0.93057443779,0.0,0.0,0.0,0.0,0.0,0.0,0.0,0.0,0.0,0.0033214554255,-0.000252990647552,0.000237030488639,0.0,0.0,0.0,0.0,0.0,0.0,0.0,0.0,0.0,5.72176896143,-0.0242035140342,7.86864613367,0.0,0.0,0.0,0.0,0.0,0.0,0.0,0.0,0.0
28740000000,253,28740000000,imu_link,-0.000430689137392,-0.366100741761,0.00122008370205,0.93057432416,0.0,0.0,0.0,0.0,0.0,0.0,0.0,0.0,0.0,0.00337435222918,-0.000158526789304,0.000198589374561,0.0,0.0,0.0,0.0,0.0,0.0,0.0,0.0,0.0,5.72611371917,-0.024316118244,7.86366052782,0.0,0.0,0.0,0.0,0.0,0.0,0.0,0.0,0.0
28744000000,254,28744000000,imu_link,-0.000424482297246,-0.366100828268,0.00122288128433,0.930574289306,0.0,0.0,0.0,0.0,0.0,0.0,0.0,0.0,0.0,0.00340000123103,-5.1019583215e-05,0.000165517359787,0.0,0.0,0.0,0.0,0.0,0.0,0.0,0.0,0.0,5.72947452221,-0.0243209745098,7.8572346779,0.0,0.0,0.0,0.0,0.0,0.0,0.0,0.0,0.0
28748000000,255,28748000000,imu_link,-0.000418590755168,-0.366100961017,0.00122554379187,0.930574236247,0.0,0.0,0.0,0.0,0.0,0.0,0.0,0.0,0.0,0.00322853946991,-7.56466329922e-05,0.00016038558211,0.0,0.0,0.0,0.0,0.0,0.0,0.0,0.0,0.0,5.73389004839,-0.0242525638265,7.85543524432,0.0,0.0,0.0,0.0,0.0,0.0,0.0,0.0,0.0
28752000000,256,28752000000,imu_link,-0.00041317560633,-0.366101488242,0.00122803396493,0.930574027966,0.0,0.0,0.0,0.0,0.0,0.0,0.0,0.0,0.0,0.00297505971147,-0.000287276262422,0.000167417133815,0.0,0.0,0.0,0.0,0.0,0.0,0.0,0.0,0.0,5.73762439404,-0.0242690995069,7.85247701527,0.0,0.0,0.0,0.0,0.0,0.0,0.0,0.0,0.0
28756000000,257,28756000000,imu_link,-0.000408180780288,-0.366102842781,0.00123037217132,0.930573494185,0.0,0.0,0.0,0.0,0.0,0.0,0.0,0.0,0.0,0.00275109613249,-0.000731508166495,0.000173678366167,0.0,0.0,0.0,0.0,0.0,0.0,0.0,0.0,0.0,5.7417929801,-0.0243371718594,7.8512969007,0.0,0.0,0.0,0.0,0.0,0.0,0.0,0.0,0.0
28760000000,258,28760000000,imu_link,-0.000403319185914,-0.366105355113,0.00123264875455,0.930572504896,0.0,0.0,0.0,0.0,0.0,0.0,0.0,0.0,0.0,0.00267701977119,-0.00135350111492,0.000169438097768,0.0,0.0,0.0,0.0,0.0,0.0,0.0,0.0,0.0,5.74570344923,-0.0244209599788,7.84860560645,0.0,0.0,0.0,0.0,0.0,0.0,0.0,0.0,0.0
28764000000,259,28764000000,imu_link,-0.000398405217945,-0.366108999898,0.00123491535846,0.93057107007,0.0,0.0,0.0,0.0,0.0,0.0,0.0,0.0,0.0,0.00269877393967,-0.00196200243158,0.000155253957285,0.0,0.0,0.0,0.0,0.0,0.0,0.0,0.0,0.0,5.74942799075,-0.0244375302318,7.84304323853,0.0,0.0,0.0,0.0,0.0,0.0,0.0,0.0,0.0
28768000000,260,28768000000,imu_link,-0.000393428381815,-0.366113560477,0.00123720147588,0.930569274896,0.0,0.0,0.0,0.0,0.0,0.0,0.0,0.0,0.0,0.0027309603738,-0.00245411489157,0.000152865080342,0.0,0.0,0.0,0.0,0.0,0.0,0.0,0.0,0.0,5.75248394032,-0.0244277014662,7.83485978925,0.0,0.0,0.0,0.0,0.0,0.0,0.0,0.0,0.0
28772000000,261,28772000000,imu_link,-0.000388452839097,-0.366118864128,0.00123952531762,0.930567187263,0.0,0.0,0.0,0.0,0.0,0.0,0.0,0.0,0.0,0.00273674706772,-0.00285339732872,0.000170689140164,0.0,0.0,0.0,0.0,0.0,0.0,0.0,0.0,0.0,5.75537401606,-0.0244604214915,7.82675159303,0.0,0.0,0.0,0.0,0.0,0.0,0.0,0.0,0.0
28776000000,262,28776000000,imu_link,-0.000383456689006,-0.366124873398,0.00124193386054,0.930564821837,0.0,0.0,0.0,0.0,0.0,0.0,0.0,0.0,0.0,0.00276134941859,-0.00323259257369,0.000206361951028,0.0,0.0,0.0,0.0,0.0,0.0,0.0,0.0,0.0,5.75881464263,-0.0244855766746,7.82097630614,0.0,0.0,0.0,0.0,0.0,0.0,0.0,0.0,0.0
28780000000,263,28780000000,imu_link,-0.000378161322862,-0.366131620726,0.00124452689659,0.930562165818,0.0,0.0,0.0,0.0,0.0,0.0,0.0,0.0,0.0,0.0029338291215,-0.00362941608895,0.000237467080752,0.0,0.0,0.0,0.0,0.0,0.0,0.0,0.0,0.0,5.76243003552,-0.0245399225505,7.81618534592,0.0,0.0,0.0,0.0,0.0,0.0,0.0,0.0,0.0
28784000000,264,28784000000,imu_link,-0.0003721303114,-0.366139287943,0.00124741092019,0.930559147669,0.0,0.0,0.0,0.0,0.0,0.0,0.0,0.0,0.0,0.0033287399611,-0.00412422883769,0.000238237988361,0.0,0.0,0.0,0.0,0.0,0.0,0.0,0.0,0.0,5.76709054406,-0.0245785793127,7.81516879966,0.0,0.0,0.0,0.0,0.0,0.0,0.0,0.0,0.0
28788000000,265,28788000000,imu_link,-0.000365188510696,-0.366147828472,0.00125057857136,0.930555785752,0.0,0.0,0.0,0.0,0.0,0.0,0.0,0.0,0.0,0.00380382653341,-0.00459411778932,0.000203518150014,0.0,0.0,0.0,0.0,0.0,0.0,0.0,0.0,0.0,5.77083370699,-0.0245068706953,7.81025646341,0.0,0.0,0.0,0.0,0.0,0.0,0.0,0.0,0.0
28792000000,266,28792000000,imu_link,-0.000357478933902,-0.366157014552,0.00125398778298,0.930552169638,0.0,0.0,0.0,0.0,0.0,0.0,0.0,0.0,0.0,0.00420482912427,-0.00494153948755,0.000175392194214,0.0,0.0,0.0,0.0,0.0,0.0,0.0,0.0,0.0,5.77305559497,-0.024356739581,7.80024185363,0.0,0.0,0.0,0.0,0.0,0.0,0.0,0.0,0.0
28796000000,267,28796000000,imu_link,-0.000349640156643,-0.366166463821,0.00125755398834,0.930548449616,0.0,0.0,0.0,0.0,0.0,0.0,0.0,0.0,0.0,0.0042935015981,-0.00508312698386,0.00022480189982,0.0,0.0,0.0,0.0,0.0,0.0,0.0,0.0,0.0,5.77713578357,-0.0241676516292,7.79431113312,0.0,0.0,0.0,0.0,0.0,0.0,0.0,0.0,0.0
28800000000,268,28800000000,imu_link,-0.000342404293682,-0.366175916626,0.00126118247472,0.930544727706,0.0,0.0,0.0,0.0,0.0,0.0,0.0,0.0,0.0,0.00402438117176,-0.00508475025968,0.000364163721546,0.0,0.0,0.0,0.0,0.0,0.0,0.0,0.0,0.0,5.78187081412,-0.0240527045357,7.79123682993,0.0,0.0,0.0,0.0,0.0,0.0,0.0,0.0,0.0
28804000000,269,28804000000,imu_link,-0.000336113793053,-0.366185214164,0.00126484460353,0.930541066328,0.0,0.0,0.0,0.0,0.0,0.0,0.0,0.0,0.0,0.00359079800453,-0.00500083509377,0.000552889488373,0.0,0.0,0.0,0.0,0.0,0.0,0.0,0.0,0.0,5.78485808841,-0.0240917973,7.78439555539,0.0,0.0,0.0,0.0,0.0,0.0,0.0,0.0,0.0
28808000000,270,28808000000,imu_link,-0.000330405534289,-0.366194253375,0.00126857357378,0.930537506148,0.0,0.0,0.0,0.0,0.0,0.0,0.0,0.0,0.0,0.00333231657082,-0.00486175792505,0.000690572429494,0.0,0.0,0.0,0.0,0.0,0.0,0.0,0.0,0.0,5.78908643113,-0.0242921821323,7.78112631969,0.0,0.0,0.0,0.0,0.0,0.0,0.0,0.0,0.0
28812000000,271,28812000000,imu_link,-0.000324691714539,-0.36620310642,0.00127238242379,0.930534018973,0.0,0.0,0.0,0.0,0.0,0.0,0.0,0.0,0.0,0.00334965982272,-0.00476179049268,0.000726704238287,0.0,0.0,0.0,0.0,0.0,0.0,0.0,0.0,0.0,5.79343301993,-0.0244850029117,7.77946998901,0.0,0.0,0.0,0.0,0.0,0.0,0.0,0.0,0.0
28816000000,272,28816000000,imu_link,-0.000318653529753,-0.366211831109,0.00127622844694,0.930530582225,0.0,0.0,0.0,0.0,0.0,0.0,0.0,0.0,0.0,0.00350747247977,-0.00469304929527,0.000684596689565,0.0,0.0,0.0,0.0,0.0,0.0,0.0,0.0,0.0,5.79797717697,-0.0245648776904,7.77828307857,0.0,0.0,0.0,0.0,0.0,0.0,0.0,0.0,0.0
28820000000,273,28820000000,imu_link,-0.000312327915384,-0.36622062408,0.00128003049186,0.930527118612,0.0,0.0,0.0,0.0,0.0,0.0,0.0,0.0,0.0,0.00363310296138,-0.00472991483562,0.00061151135319,0.0,0.0,0.0,0.0,0.0,0.0,0.0,0.0,0.0,5.80216431517,-0.0245704121515,7.77721120892,0.0,0.0,0.0,0.0,0.0,0.0,0.0,0.0,0.0
28824000000,274,28824000000,imu_link,-0.000305824099887,-0.366229615673,0.00128372391917,0.93052357688,0.0,0.0,0.0,0.0,0.0,0.0,0.0,0.0,0.0,0.00369598512721,-0.00483672733191,0.000528364051059,0.0,0.0,0.0,0.0,0.0,0.0,0.0,0.0,0.0,5.80574395231,-0.0245348199266,7.77408136342,0.0,0.0,0.0,0.0,0.0,0.0,0.0,0.0,0.0
28828000000,275,28828000000,imu_link,-0.000299265811304,-0.366239033492,0.00128728543934,0.93051986743,0.0,0.0,0.0,0.0,0.0,0.0,0.0,0.0,0.0,0.00369687599606,-0.00506576077539,0.000457060342187,0.0,0.0,0.0,0.0,0.0,0.0,0.0,0.0,0.0,5.80909869327,-0.0244982533989,7.7711860222,0.0,0.0,0.0,0.0,0.0,0.0,0.0,0.0,0.0
28832000000,276,28832000000,imu_link,-0.000292537820819,-0.366249106279,0.00129076367399,0.930515900187,0.0,0.0,0.0,0.0,0.0,0.0,0.0,0.0,0.0,0.00376012015012,-0.00541779478467,0.000387303126129,0.0,0.0,0.0,0.0,0.0,0.0,0.0,0.0,0.0,5.81183839567,-0.0245265764821,7.76667414594,0.0,0.0,0.0,0.0,0.0,0.0,0.0,0.0,0.0
28836000000,277,28836000000,imu_link,-0.000285615206421,-0.366259892658,0.00129421349059,0.930511651977,0.0,0.0,0.0,0.0,0.0,0.0,0.0,0.0,0.0,0.00384496479279,-0.00580137232355,0.000338517934271,0.0,0.0,0.0,0.0,0.0,0.0,0.0,0.0,0.0,5.81496250144,-0.0245440678232,7.76159966935,0.0,0.0,0.0,0.0,0.0,0.0,0.0,0.0,0.0
28840000000,278,28840000000,imu_link,-0.000278394446758,-0.366271564065,0.00129771492748,0.930507055207,0.0,0.0,0.0,0.0,0.0,0.0,0.0,0.0,0.0,0.00399250935224,-0.00627716903798,0.00030803441984,0.0,0.0,0.0,0.0,0.0,0.0,0.0,0.0,0.0,5.81861515382,-0.0245482665918,7.75867478465,0.0,0.0,0.0,0.0,0.0,0.0,0.0,0.0,0.0
28844000000,279,28844000000,imu_link,-0.000270955372384,-0.366284176267,0.00130126980112,0.930502087852,0.0,0.0,0.0,0.0,0.0,0.0,0.0,0.0,0.0,0.0041032051969,-0.00678289342833,0.00029302432223,0.0,0.0,0.0,0.0,0.0,0.0,0.0,0.0,0.0,5.8220194747,-0.0245054383894,7.75453947901,0.0,0.0,0.0,0.0,0.0,0.0,0.0,0.0,0.0
28848000000,280,28848000000,imu_link,-0.00026354942105,-0.366297737171,0.00130487048963,0.930496746689,0.0,0.0,0.0,0.0,0.0,0.0,0.0,0.0,0.0,0.00409551739691,-0.00729272292461,0.00032052064387,0.0,0.0,0.0,0.0,0.0,0.0,0.0,0.0,0.0,5.82595216494,-0.0244364707059,7.75157554254,0.0,0.0,0.0,0.0,0.0,0.0,0.0,0.0,0.0
28852000000,281,28852000000,imu_link,-0.000256333349662,-0.366312236308,0.0013084930127,0.930491035782,0.0,0.0,0.0,0.0,0.0,0.0,0.0,0.0,0.0,0.00401051417494,-0.00779683171448,0.0003655730302,0.0,0.0,0.0,0.0,0.0,0.0,0.0,0.0,0.0,5.82836852041,-0.0244121617764,7.74487110888,0.0,0.0,0.0,0.0,0.0,0.0,0.0,0.0,0.0
28856000000,282,28856000000,imu_link,-0.000249240801255,-0.366327550086,0.00131214902532,0.930485003744,0.0,0.0,0.0,0.0,0.0,0.0,0.0,0.0,0.0,0.00395860534485,-0.00823457974721,0.000403883573408,0.0,0.0,0.0,0.0,0.0,0.0,0.0,0.0,0.0,5.83112733588,-0.0244421233847,7.73829144971,0.0,0.0,0.0,0.0,0.0,0.0,0.0,0.0,0.0
28860000000,283,28860000000,imu_link,-0.000242181254251,-0.366343396314,0.00131583245462,0.930478761665,0.0,0.0,0.0,0.0,0.0,0.0,0.0,0.0,0.0,0.00394789793034,-0.00852075243751,0.00042275509115,0.0,0.0,0.0,0.0,0.0,0.0,0.0,0.0,0.0,5.83484411928,-0.0245111545884,7.73331916312,0.0,0.0,0.0,0.0,0.0,0.0,0.0,0.0,0.0
28864000000,284,28864000000,imu_link,-0.000235196284328,-0.366359279819,0.00131952112071,0.930472504503,0.0,0.0,0.0,0.0,0.0,0.0,0.0,0.0,0.0,0.0039141346139,-0.0085408092605,0.000438857268441,0.0,0.0,0.0,0.0,0.0,0.0,0.0,0.0,0.0,5.83861018156,-0.0245944400729,7.72708437709,0.0,0.0,0.0,0.0,0.0,0.0,0.0,0.0,0.0
28868000000,285,28868000000,imu_link,-0.000228692198908,-0.36637482232,0.00132316896293,0.930466381173,0.0,0.0,0.0,0.0,0.0,0.0,0.0,0.0,0.0,0.00368317232942,-0.00835732423959,0.000507904581626,0.0,0.0,0.0,0.0,0.0,0.0,0.0,0.0,0.0,5.8422326386,-0.0245820324982,7.72163895791,0.0,0.0,0.0,0.0,0.0,0.0,0.0,0.0,0.0
28872000000,286,28872000000,imu_link,-0.000223081580926,-0.36638987162,0.0013267216873,0.930460451614,0.0,0.0,0.0,0.0,0.0,0.0,0.0,0.0,0.0,0.00325042568068,-0.00809177262123,0.0006272527883,0.0,0.0,0.0,0.0,0.0,0.0,0.0,0.0,0.0,5.84475224955,-0.0245934693916,7.7151106975,0.0,0.0,0.0,0.0,0.0,0.0,0.0,0.0,0.0
28876000000,287,28876000000,imu_link,-0.000218408636775,-0.36640428519,0.00133018962868,0.930454771973,0.0,0.0,0.0,0.0,0.0,0.0,0.0,0.0,0.0,0.00279910925107,-0.0077495963201,0.000759491394665,0.0,0.0,0.0,0.0,0.0,0.0,0.0,0.0,0.0,5.84729557531,-0.0247195385321,7.70864666145,0.0,0.0,0.0,0.0,0.0,0.0,0.0,0.0,0.0
28880000000,288,28880000000,imu_link,-0.000214421051638,-0.36641793796,0.00133364451163,0.930449391508,0.0,0.0,0.0,0.0,0.0,0.0,0.0,0.0,0.0,0.00247840781383,-0.00734038474168,0.000878859605313,0.0,0.0,0.0,0.0,0.0,0.0,0.0,0.0,0.0,5.85060847552,-0.0249168222465,7.70408330216,0.0,0.0,0.0,0.0,0.0,0.0,0.0,0.0,0.0
28884000000,289,28884000000,imu_link,-0.000210810547427,-0.36643084188,0.00133718382924,0.930444305489,0.0,0.0,0.0,0.0,0.0,0.0,0.0,0.0,0.0,0.00231898055745,-0.00693781362188,0.000987109238299,0.0,0.0,0.0,0.0,0.0,0.0,0.0,0.0,0.0,5.85441607096,-0.0250637807847,7.70158301411,0.0,0.0,0.0,0.0,0.0,0.0,0.0,0.0,0.0
28888000000,290,28888000000,imu_link,-0.000207577232711,-0.36644299505,0.00134081644857,0.930439514693,0.0,0.0,0.0,0.0,0.0,0.0,0.0,0.0,0.0,0.00216113102532,-0.00653421654059,0.00109950394704,0.0,0.0,0.0,0.0,0.0,0.0,0.0,0.0,0.0,5.85676856079,-0.0250820957312,7.69578135217,0.0,0.0,0.0,0.0,0.0,0.0,0.0,0.0,0.0
28892000000,291,28892000000,imu_link,-0.000204932201346,-0.366454611525,0.00134446509755,0.930434934914,0.0,0.0,0.0,0.0,0.0,0.0,0.0,0.0,0.0,0.00189076867085,-0.00624547935085,0.00121466164759,0.0,0.0,0.0,0.0,0.0,0.0,0.0,0.0,0.0,5.85952625969,-0.0250654986685,7.69256979299,0.0,0.0,0.0,0.0,0.0,0.0,0.0,0.0,0.0
28896000000,292,28896000000,imu_link,-0.000202993568402,-0.366465986221,0.00134804203541,0.930430450125,0.0,0.0,0.0,0.0,0.0,0.0,0.0,0.0,0.0,0.00154917261509,-0.00611511301711,0.0013106927813,0.0,0.0,0.0,0.0,0.0,0.0,0.0,0.0,0.0,5.86275727663,-0.0250947030021,7.69107397438,0.0,0.0,0.0,0.0,0.0,0.0,0.0,0.0,0.0
28900000000,293,28900000000,imu_link,-0.000201694416648,-0.366477347633,0.00135154160278,0.930425970363,0.0,0.0,0.0,0.0,0.0,0.0,0.0,0.0,0.0,0.00123750886858,-0.0061075726824,0.00139187086639,0.0,0.0,0.0,0.0,0.0,0.0,0.0,0.0,0.0,5.86535351587,-0.0251624293141,7.68746693386,0.0,0.0,0.0,0.0,0.0,0.0,0.0,0.0,0.0
28904000000,294,28904000000,imu_link,-0.000200922241463,-0.366488712261,0.00135498048918,0.930421489134,0.0,0.0,0.0,0.0,0.0,0.0,0.0,0.0,0.0,0.000981231103214,-0.00610897564172,0.00146020444394,0.0,0.0,0.0,0.0,0.0,0.0,0.0,0.0,0.0,5.86819117771,-0.0252545245844,7.68281380362,0.0,0.0,0.0,0.0,0.0,0.0,0.0,0.0,0.0
28908000000,295,28908000000,imu_link,-0.000200576397166,-0.366500038004,0.00135837447384,0.930417023023,0.0,0.0,0.0,0.0,0.0,0.0,0.0,0.0,0.0,0.000774697265867,-0.00608782237021,0.00151743206571,0.0,0.0,0.0,0.0,0.0,0.0,0.0,0.0,0.0,5.87130708144,-0.0253484285818,7.67867166966,0.0,0.0,0.0,0.0,0.0,0.0,0.0,0.0,0.0
28912000000,296,28912000000,imu_link,-0.000200487147121,-0.366511346833,0.0013617437209,0.930412563383,0.0,0.0,0.0,0.0,0.0,0.0,0.0,0.0,0.0,0.000650806405641,-0.00607859092476,0.00155294212176,0.0,0.0,0.0,0.0,0.0,0.0,0.0,0.0,0.0,5.87367099961,-0.0254751781225,7.67330470691,0.0,0.0,0.0,0.0,0.0,0.0,0.0,0.0,0.0
28916000000,297,28916000000,imu_link,-0.000200230426405,-0.366522776597,0.00136515138523,0.930408055912,0.0,0.0,0.0,0.0,0.0,0.0,0.0,0.0,0.0,0.000735667862795,-0.00614373399084,0.00154014457703,0.0,0.0,0.0,0.0,0.0,0.0,0.0,0.0,0.0,5.87702947848,-0.0255927849036,7.67128528788,0.0,0.0,0.0,0.0,0.0,0.0,0.0,0.0,0.0
28920000000,298,28920000000,imu_link,-0.000199378786825,-0.366534564727,0.00136868416466,0.93040340703,0.0,0.0,0.0,0.0,0.0,0.0,0.0,0.0,0.0,0.0010350965115,-0.00633678127753,0.0014893836142,0.0,0.0,0.0,0.0,0.0,0.0,0.0,0.0,0.0,5.88068249424,-0.025638474221,7.67070772911,0.0,0.0,0.0,0.0,0.0,0.0,0.0,0.0,0.0
28924000000,299,28924000000,imu_link,-0.000197800312447,-0.366546626569,0.0013723834695,0.930398650036,0.0,0.0,0.0,0.0,0.0,0.0,0.0,0.0,0.0,0.00140354186626,-0.00648443988474,0.0014336931758,0.0,0.0,0.0,0.0,0.0,0.0,0.0,0.0,0.0,5.88381933503,-0.0255699771149,7.66650892668,0.0,0.0,0.0,0.0,0.0,0.0,0.0,0.0,0.0
28928000000,300,28928000000,imu_link,-0.000195531551852,-0.366558845855,0.0013762736723,0.930393830678,0.0,0.0,0.0,0.0,0.0,0.0,0.0,0.0,0.0,0.00175953484568,-0.00656960465562,0.00139601495955,0.0,0.0,0.0,0.0,0.0,0.0,0.0,0.0,0.0,5.88739174048,-0.0254371998403,7.66285909323,0.0,0.0,0.0,0.0,0.0,0.0,0.0,0.0,0.0
28932000000,301,28932000000,imu_link,-0.000192730330063,-0.366571103108,0.00138034791305,0.930388995991,0.0,0.0,0.0,0.0,0.0,0.0,0.0,0.0,0.0,0.00204093689449,-0.0065904606968,0.00138404650107,0.0,0.0,0.0,0.0,0.0,0.0,0.0,0.0,0.0,5.8896716953,-0.0252631754903,7.65622313027,0.0,0.0,0.0,0.0,0.0,0.0,0.0,0.0,0.0
28936000000,302,28936000000,imu_link,-0.000189513907306,-0.366583506245,0.00138460786496,0.930384103419,0.0,0.0,0.0,0.0,0.0,0.0,0.0,0.0,0.0,0.00226801800953,-0.00666923939632,0.00139436386634,0.0,0.0,0.0,0.0,0.0,0.0,0.0,0.0,0.0,5.89239671033,-0.0251251841161,7.65236244212,0.0,0.0,0.0,0.0,0.0,0.0,0.0,0.0,0.0
28940000000,303,28940000000,imu_link,-0.000185937378574,-0.366596567982,0.00138902296123,0.930378950958,0.0,0.0,0.0,0.0,0.0,0.0,0.0,0.0,0.0,0.00246349255107,-0.00702351407043,0.00140064884932,0.0,0.0,0.0,0.0,0.0,0.0,0.0,0.0,0.0,5.89627646973,-0.0250233747889,7.65422000062,0.0,0.0,0.0,0.0,0.0,0.0,0.0,0.0,0.0
28944000000,304,28944000000,imu_link,-0.000182053679438,-0.366610663022,0.00139351006272,0.930373391034,0.0,0.0,0.0,0.0,0.0,0.0,0.0,0.0,0.0,0.00261882790246,-0.00757910367085,0.00137802803811,0.0,0.0,0.0,0.0,0.0,0.0,0.0,0.0,0.0,5.90021608544,-0.024929523976,7.65520783505,0.0,0.0,0.0,0.0,0.0,0.0,0.0,0.0,0.0
28948000000,305,28948000000,imu_link,-0.000178107025972,-0.366625729212,0.00139798636258,0.930367448158,0.0,0.0,0.0,0.0,0.0,0.0,0.0,0.0,0.0,0.00264542190838,-0.00810110918793,0.00136164181699,0.0,0.0,0.0,0.0,0.0,0.0,0.0,0.0,0.0,5.90343884762,-0.0248082622823,7.65126714676,0.0,0.0,0.0,0.0,0.0,0.0,0.0,0.0,0.0
28952000000,306,28952000000,imu_link,-0.000174491284007,-0.366641477225,0.00140238556716,0.930361236319,0.0,0.0,0.0,0.0,0.0,0.0,0.0,0.0,0.0,0.00247685416703,-0.00846734851363,0.00138656597,0.0,0.0,0.0,0.0,0.0,0.0,0.0,0.0,0.0,5.90592053439,-0.0247455136976,7.64409875562,0.0,0.0,0.0,0.0,0.0,0.0,0.0,0.0,0.0
28956000000,307,28956000000,imu_link,-0.00017153212101,-0.36665767134,0.00140664975622,0.93035484841,0.0,0.0,0.0,0.0,0.0,0.0,0.0,0.0,0.0,0.00214634704632,-0.00870667162397,0.00144420844594,0.0,0.0,0.0,0.0,0.0,0.0,0.0,0.0,0.0,5.90845497074,-0.0248103786029,7.63770779054,0.0,0.0,0.0,0.0,0.0,0.0,0.0,0.0,0.0
28960000000,308,28960000000,imu_link,-0.000169431959742,-0.366674213627,0.00141075494516,0.930348323008,0.0,0.0,0.0,0.0,0.0,0.0,0.0,0.0,0.0,0.00171735286001,-0.00889322160138,0.00152779181096,0.0,0.0,0.0,0.0,0.0,0.0,0.0,0.0,0.0,5.91103297862,-0.0249046728192,7.63250489765,0.0,0.0,0.0,0.0,0.0,0.0,0.0,0.0,0.0
28964000000,309,28964000000,imu_link,-0.000168151758681,-0.366691201072,0.00141471041337,0.930341621866,0.0,0.0,0.0,0.0,0.0,0.0,0.0,0.0,0.0,0.00130815029688,-0.00913192673147,0.0016085609742,0.0,0.0,0.0,0.0,0.0,0.0,0.0,0.0,0.0,5.91290482334,-0.0250436722819,7.62717228951,0.0,0.0,0.0,0.0,0.0,0.0,0.0,0.0,0.0
28968000000,310,28968000000,imu_link,-0.00016768518939,-0.366709051307,0.00141849033246,0.930334580383,0.0,0.0,0.0,0.0,0.0,0.0,0.0,0.0,0.0,0.000896847476756,-0.00959508105214,0.00167624465958,0.0,0.0,0.0,0.0,0.0,0.0,0.0,0.0,0.0,5.91649550361,-0.0251696567642,7.62813599125,0.0,0.0,0.0,0.0,0.0,0.0,0.0,0.0,0.0
28972000000,311,28972000000,imu_link,-0.000168098343266,-0.366728021212,0.00142204482965,0.93032709731,0.0,0.0,0.0,0.0,0.0,0.0,0.0,0.0,0.0,0.000445465763353,-0.0101962396055,0.00173290630595,0.0,0.0,0.0,0.0,0.0,0.0,0.0,0.0,0.0,5.9188609751,-0.0252805526175,7.62498990924,0.0,0.0,0.0,0.0,0.0,0.0,0.0,0.0,0.0
28976000000,312,28976000000,imu_link,-0.000169480721748,-0.366748179511,0.0014253204195,0.930319145543,0.0,0.0,0.0,0.0,0.0,0.0,0.0,0.0,0.0,-5.74081309525e-05,-0.0108342664934,0.00178112305715,0.0,0.0,0.0,0.0,0.0,0.0,0.0,0.0,0.0,5.92154751078,-0.0253676021032,7.62109188452,0.0,0.0,0.0,0.0,0.0,0.0,0.0,0.0,0.0
28980000000,313,28980000000,imu_link,-0.000171782394356,-0.366769261178,0.00142832587162,0.930310829471,0.0,0.0,0.0,0.0,0.0,0.0,0.0,0.0,0.0,-0.000535251772391,-0.011329905587,0.00182422200942,0.0,0.0,0.0,0.0,0.0,0.0,0.0,0.0,0.0,5.92472787729,-0.0254684528043,7.61614063747,0.0,0.0,0.0,0.0,0.0,0.0,0.0,0.0,0.0
28984000000,314,28984000000,imu_link,-0.000174920245218,-0.366790848891,0.00143107969744,0.930302313543,0.0,0.0,0.0,0.0,0.0,0.0,0.0,0.0,0.0,-0.000970727576515,-0.011601327228,0.00186061817658,0.0,0.0,0.0,0.0,0.0,0.0,0.0,0.0,0.0,5.92775928407,-0.0255650377588,7.61005030336,0.0,0.0,0.0,0.0,0.0,0.0,0.0,0.0,0.0
28988000000,315,28988000000,imu_link,-0.000178924854223,-0.366812684766,0.00143360198918,0.930293699359,0.0,0.0,0.0,0.0,0.0,0.0,0.0,0.0,0.0,-0.00141654958368,-0.0117341397499,0.00191192791356,0.0,0.0,0.0,0.0,0.0,0.0,0.0,0.0,0.0,5.93084197955,-0.0256178633683,7.60535812211,0.0,0.0,0.0,0.0,0.0,0.0,0.0,0.0,0.0
28992000000,316,28992000000,imu_link,-0.000183776054513,-0.366834715982,0.00143589682921,0.930285007714,0.0,0.0,0.0,0.0,0.0,0.0,0.0,0.0,0.0,-0.00185220188899,-0.0118385814791,0.00196143772723,0.0,0.0,0.0,0.0,0.0,0.0,0.0,0.0,0.0,5.93290866594,-0.02566519625,7.5998191667,0.0,0.0,0.0,0.0,0.0,0.0,0.0,0.0,0.0
28996000000,317,28996000000,imu_link,-0.000189492480336,-0.366857162354,0.00143796006225,0.9302761519,0.0,0.0,0.0,0.0,0.0,0.0,0.0,0.0,0.0,-0.00229744894813,-0.0120611571534,0.00201248457021,0.0,0.0,0.0,0.0,0.0,0.0,0.0,0.0,0.0,5.93538974298,-0.0256944124358,7.59695440283,0.0,0.0,0.0,0.0,0.0,0.0,0.0,0.0,0.0
29000000000,318,29000000000,imu_link,-0.000195972980535,-0.366880263111,0.00143982987887,0.930267037481,0.0,0.0,0.0,0.0,0.0,0.0,0.0,0.0,0.0,-0.00268882212468,-0.0124124043295,0.00206279623854,0.0,0.0,0.0,0.0,0.0,0.0,0.0,0.0,0.0,5.93883488716,-0.025778794852,7.59653513959,0.0,0.0,0.0,0.0,0.0,0.0,0.0,0.0,0.0
29004000000,319,29004000000,imu_link,-0.000202882976118,-0.366904018519,0.00144158400212,0.930257664235,0.0,0.0,0.0,0.0,0.0,0.0,0.0,0.0,0.0,-0.0029103142865,-0.0127640634944,0.00208789224917,0.0,0.0,0.0,0.0,0.0,0.0,0.0,0.0,0.0,5.94182785478,-0.0259056217867,7.59341854843,0.0,0.0,0.0,0.0,0.0,0.0,0.0,0.0,0.0
29008000000,320,29008000000,imu_link,-0.000210095810517,-0.366928162607,0.00144323237625,0.930248137018,0.0,0.0,0.0,0.0,0.0,0.0,0.0,0.0,0.0,-0.00307086901595,-0.0129728668832,0.00209433322637,0.0,0.0,0.0,0.0,0.0,0.0,0.0,0.0,0.0,5.94460379755,-0.0259360980513,7.58805915912,0.0,0.0,0.0,0.0,0.0,0.0,0.0,0.0,0.0
29012000000,321,29012000000,imu_link,-0.000217363145691,-0.366952396334,0.00144477392042,0.930238573811,0.0,0.0,0.0,0.0,0.0,0.0,0.0,0.0,0.0,-0.00311588656524,-0.0130211124085,0.00205465952886,0.0,0.0,0.0,0.0,0.0,0.0,0.0,0.0,0.0,5.94740843433,-0.0259700925559,7.58287755226,0.0,0.0,0.0,0.0,0.0,0.0,0.0,0.0,0.0
29016000000,322,29016000000,imu_link,-0.000224401888306,-0.366976433276,0.00144622256854,0.930229087647,0.0,0.0,0.0,0.0,0.0,0.0,0.0,0.0,0.0,-0.00302645744161,-0.0129156032915,0.00196947622506,0.0,0.0,0.0,0.0,0.0,0.0,0.0,0.0,0.0,5.94934079375,-0.0259828803064,7.57574717683,0.0,0.0,0.0,0.0,0.0,0.0,0.0,0.0,0.0
29020000000,323,29020000000,imu_link,-0.000230922049419,-0.367000015815,0.0014476162291,0.930219780199,0.0,0.0,0.0,0.0,0.0,0.0,0.0,0.0,0.0,-0.00279499857495,-0.012671830445,0.00184866887252,0.0,0.0,0.0,0.0,0.0,0.0,0.0,0.0,0.0,5.95210124886,-0.025901775648,7.57068506157,0.0,0.0,0.0,0.0,0.0,0.0,0.0,0.0,0.0
29024000000,324,29024000000,imu_link,-0.00023672391149,-0.367023071214,0.00144897212496,0.930210680243,0.0,0.0,0.0,0.0,0.0,0.0,0.0,0.0,0.0,-0.00246743490544,-0.0123890929909,0.00169920693068,0.0,0.0,0.0,0.0,0.0,0.0,0.0,0.0,0.0,5.95441540631,-0.0256999327738,7.56619624979,0.0,0.0,0.0,0.0,0.0,0.0,0.0,0.0,0.0
29028000000,325,29028000000,imu_link,-0.000241862546272,-0.367045664651,0.0014503225555,0.930201762054,0.0,0.0,0.0,0.0,0.0,0.0,0.0,0.0,0.0,-0.00215961110191,-0.0121413559964,0.00157487811612,0.0,0.0,0.0,0.0,0.0,0.0,0.0,0.0,0.0,5.95705953745,-0.0254462888418,7.56355436583,0.0,0.0,0.0,0.0,0.0,0.0,0.0,0.0,0.0
29032000000,326,29032000000,imu_link,-0.000246386627852,-0.367068034382,0.00145171797934,0.93019293157,0.0,0.0,0.0,0.0,0.0,0.0,0.0,0.0,0.0,-0.00186535173789,-0.012021665236,0.00148298344812,0.0,0.0,0.0,0.0,0.0,0.0,0.0,0.0,0.0,5.95924315486,-0.0252260275977,7.56112019534,0.0,0.0,0.0,0.0,0.0,0.0,0.0,0.0,0.0
29036000000,327,29036000000,imu_link,-0.000250132918469,-0.36709033411,0.00145320795839,0.930184128129,0.0,0.0,0.0,0.0,0.0,0.0,0.0,0.0,0.0,-0.00148619566769,-0.0119847196591,0.00138419863872,0.0,0.0,0.0,0.0,0.0,0.0,0.0,0.0,0.0,5.96190785989,-0.025066127229,7.55934681986,0.0,0.0,0.0,0.0,0.0,0.0,0.0,0.0,0.0
29040000000,328,29040000000,imu_link,-0.000252691613561,-0.367112790382,0.00145481288781,0.930175262413,0.0,0.0,0.0,0.0,0.0,0.0,0.0,0.0,0.0,-0.000912877365017,-0.0120698349844,0.00121970939143,0.0,0.0,0.0,0.0,0.0,0.0,0.0,0.0,0.0,5.9656610975,-0.0249269124614,7.56064139953,0.0,0.0,0.0,0.0,0.0,0.0,0.0,0.0,0.0
29044000000,329,29044000000,imu_link,-0.000253645291772,-0.367135608433,0.00145649894619,0.930166253578,0.0,0.0,0.0,0.0,0.0,0.0,0.0,0.0,0.0,-0.000151793368418,-0.0122655419695,0.000962888750818,0.0,0.0,0.0,0.0,0.0,0.0,0.0,0.0,0.0,5.96888948192,-0.0247731009526,7.5604186981,0.0,0.0,0.0,0.0,0.0,0.0,0.0,0.0,0.0
29048000000,330,29048000000,imu_link,-0.000252862075635,-0.367159026279,0.00145818659418,0.930157007808,0.0,0.0,0.0,0.0,0.0,0.0,0.0,0.0,0.0,0.000655831839155,-0.0125892551232,0.00064488665185,0.0,0.0,0.0,0.0,0.0,0.0,0.0,0.0,0.0,5.97305032494,-0.0245515032547,7.56262708763,0.0,0.0,0.0,0.0,0.0,0.0,0.0,0.0,0.0
29052000000,331,29052000000,imu_link,-0.000250498831052,-0.367183277712,0.00145980654887,0.930147432821,0.0,0.0,0.0,0.0,0.0,0.0,0.0,0.0,0.0,0.00137759261678,-0.0130385192023,0.000323477739866,0.0,0.0,0.0,0.0,0.0,0.0,0.0,0.0,0.0,5.97545453234,-0.0242552537515,7.56054137909,0.0,0.0,0.0,0.0,0.0,0.0,0.0,0.0,0.0
29056000000,332,29056000000,imu_link,-0.000246780131637,-0.367208383581,0.00146133598331,0.930137520276,0.0,0.0,0.0,0.0,0.0,0.0,0.0,0.0,0.0,0.00199069433704,-0.0134988462222,3.26683438658e-05,0.0,0.0,0.0,0.0,0.0,0.0,0.0,0.0,0.0,5.97720796583,-0.0239634245052,7.5552856572,0.0,0.0,0.0,0.0,0.0,0.0,0.0,0.0,0.0
29060000000,333,29060000000,imu_link,-0.000242119598831,-0.367234261422,0.00146277436802,0.930127302527,0.0,0.0,0.0,0.0,0.0,0.0,0.0,0.0,0.0,0.00241139279661,-0.0139145796191,-0.000182472855425,0.0,0.0,0.0,0.0,0.0,0.0,0.0,0.0,0.0,5.97998204023,-0.0236881870207,7.55184139259,0.0,0.0,0.0,0.0,0.0,0.0,0.0,0.0,0.0
29064000000,334,29064000000,imu_link,-0.000236926882048,-0.367260586609,0.00146415583374,0.930116907511,0.0,0.0,0.0,0.0,0.0,0.0,0.0,0.0,0.0,0.0026480922782,-0.0141555557471,-0.00030658640151,0.0,0.0,0.0,0.0,0.0,0.0,0.0,0.0,0.0,5.98343703028,-0.023467709142,7.54822955362,0.0,0.0,0.0,0.0,0.0,0.0,0.0,0.0,0.0
29068000000,335,29068000000,imu_link,-0.000231458159996,-0.367286970745,0.00146552396233,0.930106488413,0.0,0.0,0.0,0.0,0.0,0.0,0.0,0.0,0.0,0.00277395575181,-0.0141875933085,-0.000363461230783,0.0,0.0,0.0,0.0,0.0,0.0,0.0,0.0,0.0,5.98759719689,-0.0233284624187,7.5455711233,0.0,0.0,0.0,0.0,0.0,0.0,0.0,0.0,0.0
29072000000,336,29072000000,imu_link,-0.000225922907204,-0.367313253996,0.00146687479105,0.930096108301,0.0,0.0,0.0,0.0,0.0,0.0,0.0,0.0,0.0,0.00280179751553,-0.014133563197,-0.000383741423701,0.0,0.0,0.0,0.0,0.0,0.0,0.0,0.0,0.0,5.98913674664,-0.0231936589914,7.5388236521,0.0,0.0,0.0,0.0,0.0,0.0,0.0,0.0,0.0
29076000000,337,29076000000,imu_link,-0.000220396771202,-0.36733936148,0.00146819109991,0.930085796767,0.0,0.0,0.0,0.0,0.0,0.0,0.0,0.0,0.0,0.0027913546307,-0.0140392177976,-0.000398150898522,0.0,0.0,0.0,0.0,0.0,0.0,0.0,0.0,0.0,5.99131214303,-0.0231335928744,7.53430703721,0.0,0.0,0.0,0.0,0.0,0.0,0.0,0.0,0.0
29080000000,338,29080000000,imu_link,-0.00021489558848,-0.367365024119,0.00146945920477,0.930075660129,0.0,0.0,0.0,0.0,0.0,0.0,0.0,0.0,0.0,0.00277124250327,-0.0138001994124,-0.00041606403533,0.0,0.0,0.0,0.0,0.0,0.0,0.0,0.0,0.0,5.9938913159,-0.0230965380507,7.52957425264,0.0,0.0,0.0,0.0,0.0,0.0,0.0,0.0,0.0
29084000000,339,29084000000,imu_link,-0.000209172340415,-0.367390027877,0.00147068186549,0.930065783027,0.0,0.0,0.0,0.0,0.0,0.0,0.0,0.0,0.0,0.00286667598061,-0.0134462805486,-0.00047810669331,0.0,0.0,0.0,0.0,0.0,0.0,0.0,0.0,0.0,5.99640303443,-0.0230901523134,7.5251419222,0.0,0.0,0.0,0.0,0.0,0.0,0.0,0.0,0.0
29088000000,340,29088000000,imu_link,-0.000203065752646,-0.367414166813,0.00147185020647,0.930056246926,0.0,0.0,0.0,0.0,0.0,0.0,0.0,0.0,0.0,0.00303563488728,-0.0129817463177,-0.00057394505793,0.0,0.0,0.0,0.0,0.0,0.0,0.0,0.0,0.0,5.99912439237,-0.0230388944373,7.52096418864,0.0,0.0,0.0,0.0,0.0,0.0,0.0,0.0,0.0
29092000000,341,29092000000,imu_link,-0.000196546875116,-0.367437458117,0.00147294678441,0.930047045138,0.0,0.0,0.0,0.0,0.0,0.0,0.0,0.0,0.0,0.00321483558244,-0.0125264536209,-0.000683217402033,0.0,0.0,0.0,0.0,0.0,0.0,0.0,0.0,0.0,6.00124570739,-0.0229964922517,7.51749075628,0.0,0.0,0.0,0.0,0.0,0.0,0.0,0.0,0.0
29096000000,342,29096000000,imu_link,-0.000189806107668,-0.367460282807,0.00147395041303,0.930038027181,0.0,0.0,0.0,0.0,0.0,0.0,0.0,0.0,0.0,0.00330130479685,-0.0122758481501,-0.000767295888362,0.0,0.0,0.0,0.0,0.0,0.0,0.0,0.0,0.0,6.00380073225,-0.0229793420388,7.51793320994,0.0,0.0,0.0,0.0,0.0,0.0,0.0,0.0,0.0
29100000000,343,29100000000,imu_link,-0.000183249812573,-0.367483310696,0.001474809303,0.93002892843,0.0,0.0,0.0,0.0,0.0,0.0,0.0,0.0,0.0,0.00318877137189,-0.0123850345964,-0.000800668720521,0.0,0.0,0.0,0.0,0.0,0.0,0.0,0.0,0.0,6.00810717875,-0.0229291388578,7.52452349005,0.0,0.0,0.0,0.0,0.0,0.0,0.0,0.0,0.0
29104000000,344,29104000000,imu_link,-0.000177021022541,-0.367507084916,0.00147555547101,0.930019534169,0.0,0.0,0.0,0.0,0.0,0.0,0.0,0.0,0.0,0.00301518763819,-0.0127861345745,-0.000792760211119,0.0,0.0,0.0,0.0,0.0,0.0,0.0,0.0,0.0,6.01132843617,-0.0229619873163,7.5276126985,0.0,0.0,0.0,0.0,0.0,0.0,0.0,0.0,0.0
29108000000,345,29108000000,imu_link,-0.000171253927906,-0.367531927236,0.00147620417112,0.93000971713,0.0,0.0,0.0,0.0,0.0,0.0,0.0,0.0,0.0,0.00278175925622,-0.0133601494426,-0.000753028194558,0.0,0.0,0.0,0.0,0.0,0.0,0.0,0.0,0.0,6.01517457556,-0.0230134705022,7.5301773339,0.0,0.0,0.0,0.0,0.0,0.0,0.0,0.0,0.0
29112000000,346,29112000000,imu_link,-0.000165976975933,-0.367557652956,0.00147676032681,0.929999550206,0.0,0.0,0.0,0.0,0.0,0.0,0.0,0.0,0.0,0.00253615202156,-0.0138348622353,-0.000705807656106,0.0,0.0,0.0,0.0,0.0,0.0,0.0,0.0,0.0,6.01694193574,-0.0230496497012,7.52367438242,0.0,0.0,0.0,0.0,0.0,0.0,0.0,0.0,0.0
29116000000,347,29116000000,imu_link,-0.00016129681267,-0.367583719312,0.00147724669794,0.929989247799,0.0,0.0,0.0,0.0,0.0,0.0,0.0,0.0,0.0,0.0022455577191,-0.0140177097663,-0.000628508563583,0.0,0.0,0.0,0.0,0.0,0.0,0.0,0.0,0.0,6.01994452117,-0.0230459038309,7.51747683078,0.0,0.0,0.0,0.0,0.0,0.0,0.0,0.0,0.0
29120000000,348,29120000000,imu_link,-0.000157208887964,-0.367609538434,0.00147771517569,0.929979042181,0.0,0.0,0.0,0.0,0.0,0.0,0.0,0.0,0.0,0.0019670717368,-0.0138845201175,-0.000528031807453,0.0,0.0,0.0,0.0,0.0,0.0,0.0,0.0,0.0,6.02312697158,-0.0230716064007,7.51156418767,0.0,0.0,0.0,0.0,0.0,0.0,0.0,0.0,0.0
29124000000,349,29124000000,imu_link,-0.000153505823334,-0.36763473844,0.00147823317052,0.929969080322,0.0,0.0,0.0,0.0,0.0,0.0,0.0,0.0,0.0,0.00179769390628,-0.0135515524108,-0.000434399213616,0.0,0.0,0.0,0.0,0.0,0.0,0.0,0.0,0.0,6.02575705308,-0.0231285280099,7.50640001774,0.0,0.0,0.0,0.0,0.0,0.0,0.0,0.0,0.0
29128000000,350,29128000000,imu_link,-0.000149966497413,-0.367659496998,0.00147882749913,0.929959292037,0.0,0.0,0.0,0.0,0.0,0.0,0.0,0.0,0.0,0.00173592901794,-0.0133142648588,-0.000368901571891,0.0,0.0,0.0,0.0,0.0,0.0,0.0,0.0,0.0,6.02834939307,-0.0231521380912,7.50555227559,0.0,0.0,0.0,0.0,0.0,0.0,0.0,0.0,0.0
29132000000,351,29132000000,imu_link,-0.000146611430381,-0.367684483445,0.00147947447068,0.929949412761,0.0,0.0,0.0,0.0,0.0,0.0,0.0,0.0,0.0,0.0016597543979,-0.0134368234858,-0.000310501215072,0.0,0.0,0.0,0.0,0.0,0.0,0.0,0.0,0.0,6.03060355993,-0.0230951721087,7.5072043866,0.0,0.0,0.0,0.0,0.0,0.0,0.0,0.0,0.0
29136000000,352,29136000000,imu_link,-0.00014345733698,-0.367710252299,0.00148017996013,0.929939223198,0.0,0.0,0.0,0.0,0.0,0.0,0.0,0.0,0.0,0.00157646327991,-0.0138575226107,-0.000246172259528,0.0,0.0,0.0,0.0,0.0,0.0,0.0,0.0,0.0,6.03412039195,-0.0231029190939,7.51079682208,0.0,0.0,0.0,0.0,0.0,0.0,0.0,0.0,0.0
29140000000,353,29140000000,imu_link,-0.000140345230894,-0.36773704945,0.00148098829413,0.929928625992,0.0,0.0,0.0,0.0,0.0,0.0,0.0,0.0,0.0,0.00157505868326,-0.014410572698,-0.000190405146388,0.0,0.0,0.0,0.0,0.0,0.0,0.0,0.0,0.0,6.03692812045,-0.0232037482565,7.51036511242,0.0,0.0,0.0,0.0,0.0,0.0,0.0,0.0,0.0
29144000000,354,29144000000,imu_link,-0.000137072348647,-0.367764543008,0.00148192637743,0.929917752283,0.0,0.0,0.0,0.0,0.0,0.0,0.0,0.0,0.0,0.00167313558235,-0.0147853454388,-0.00015948215308,0.0,0.0,0.0,0.0,0.0,0.0,0.0,0.0,0.0,6.04030574991,-0.0232557540013,7.50711201322,0.0,0.0,0.0,0.0,0.0,0.0,0.0,0.0,0.0
29148000000,355,29148000000,imu_link,-0.000133334811555,-0.367792123273,0.00148300616431,0.929906843169,0.0,0.0,0.0,0.0,0.0,0.0,0.0,0.0,0.0,0.00191517108136,-0.0148325250002,-0.000179017308278,0.0,0.0,0.0,0.0,0.0,0.0,0.0,0.0,0.0,6.04414882793,-0.0232740919054,7.50315121443,0.0,0.0,0.0,0.0,0.0,0.0,0.0,0.0,0.0
29152000000,356,29152000000,imu_link,-0.000128890187659,-0.367819399296,0.00148422517949,0.929896053311,0.0,0.0,0.0,0.0,0.0,0.0,0.0,0.0,0.0,0.00226977059157,-0.0146696697803,-0.000244381262435,0.0,0.0,0.0,0.0,0.0,0.0,0.0,0.0,0.0,6.04610820374,-0.0232350234447,7.49683086725,0.0,0.0,0.0,0.0,0.0,0.0,0.0,0.0,0.0
29156000000,357,29156000000,imu_link,-0.000123641171486,-0.367846137021,0.00148560482147,0.929885475298,0.0,0.0,0.0,0.0,0.0,0.0,0.0,0.0,0.0,0.00267372515199,-0.0143810358077,-0.000317756209485,0.0,0.0,0.0,0.0,0.0,0.0,0.0,0.0,0.0,6.04760872291,-0.023108175545,7.49080437699,0.0,0.0,0.0,0.0,0.0,0.0,0.0,0.0,0.0
29160000000,358,29160000000,imu_link,-0.000117426388449,-0.367872213337,0.00148718955145,0.929875157821,0.0,0.0,0.0,0.0,0.0,0.0,0.0,0.0,0.0,0.00316097925961,-0.014026329906,-0.000400181475631,0.0,0.0,0.0,0.0,0.0,0.0,0.0,0.0,0.0,6.04954308554,-0.0229916676368,7.48641992025,0.0,0.0,0.0,0.0,0.0,0.0,0.0,0.0,0.0
29164000000,359,29164000000,imu_link,-0.00010998556463,-0.367897613645,0.00148900599267,0.929865106689,0.0,0.0,0.0,0.0,0.0,0.0,0.0,0.0,0.0,0.00377415006682,-0.0136639636979,-0.000518121748412,0.0,0.0,0.0,0.0,0.0,0.0,0.0,0.0,0.0,6.05181947803,-0.0228486489046,7.48395963056,0.0,0.0,0.0,0.0,0.0,0.0,0.0,0.0,0.0
29168000000,360,29168000000,imu_link,-0.000101096008843,-0.367922594241,0.00149108223442,0.929855220505,0.0,0.0,0.0,0.0,0.0,0.0,0.0,0.0,0.0,0.00449582426851,-0.0134395763662,-0.000663924257713,0.0,0.0,0.0,0.0,0.0,0.0,0.0,0.0,0.0,6.05469375027,-0.0226783451271,7.48491921709,0.0,0.0,0.0,0.0,0.0,0.0,0.0,0.0,0.0
29172000000,361,29172000000,imu_link,-9.06247602533e-05,-0.367947582645,0.00149339734176,0.929845330137,0.0,0.0,0.0,0.0,0.0,0.0,0.0,0.0,0.0,0.00527513291317,-0.0134451679291,-0.000843836588506,0.0,0.0,0.0,0.0,0.0,0.0,0.0,0.0,0.0,6.05650355541,-0.0224560390726,7.48450241757,0.0,0.0,0.0,0.0,0.0,0.0,0.0,0.0,0.0
29176000000,362,29176000000,imu_link,-7.86100963975e-05,-0.367972919459,0.00149593016155,0.92983530077,0.0,0.0,0.0,0.0,0.0,0.0,0.0,0.0,0.0,0.00603248858094,-0.0136338858472,-0.00102647709404,0.0,0.0,0.0,0.0,0.0,0.0,0.0,0.0,0.0,6.05824099743,-0.0221829914297,7.48296124504,0.0,0.0,0.0,0.0,0.0,0.0,0.0,0.0,0.0
29180000000,363,29180000000,imu_link,-6.52327850879e-05,-0.367998702452,0.00149863614103,0.929825093675,0.0,0.0,0.0,0.0,0.0,0.0,0.0,0.0,0.0,0.00669752576306,-0.0138750477195,-0.00119656537546,0.0,0.0,0.0,0.0,0.0,0.0,0.0,0.0,0.0,6.06070695628,-0.0219176169345,7.48091949333,0.0,0.0,0.0,0.0,0.0,0.0,0.0,0.0,0.0
29184000000,364,29184000000,imu_link,-5.09017337267e-05,-0.368024898353,0.00150147024314,0.929814721968,0.0,0.0,0.0,0.0,0.0,0.0,0.0,0.0,0.0,0.00716419119109,-0.0140980215029,-0.00131237723033,0.0,0.0,0.0,0.0,0.0,0.0,0.0,0.0,0.0,6.0637087166,-0.0217085410244,7.47938422787,0.0,0.0,0.0,0.0,0.0,0.0,0.0,0.0,0.0
29188000000,365,29188000000,imu_link,-3.59727589395e-05,-0.368051328038,0.00150440600583,0.929804256496,0.0,0.0,0.0,0.0,0.0,0.0,0.0,0.0,0.0,0.00746069910891,-0.0142244147631,-0.00137507539127,0.0,0.0,0.0,0.0,0.0,0.0,0.0,0.0,0.0,6.06549253938,-0.021621461071,7.47401951373,0.0,0.0,0.0,0.0,0.0,0.0,0.0,0.0,0.0
29192000000,366,29192000000,imu_link,-2.067105509e-05,-0.368077702622,0.00150742480676,0.929793811593,0.0,0.0,0.0,0.0,0.0,0.0,0.0,0.0,0.0,0.00764930462663,-0.0141952946089,-0.00140507693466,0.0,0.0,0.0,0.0,0.0,0.0,0.0,0.0,0.0,6.06694373051,-0.021569268842,7.46749769055,0.0,0.0,0.0,0.0,0.0,0.0,0.0,0.0,0.0
29196000000,367,29196000000,imu_link,-5.18592386818e-06,-0.368103874121,0.00151050891407,0.929783445859,0.0,0.0,0.0,0.0,0.0,0.0,0.0,0.0,0.0,0.00774675224334,-0.0140864501352,-0.00140853152937,0.0,0.0,0.0,0.0,0.0,0.0,0.0,0.0,0.0,6.06936671841,-0.0215435666463,7.46446505228,0.0,0.0,0.0,0.0,0.0,0.0,0.0,0.0,0.0
29200000000,368,29200000000,imu_link,1.02143459783e-05,-0.368129915946,0.00151360317626,0.929773130332,0.0,0.0,0.0,0.0,0.0,0.0,0.0,0.0,0.0,0.00770926798375,-0.014016860321,-0.00138822929713,0.0,0.0,0.0,0.0,0.0,0.0,0.0,0.0,0.0,6.07160814523,-0.0215512229838,7.46268561232,0.0,0.0,0.0,0.0,0.0,0.0,0.0,0.0,0.0
29204000000,369,29204000000,imu_link,2.50096780138e-05,-0.368156097545,0.00151660535406,0.929762758516,0.0,0.0,0.0,0.0,0.0,0.0,0.0,0.0,0.0,0.00741098551947,-0.0140917435216,-0.00131964692374,0.0,0.0,0.0,0.0,0.0,0.0,0.0,0.0,0.0,6.07569900476,-0.0215352554513,7.46594830581,0.0,0.0,0.0,0.0,0.0,0.0,0.0,0.0,0.0
29208000000,370,29208000000,imu_link,3.8687449752e-05,-0.368182567658,0.00151941700769,0.929752271709,0.0,0.0,0.0,0.0,0.0,0.0,0.0,0.0,0.0,0.00685616388714,-0.0142461903776,-0.00120240893638,0.0,0.0,0.0,0.0,0.0,0.0,0.0,0.0,0.0,6.07843666228,-0.0215823422935,7.46520544642,0.0,0.0,0.0,0.0,0.0,0.0,0.0,0.0,0.0
29212000000,371,29212000000,imu_link,5.09707898312e-05,-0.368209400742,0.0015220132045,0.929741640502,0.0,0.0,0.0,0.0,0.0,0.0,0.0,0.0,0.0,0.00616798920246,-0.0144404547317,-0.0010457502355,0.0,0.0,0.0,0.0,0.0,0.0,0.0,0.0,0.0,6.08012947261,-0.0217321528399,7.46188533727,0.0,0.0,0.0,0.0,0.0,0.0,0.0,0.0,0.0
29216000000,372,29216000000,imu_link,6.18680508472e-05,-0.368236529919,0.00152440597061,0.929730891383,0.0,0.0,0.0,0.0,0.0,0.0,0.0,0.0,0.0,0.00548596662189,-0.0145987579296,-0.000885038278034,0.0,0.0,0.0,0.0,0.0,0.0,0.0,0.0,0.0,6.08165722253,-0.0219381291731,7.45732072198,0.0,0.0,0.0,0.0,0.0,0.0,0.0,0.0,0.0
29220000000,373,29220000000,imu_link,7.15299374189e-05,-0.368263811926,0.00152663426121,0.929720081044,0.0,0.0,0.0,0.0,0.0,0.0,0.0,0.0,0.0,0.00488128618771,-0.0146801385757,-0.000733990877506,0.0,0.0,0.0,0.0,0.0,0.0,0.0,0.0,0.0,6.08299090838,-0.0221700329904,7.45177341843,0.0,0.0,0.0,0.0,0.0,0.0,0.0,0.0,0.0
29224000000,374,29224000000,imu_link,8.00575990562e-05,-0.368291112225,0.00152872304752,0.929709262755,0.0,0.0,0.0,0.0,0.0,0.0,0.0,0.0,0.0,0.00432832947167,-0.0146892447157,-0.000589987120574,0.0,0.0,0.0,0.0,0.0,0.0,0.0,0.0,0.0,6.08469958804,-0.0223427174204,7.44692636423,0.0,0.0,0.0,0.0,0.0,0.0,0.0,0.0,0.0
29228000000,375,29228000000,imu_link,8.75609961848e-05,-0.368318119856,0.00153067370347,0.929698559726,0.0,0.0,0.0,0.0,0.0,0.0,0.0,0.0,0.0,0.00382697836836,-0.0145311945843,-0.000465683718333,0.0,0.0,0.0,0.0,0.0,0.0,0.0,0.0,0.0,6.08745088277,-0.0225672410785,7.44360952239,0.0,0.0,0.0,0.0,0.0,0.0,0.0,0.0,0.0
29232000000,376,29232000000,imu_link,9.41424790869e-05,-0.368344530892,0.00153246424345,0.929688092455,0.0,0.0,0.0,0.0,0.0,0.0,0.0,0.0,0.0,0.00336938667128,-0.0142097527058,-0.000370541207576,0.0,0.0,0.0,0.0,0.0,0.0,0.0,0.0,0.0,6.08923970545,-0.02282812908,7.43820638053,0.0,0.0,0.0,0.0,0.0,0.0,0.0,0.0,0.0
29236000000,377,29236000000,imu_link,9.99689884646e-05,-0.368370138679,0.00153410729368,0.929677942866,0.0,0.0,0.0,0.0,0.0,0.0,0.0,0.0,0.0,0.00299187872327,-0.0137772871129,-0.000300336984812,0.0,0.0,0.0,0.0,0.0,0.0,0.0,0.0,0.0,6.09056112916,-0.0230193767414,7.43262842531,0.0,0.0,0.0,0.0,0.0,0.0,0.0,0.0,0.0
29240000000,378,29240000000,imu_link,0.000105438174802,-0.368394865344,0.00153564657023,0.929668141791,0.0,0.0,0.0,0.0,0.0,0.0,0.0,0.0,0.0,0.00280732593377,-0.0133032475943,-0.000283072836833,0.0,0.0,0.0,0.0,0.0,0.0,0.0,0.0,0.0,6.09262599662,-0.0231855925066,7.42976450289,0.0,0.0,0.0,0.0,0.0,0.0,0.0,0.0,0.0
29244000000,379,29244000000,imu_link,0.00011090229282,-0.368418895821,0.00153713569226,0.9296586159,0.0,0.0,0.0,0.0,0.0,0.0,0.0,0.0,0.0,0.00279625171497,-0.0129289462018,-0.000305700787753,0.0,0.0,0.0,0.0,0.0,0.0,0.0,0.0,0.0,6.095018852,-0.0232863170619,7.429405658,0.0,0.0,0.0,0.0,0.0,0.0,0.0,0.0,0.0
29248000000,380,29248000000,imu_link,0.000116607958641,-0.368442722686,0.00153865957165,0.929649169864,0.0,0.0,0.0,0.0,0.0,0.0,0.0,0.0,0.0,0.00291508490853,-0.0128197750251,-0.000334112601114,0.0,0.0,0.0,0.0,0.0,0.0,0.0,0.0,0.0,6.09857629885,-0.0232706841974,7.43375411933,0.0,0.0,0.0,0.0,0.0,0.0,0.0,0.0,0.0
29252000000,381,29252000000,imu_link,0.000122788309737,-0.368466659747,0.00154030232373,0.929639679148,0.0,0.0,0.0,0.0,0.0,0.0,0.0,0.0,0.0,0.00315754701104,-0.0128795856447,-0.000366264023532,0.0,0.0,0.0,0.0,0.0,0.0,0.0,0.0,0.0,6.10085206875,-0.0232159237194,7.43361978709,0.0,0.0,0.0,0.0,0.0,0.0,0.0,0.0,0.0
29256000000,382,29256000000,imu_link,0.00012953340226,-0.368490885566,0.00154206982729,0.929630072931,0.0,0.0,0.0,0.0,0.0,0.0,0.0,0.0,0.0,0.00344281811591,-0.0130355129315,-0.000412214570505,0.0,0.0,0.0,0.0,0.0,0.0,0.0,0.0,0.0,6.10287141277,-0.0230854643887,7.43197041079,0.0,0.0,0.0,0.0,0.0,0.0,0.0,0.0,0.0
29260000000,383,29260000000,imu_link,0.000136760373731,-0.368515558915,0.0015439079127,0.929620288334,0.0,0.0,0.0,0.0,0.0,0.0,0.0,0.0,0.0,0.00367947357065,-0.0132767641245,-0.000468024547458,0.0,0.0,0.0,0.0,0.0,0.0,0.0,0.0,0.0,6.10517137788,-0.0229182986974,7.43086339339,0.0,0.0,0.0,0.0,0.0,0.0,0.0,0.0,0.0
29264000000,384,29264000000,imu_link,0.000144358957499,-0.368540786439,0.00154577898984,0.929610283107,0.0,0.0,0.0,0.0,0.0,0.0,0.0,0.0,0.0,0.00385786900909,-0.0135752877405,-0.000520953901621,0.0,0.0,0.0,0.0,0.0,0.0,0.0,0.0,0.0,6.1078926153,-0.0227692881999,7.43040168574,0.0,0.0,0.0,0.0,0.0,0.0,0.0,0.0,0.0
