%time,field.header.seq,field.header.stamp,field.header.frame_id,field.orientation.x,field.orientation.y,field.orientation.z,field.orientation.w,field.orientation_covariance0,field.orientation_covariance1,field.orientation_covariance2,field.orientation_covariance3,field.orientation_covariance4,field.orientation_covariance5,field.orientation_covariance6,field.orientation_covariance7,field.orientation_covariance8,field.angular_velocity.x,field.angular_velocity.y,field.angular_velocity.z,field.angular_velocity_covariance0,field.angular_velocity_covariance1,field.angular_velocity_covariance2,field.angular_velocity_covariance3,field.angular_velocity_covariance4,field.angular_velocity_covariance5,field.angular_velocity_covariance6,field.angular_velocity_covariance7,field.angular_velocity_covariance8,field.linear_acceleration.x,field.linear_acceleration.y,field.linear_acceleration.z,field.linear_acceleration_covariance0,field.linear_acceleration_covariance1,field.linear_acceleration_covariance2,field.linear_acceleration_covariance3,field.linear_acceleration_covariance4,field.linear_acceleration_covariance5,field.linear_acceleration_covariance6,field.linear_acceleration_covariance7,field.linear_acceleration_covariance8
44564000000,0,44564000000,imu_link,-0.000928460979499,-0.367519346194,0.00518148868361,0.93000097866,0.0,0.0,0.0,0.0,0.0,0.0,0.0,0.0,0.0,-0.00160390433907,-0.0213270416591,0.00150040698725,0.0,0.0,0.0,0.0,0.0,0.0,0.0,0.0,0.0,6.04295454113,-0.0423723944168,7.53889682245,0.0,0.0,0.0,0.0,0.0,0.0,0.0,0.0,0.0
44568000000,1,44568000000,imu_link,-0.000933854744311,-0.367558362766,0.00518295771566,0.929985545493,0.0,0.0,0.0,0.0,0.0,0.0,0.0,0.0,0.0,-0.00234640093883,-0.0209654271368,0.00169612779454,0.0,0.0,0.0,0.0,0.0,0.0,0.0,0.0,0.0,6.04647807886,-0.0425901263457,7.5332700994,0.0,0.0,0.0,0.0,0.0,0.0,0.0,0.0,0.0
44572000000,2,44572000000,imu_link,-0.000940742912815,-0.367596314316,0.00518427455267,0.929970530717,0.0,0.0,0.0,0.0,0.0,0.0,0.0,0.0,0.0,-0.00306630279894,-0.020389364217,0.0018994115163,0.0,0.0,0.0,0.0,0.0,0.0,0.0,0.0,0.0,6.04789118773,-0.0428228419508,7.52612476552,0.0,0.0,0.0,0.0,0.0,0.0,0.0,0.0,0.0
44576000000,3,44576000000,imu_link,-0.000948490762127,-0.367633230465,0.00518551509427,0.929955922964,0.0,0.0,0.0,0.0,0.0,0.0,0.0,0.0,0.0,-0.00347718930431,-0.0198308430965,0.00202137499109,0.0,0.0,0.0,0.0,0.0,0.0,0.0,0.0,0.0,6.04961945641,-0.0431477678644,7.52330325305,0.0,0.0,0.0,0.0,0.0,0.0,0.0,0.0,0.0
44580000000,4,44580000000,imu_link,-0.000956397806716,-0.367669662436,0.00518674517336,0.929941504774,0.0,0.0,0.0,0.0,0.0,0.0,0.0,0.0,0.0,-0.00355178953282,-0.0195704490981,0.00204551101739,0.0,0.0,0.0,0.0,0.0,0.0,0.0,0.0,0.0,6.05272902258,-0.0433824646207,7.52707343144,0.0,0.0,0.0,0.0,0.0,0.0,0.0,0.0,0.0
44584000000,5,44584000000,imu_link,-0.000963834532553,-0.36770619781,0.00518804613186,0.92992704407,0.0,0.0,0.0,0.0,0.0,0.0,0.0,0.0,0.0,-0.00332036345374,-0.0196275973639,0.0019920677125,0.0,0.0,0.0,0.0,0.0,0.0,0.0,0.0,0.0,6.05525633293,-0.0435658224924,7.52976902912,0.0,0.0,0.0,0.0,0.0,0.0,0.0,0.0,0.0
44588000000,6,44588000000,imu_link,-0.00097059142922,-0.367743302453,0.00518946544312,0.92991235657,0.0,0.0,0.0,0.0,0.0,0.0,0.0,0.0,0.0,-0.00298409416027,-0.0199358043592,0.00192242270182,0.0,0.0,0.0,0.0,0.0,0.0,0.0,0.0,0.0,6.05652940416,-0.0436275168418,7.52837420228,0.0,0.0,0.0,0.0,0.0,0.0,0.0,0.0,0.0
44592000000,7,44592000000,imu_link,-0.000976898940879,-0.367781081268,0.00519096555843,0.929897400688,0.0,0.0,0.0,0.0,0.0,0.0,0.0,0.0,0.0,-0.00276217179092,-0.0202998178111,0.00187773308788,0.0,0.0,0.0,0.0,0.0,0.0,0.0,0.0,0.0,6.05772223474,-0.0435611409828,7.52394369194,0.0,0.0,0.0,0.0,0.0,0.0,0.0,0.0,0.0
44596000000,8,44596000000,imu_link,-0.000982985130679,-0.367819468407,0.00519249856156,0.92988220241,0.0,0.0,0.0,0.0,0.0,0.0,0.0,0.0,0.0,-0.00265491801384,-0.020627821985,0.00185265723733,0.0,0.0,0.0,0.0,0.0,0.0,0.0,0.0,0.0,6.05954620025,-0.0435266146824,7.51984674707,0.0,0.0,0.0,0.0,0.0,0.0,0.0,0.0,0.0
44600000000,9,44600000000,imu_link,-0.000988801006217,-0.367858290547,0.00519405375299,0.929866830333,0.0,0.0,0.0,0.0,0.0,0.0,0.0,0.0,0.0,-0.00252637195246,-0.0208627481445,0.00181349749112,0.0,0.0,0.0,0.0,0.0,0.0,0.0,0.0,0.0,6.06102409856,-0.0435689979753,7.5140255011,0.0,0.0,0.0,0.0,0.0,0.0,0.0,0.0,0.0
44604000000,10,44604000000,imu_link,-0.000993913138804,-0.367897411678,0.00519564190828,0.929851338614,0.0,0.0,0.0,0.0,0.0,0.0,0.0,0.0,0.0,-0.00219395095951,-0.021025608183,0.00169954754623,0.0,0.0,0.0,0.0,0.0,0.0,0.0,0.0,0.0,6.0629628416,-0.0436646286317,7.5098796607,0.0,0.0,0.0,0.0,0.0,0.0,0.0,0.0,0.0
44608000000,11,44608000000,imu_link,-0.000997887835855,-0.367936606941,0.00519730168077,0.929835816447,0.0,0.0,0.0,0.0,0.0,0.0,0.0,0.0,0.0,-0.0016521618064,-0.0210686659652,0.00152365668403,0.0,0.0,0.0,0.0,0.0,0.0,0.0,0.0,0.0,6.06530229299,-0.0437486384119,7.5052791443,0.0,0.0,0.0,0.0,0.0,0.0,0.0,0.0,0.0
44612000000,12,44612000000,imu_link,-0.00100051580352,-0.367975622024,0.00519908237904,0.929820364429,0.0,0.0,0.0,0.0,0.0,0.0,0.0,0.0,0.0,-0.00100329345895,-0.0209755516658,0.00133202932853,0.0,0.0,0.0,0.0,0.0,0.0,0.0,0.0,0.0,6.06680948337,-0.0437007156173,7.49869950053,0.0,0.0,0.0,0.0,0.0,0.0,0.0,0.0,0.0
44616000000,13,44616000000,imu_link,-0.00100172357251,-0.368014113298,0.00520102867698,0.929805118433,0.0,0.0,0.0,0.0,0.0,0.0,0.0,0.0,0.0,-0.000311095585416,-0.0206978966812,0.0011474455334,0.0,0.0,0.0,0.0,0.0,0.0,0.0,0.0,0.0,6.06932987871,-0.0435502396884,7.4941853704,0.0,0.0,0.0,0.0,0.0,0.0,0.0,0.0,0.0
44620000000,14,44620000000,imu_link,-0.00100169872887,-0.368051942883,0.00520314861668,0.929790132871,0.0,0.0,0.0,0.0,0.0,0.0,0.0,0.0,0.0,0.000295751662121,-0.0203456462615,0.00100101676417,0.0,0.0,0.0,0.0,0.0,0.0,0.0,0.0,0.0,6.07153978058,-0.0432884363491,7.4909833017,0.0,0.0,0.0,0.0,0.0,0.0,0.0,0.0,0.0
44624000000,15,44624000000,imu_link,-0.00100083364272,-0.368089108154,0.00520544304377,0.929775408447,0.0,0.0,0.0,0.0,0.0,0.0,0.0,0.0,0.0,0.000720345523715,-0.0199910277001,0.000927161996374,0.0,0.0,0.0,0.0,0.0,0.0,0.0,0.0,0.0,6.07274142716,-0.0430272624407,7.48660105271,0.0,0.0,0.0,0.0,0.0,0.0,0.0,0.0,0.0
44628000000,16,44628000000,imu_link,-0.00099972053763,-0.36812586043,0.00520784549883,0.929760845479,0.0,0.0,0.0,0.0,0.0,0.0,0.0,0.0,0.0,0.000856684146715,-0.019770015408,0.000931522780976,0.0,0.0,0.0,0.0,0.0,0.0,0.0,0.0,0.0,6.07534579956,-0.0428313752368,7.48745547128,0.0,0.0,0.0,0.0,0.0,0.0,0.0,0.0,0.0
44632000000,17,44632000000,imu_link,-0.000998857338797,-0.368162350351,0.00521031092909,0.92974638409,0.0,0.0,0.0,0.0,0.0,0.0,0.0,0.0,0.0,0.000752832947402,-0.019628735826,0.00100666383634,0.0,0.0,0.0,0.0,0.0,0.0,0.0,0.0,0.0,6.077258729,-0.0428295210258,7.48614663106,0.0,0.0,0.0,0.0,0.0,0.0,0.0,0.0,0.0
44636000000,18,44636000000,imu_link,-0.000998638409275,-0.368198627367,0.00521280505123,0.929732004499,0.0,0.0,0.0,0.0,0.0,0.0,0.0,0.0,0.0,0.000459206555344,-0.0195130401001,0.00113849300643,0.0,0.0,0.0,0.0,0.0,0.0,0.0,0.0,0.0,6.07971876366,-0.0429791324632,7.48485331568,0.0,0.0,0.0,0.0,0.0,0.0,0.0,0.0,0.0
44640000000,19,44640000000,imu_link,-0.000999111468433,-0.368234622677,0.00521531493162,0.929717734008,0.0,0.0,0.0,0.0,0.0,0.0,0.0,0.0,0.0,0.00014121434053,-0.0193602037,0.00127306942507,0.0,0.0,0.0,0.0,0.0,0.0,0.0,0.0,0.0,6.08161099848,-0.043231074641,7.4814291858,0.0,0.0,0.0,0.0,0.0,0.0,0.0,0.0,0.0
44644000000,20,44644000000,imu_link,-0.00100017480114,-0.368270408956,0.00521778582176,0.929703544281,0.0,0.0,0.0,0.0,0.0,0.0,0.0,0.0,0.0,-0.000139772905622,-0.0192466046901,0.00136351785594,0.0,0.0,0.0,0.0,0.0,0.0,0.0,0.0,0.0,6.08227609448,-0.0434786040706,7.47629401732,0.0,0.0,0.0,0.0,0.0,0.0,0.0,0.0,0.0
44648000000,21,44648000000,imu_link,-0.001001672195,-0.368305947883,0.00522016256811,0.929689451005,0.0,0.0,0.0,0.0,0.0,0.0,0.0,0.0,0.0,-0.000358188636735,-0.0191126838057,0.00139955295665,0.0,0.0,0.0,0.0,0.0,0.0,0.0,0.0,0.0,6.08460824003,-0.0437042638083,7.47430869824,0.0,0.0,0.0,0.0,0.0,0.0,0.0,0.0,0.0
44652000000,22,44652000000,imu_link,-0.00100336373643,-0.36834126238,0.0052224351612,0.929675445443,0.0,0.0,0.0,0.0,0.0,0.0,0.0,0.0,0.0,-0.000466987535856,-0.0189916466006,0.00138677417672,0.0,0.0,0.0,0.0,0.0,0.0,0.0,0.0,0.0,6.08739177541,-0.0439423761614,7.4732371649,0.0,0.0,0.0,0.0,0.0,0.0,0.0,0.0,0.0
44656000000,23,44656000000,imu_link,-0.00100498258709,-0.368376688945,0.00522466064532,0.929661394258,0.0,0.0,0.0,0.0,0.0,0.0,0.0,0.0,0.0,-0.000442189731289,-0.0190523086667,0.00135155155556,0.0,0.0,0.0,0.0,0.0,0.0,0.0,0.0,0.0,6.09004978185,-0.0441529542641,7.47396304894,0.0,0.0,0.0,0.0,0.0,0.0,0.0,0.0,0.0
44660000000,24,44660000000,imu_link,-0.00100620500321,-0.368412652321,0.00522693101516,0.929647128944,0.0,0.0,0.0,0.0,0.0,0.0,0.0,0.0,0.0,-0.000251157293158,-0.0193423331451,0.00129968682622,0.0,0.0,0.0,0.0,0.0,0.0,0.0,0.0,0.0,6.09219825501,-0.0442594900345,7.47427128482,0.0,0.0,0.0,0.0,0.0,0.0,0.0,0.0,0.0
44664000000,25,44664000000,imu_link,-0.00100702854134,-0.368449575775,0.0052292436622,0.929632481691,0.0,0.0,0.0,0.0,0.0,0.0,0.0,0.0,0.0,-6.06629580271e-05,-0.0198600195646,0.00124637758379,0.0,0.0,0.0,0.0,0.0,0.0,0.0,0.0,0.0,6.09287058752,-0.0441974181801,7.47137169719,0.0,0.0,0.0,0.0,0.0,0.0,0.0,0.0,0.0
44668000000,26,44668000000,imu_link,-0.00100754564192,-0.368487619398,0.00523156514913,0.929617388998,0.0,0.0,0.0,0.0,0.0,0.0,0.0,0.0,0.0,8.02496176631e-05,-0.020463558732,0.00119463375172,0.0,0.0,0.0,0.0,0.0,0.0,0.0,0.0,0.0,6.09399776651,-0.0441480493363,7.46746202539,0.0,0.0,0.0,0.0,0.0,0.0,0.0,0.0,0.0
44672000000,27,44672000000,imu_link,-0.00100792182655,-0.368526763596,0.00523385545281,0.92960185852,0.0,0.0,0.0,0.0,0.0,0.0,0.0,0.0,0.0,0.000136903842739,-0.0210561281018,0.00115476732308,0.0,0.0,0.0,0.0,0.0,0.0,0.0,0.0,0.0,6.09630393831,-0.0441128631738,7.46477772953,0.0,0.0,0.0,0.0,0.0,0.0,0.0,0.0,0.0
44676000000,28,44676000000,imu_link,-0.00100826739496,-0.368566919604,0.00523611044539,0.929585925194,0.0,0.0,0.0,0.0,0.0,0.0,0.0,0.0,0.0,0.000141776901347,-0.0216007102476,0.00113325755882,0.0,0.0,0.0,0.0,0.0,0.0,0.0,0.0,0.0,6.09714086161,-0.0441677791023,7.45865946313,0.0,0.0,0.0,0.0,0.0,0.0,0.0,0.0,0.0
44680000000,29,44680000000,imu_link,-0.00100863933406,-0.368607888176,0.00523834060117,0.929569667754,0.0,0.0,0.0,0.0,0.0,0.0,0.0,0.0,0.0,0.000122652237723,-0.0220380315819,0.00112701217004,0.0,0.0,0.0,0.0,0.0,0.0,0.0,0.0,0.0,6.09839590944,-0.0443036977104,7.45263116699,0.0,0.0,0.0,0.0,0.0,0.0,0.0,0.0,0.0
44684000000,30,44684000000,imu_link,-0.00100916129426,-0.36864950342,0.00524055223625,0.929553151699,0.0,0.0,0.0,0.0,0.0,0.0,0.0,0.0,0.0,4.76871010612e-05,-0.0223858567518,0.00114640474503,0.0,0.0,0.0,0.0,0.0,0.0,0.0,0.0,0.0,6.09950630703,-0.0444049536283,7.44641884822,0.0,0.0,0.0,0.0,0.0,0.0,0.0,0.0,0.0
44688000000,31,44688000000,imu_link,-0.00101012631266,-0.368691495935,0.00524272470077,0.929536483581,0.0,0.0,0.0,0.0,0.0,0.0,0.0,0.0,0.0,-0.000166521359383,-0.0225880518167,0.0012100738609,0.0,0.0,0.0,0.0,0.0,0.0,0.0,0.0,0.0,6.10179236847,-0.0444871502513,7.44246353564,0.0,0.0,0.0,0.0,0.0,0.0,0.0,0.0,0.0
44692000000,32,44692000000,imu_link,-0.00101168375786,-0.368733511534,0.00524482031113,0.929519803892,0.0,0.0,0.0,0.0,0.0,0.0,0.0,0.0,0.0,-0.000456096616324,-0.0225993218402,0.00128358452269,0.0,0.0,0.0,0.0,0.0,0.0,0.0,0.0,0.0,6.10405396634,-0.0446213260445,7.43800060643,0.0,0.0,0.0,0.0,0.0,0.0,0.0,0.0,0.0
44696000000,33,44696000000,imu_link,-0.00101373817527,-0.368775172854,0.00524683915578,0.929503262447,0.0,0.0,0.0,0.0,0.0,0.0,0.0,0.0,0.0,-0.000700223418045,-0.0224078371753,0.00133934872533,0.0,0.0,0.0,0.0,0.0,0.0,0.0,0.0,0.0,6.10597172713,-0.0448141542623,7.43296594428,0.0,0.0,0.0,0.0,0.0,0.0,0.0,0.0,0.0
44700000000,34,44700000000,imu_link,-0.00101615877431,-0.368816241226,0.0052487890133,0.929486954101,0.0,0.0,0.0,0.0,0.0,0.0,0.0,0.0,0.0,-0.000881453596338,-0.0220882874816,0.00137449522799,0.0,0.0,0.0,0.0,0.0,0.0,0.0,0.0,0.0,6.10734892712,-0.0450522299131,7.42728105052,0.0,0.0,0.0,0.0,0.0,0.0,0.0,0.0,0.0
44704000000,35,44704000000,imu_link,-0.00101891426496,-0.368856537174,0.00525066917388,0.929470950203,0.0,0.0,0.0,0.0,0.0,0.0,0.0,0.0,0.0,-0.00104776314466,-0.0216722515683,0.00140345422104,0.0,0.0,0.0,0.0,0.0,0.0,0.0,0.0,0.0,6.1080490809,-0.0451716334746,7.42042752239,0.0,0.0,0.0,0.0,0.0,0.0,0.0,0.0,0.0
44708000000,36,44708000000,imu_link,-0.00102215269272,-0.368895948763,0.00525248567028,0.929455295097,0.0,0.0,0.0,0.0,0.0,0.0,0.0,0.0,0.0,-0.00128144319209,-0.0211956310631,0.00146246931439,0.0,0.0,0.0,0.0,0.0,0.0,0.0,0.0,0.0,6.10912414057,-0.0452212729954,7.41509386107,0.0,0.0,0.0,0.0,0.0,0.0,0.0,0.0,0.0
44712000000,37,44712000000,imu_link,-0.00102611664398,-0.368934365516,0.00525423854469,0.929440032494,0.0,0.0,0.0,0.0,0.0,0.0,0.0,0.0,0.0,-0.00162753569227,-0.0206589690038,0.00156620139309,0.0,0.0,0.0,0.0,0.0,0.0,0.0,0.0,0.0,6.11113805993,-0.0452539090633,7.41233620988,0.0,0.0,0.0,0.0,0.0,0.0,0.0,0.0,0.0
44716000000,38,44716000000,imu_link,-0.00103052653473,-0.368971714155,0.00525599069941,0.929425191573,0.0,0.0,0.0,0.0,0.0,0.0,0.0,0.0,0.0,-0.00183188304154,-0.0200836366495,0.00164756833417,0.0,0.0,0.0,0.0,0.0,0.0,0.0,0.0,0.0,6.1134268708,-0.0454060722495,7.4104123094,0.0,0.0,0.0,0.0,0.0,0.0,0.0,0.0,0.0
44720000000,39,44720000000,imu_link,-0.00103474903035,-0.369008163362,0.00525782005082,0.929410705767,0.0,0.0,0.0,0.0,0.0,0.0,0.0,0.0,0.0,-0.00172800978972,-0.0196006776923,0.00164840105995,0.0,0.0,0.0,0.0,0.0,0.0,0.0,0.0,0.0,6.11645087298,-0.0456091420983,7.41215855488,0.0,0.0,0.0,0.0,0.0,0.0,0.0,0.0,0.0
44724000000,40,44724000000,imu_link,-0.00103808236955,-0.36904395082,0.00525977748104,0.92939648132,0.0,0.0,0.0,0.0,0.0,0.0,0.0,0.0,0.0,-0.00128930807884,-0.0192473415492,0.00154352226326,0.0,0.0,0.0,0.0,0.0,0.0,0.0,0.0,0.0,6.11888548655,-0.0457905494434,7.41313415341,0.0,0.0,0.0,0.0,0.0,0.0,0.0,0.0,0.0
44728000000,41,44728000000,imu_link,-0.00104020706317,-0.369079324164,0.00526188902723,0.929382420195,0.0,0.0,0.0,0.0,0.0,0.0,0.0,0.0,0.0,-0.000698040977719,-0.0190280258249,0.00139190343729,0.0,0.0,0.0,0.0,0.0,0.0,0.0,0.0,0.0,6.1203123582,-0.0458394441349,7.4112778218,0.0,0.0,0.0,0.0,0.0,0.0,0.0,0.0,0.0
44732000000,42,44732000000,imu_link,-0.00104120930712,-0.369114412791,0.00526410374923,0.929368471256,0.0,0.0,0.0,0.0,0.0,0.0,0.0,0.0,0.0,-0.000156601022216,-0.0188780237016,0.00123256477232,0.0,0.0,0.0,0.0,0.0,0.0,0.0,0.0,0.0,6.12254122989,-0.0457747368723,7.4103383047,0.0,0.0,0.0,0.0,0.0,0.0,0.0,0.0,0.0
44736000000,43,44736000000,imu_link,-0.00104155738251,-0.36914905818,0.0052663268332,0.929354697521,0.0,0.0,0.0,0.0,0.0,0.0,0.0,0.0,0.0,0.000150181884652,-0.0186414494946,0.0011154885312,0.0,0.0,0.0,0.0,0.0,0.0,0.0,0.0,0.0,6.12572952668,-0.0456496423615,7.40965406573,0.0,0.0,0.0,0.0,0.0,0.0,0.0,0.0,0.0
44740000000,44,44740000000,imu_link,-0.00104189488519,-0.369182979727,0.00526844988145,0.929341210412,0.0,0.0,0.0,0.0,0.0,0.0,0.0,0.0,0.0,0.000138686007543,-0.0182521685045,0.0010666749726,0.0,0.0,0.0,0.0,0.0,0.0,0.0,0.0,0.0,6.12922202663,-0.045541645178,7.40900721062,0.0,0.0,0.0,0.0,0.0,0.0,0.0,0.0,0.0
44744000000,45,44744000000,imu_link,-0.00104246378759,-0.369216171559,0.00527042765711,0.929328012341,0.0,0.0,0.0,0.0,0.0,0.0,0.0,0.0,0.0,6.41807890663e-06,-0.017859051893,0.00104150424487,0.0,0.0,0.0,0.0,0.0,0.0,0.0,0.0,0.0,6.13041108771,-0.0456099319486,7.40473143107,0.0,0.0,0.0,0.0,0.0,0.0,0.0,0.0,0.0
44748000000,46,44748000000,imu_link,-0.00104311179585,-0.369248739842,0.00527230805908,0.929315061113,0.0,0.0,0.0,0.0,0.0,0.0,0.0,0.0,0.0,-4.65436903637e-05,-0.0175234826064,0.00101053630598,0.0,0.0,0.0,0.0,0.0,0.0,0.0,0.0,0.0,6.13185297852,-0.0457680416152,7.40179363572,0.0,0.0,0.0,0.0,0.0,0.0,0.0,0.0,0.0
44752000000,47,44752000000,imu_link,-0.00104363155053,-0.36928085675,0.00527416415963,0.929302288205,0.0,0.0,0.0,0.0,0.0,0.0,0.0,0.0,0.0,9.84656679443e-06,-0.0172811513763,0.000975331066232,0.0,0.0,0.0,0.0,0.0,0.0,0.0,0.0,0.0,6.13384104901,-0.0458597211257,7.40085749523,0.0,0.0,0.0,0.0,0.0,0.0,0.0,0.0,0.0
44756000000,48,44756000000,imu_link,-0.00104386174293,-0.369312655655,0.00527605360233,0.929289640523,0.0,0.0,0.0,0.0,0.0,0.0,0.0,0.0,0.0,0.000151452267924,-0.017111049658,0.0009371943433,0.0,0.0,0.0,0.0,0.0,0.0,0.0,0.0,0.0,6.13572450407,-0.0458584531405,7.39956581079,0.0,0.0,0.0,0.0,0.0,0.0,0.0,0.0,0.0
44760000000,49,44760000000,imu_link,-0.00104400157241,-0.369344217178,0.0052780158632,0.929277085613,0.0,0.0,0.0,0.0,0.0,0.0,0.0,0.0,0.0,0.00020755990546,-0.0169838973009,0.000954222004539,0.0,0.0,0.0,0.0,0.0,0.0,0.0,0.0,0.0,6.13815836301,-0.0458188705237,7.39931503066,0.0,0.0,0.0,0.0,0.0,0.0,0.0,0.0,0.0
44764000000,50,44764000000,imu_link,-0.00104430504107,-0.369375734975,0.00528003795496,0.929264546315,0.0,0.0,0.0,0.0,0.0,0.0,0.0,0.0,0.0,0.000142699468864,-0.0169602967614,0.0010122229605,0.0,0.0,0.0,0.0,0.0,0.0,0.0,0.0,0.0,6.14074285507,-0.045804576378,7.39991819131,0.0,0.0,0.0,0.0,0.0,0.0,0.0,0.0,0.0
44768000000,51,44768000000,imu_link,-0.00104477450831,-0.36940725089,0.00528209360364,0.929252006144,0.0,0.0,0.0,0.0,0.0,0.0,0.0,0.0,0.0,7.17732429869e-05,-0.0169591625235,0.00105847579546,0.0,0.0,0.0,0.0,0.0,0.0,0.0,0.0,0.0,6.14188638021,-0.0459391007245,7.3962528548,0.0,0.0,0.0,0.0,0.0,0.0,0.0,0.0,0.0
44772000000,52,44772000000,imu_link,-0.00104523370107,-0.369438699608,0.00528417902366,0.929239491289,0.0,0.0,0.0,0.0,0.0,0.0,0.0,0.0,0.0,8.22366115861e-05,-0.0169233076136,0.00107037884735,0.0,0.0,0.0,0.0,0.0,0.0,0.0,0.0,0.0,6.14301894504,-0.0461456632208,7.39143899309,0.0,0.0,0.0,0.0,0.0,0.0,0.0,0.0,0.0
44776000000,53,44776000000,imu_link,-0.00104549620806,-0.369470036673,0.00528626635248,0.9292270198,0.0,0.0,0.0,0.0,0.0,0.0,0.0,0.0,0.0,0.000174290948136,-0.0168639419397,0.0010348778177,0.0,0.0,0.0,0.0,0.0,0.0,0.0,0.0,0.0,6.1461642223,-0.0463155478656,7.39156043766,0.0,0.0,0.0,0.0,0.0,0.0,0.0,0.0,0.0
44780000000,54,44780000000,imu_link,-0.00104562516691,-0.369501267729,0.00528832371718,0.929214589558,0.0,0.0,0.0,0.0,0.0,0.0,0.0,0.0,0.0,0.000231105558248,-0.0168074062137,0.000996231461275,0.0,0.0,0.0,0.0,0.0,0.0,0.0,0.0,0.0,6.14822356831,-0.0463866807165,7.38976635194,0.0,0.0,0.0,0.0,0.0,0.0,0.0,0.0,0.0
44784000000,55,44784000000,imu_link,-0.00104570749477,-0.369532433729,0.00529033553175,0.929202184279,0.0,0.0,0.0,0.0,0.0,0.0,0.0,0.0,0.0,0.000244540303843,-0.0167726681985,0.000966421436939,0.0,0.0,0.0,0.0,0.0,0.0,0.0,0.0,0.0,6.14952644696,-0.0464472172219,7.38642650565,0.0,0.0,0.0,0.0,0.0,0.0,0.0,0.0,0.0
44788000000,56,44788000000,imu_link,-0.00104580152249,-0.369563552058,0.00529229384595,0.929189797036,0.0,0.0,0.0,0.0,0.0,0.0,0.0,0.0,0.0,0.000229355010481,-0.0167471286935,0.000943704065928,0.0,0.0,0.0,0.0,0.0,0.0,0.0,0.0,0.0,6.15109819903,-0.0465250359103,7.38343501948,0.0,0.0,0.0,0.0,0.0,0.0,0.0,0.0,0.0
44792000000,57,44792000000,imu_link,-0.0010460422225,-0.369594533335,0.00529421382531,0.929177463149,0.0,0.0,0.0,0.0,0.0,0.0,0.0,0.0,0.0,0.000154518790643,-0.0166731880109,0.000952926731933,0.0,0.0,0.0,0.0,0.0,0.0,0.0,0.0,0.0,6.15327791703,-0.0466456366458,7.38043303535,0.0,0.0,0.0,0.0,0.0,0.0,0.0,0.0,0.0
44796000000,58,44796000000,imu_link,-0.00104681442018,-0.369625380308,0.0052961341698,0.929165180888,0.0,0.0,0.0,0.0,0.0,0.0,0.0,0.0,0.0,-9.19590443153e-05,-0.0165998443777,0.00105124927215,0.0,0.0,0.0,0.0,0.0,0.0,0.0,0.0,0.0,6.15655006267,-0.0466815346573,7.38099884623,0.0,0.0,0.0,0.0,0.0,0.0,0.0,0.0,0.0
44800000000,59,44800000000,imu_link,-0.00104841982236,-0.369656079584,0.00529808285856,0.929152955094,0.0,0.0,0.0,0.0,0.0,0.0,0.0,0.0,0.0,-0.000473392302134,-0.0165185997861,0.00121833206861,0.0,0.0,0.0,0.0,0.0,0.0,0.0,0.0,0.0,6.15935337979,-0.0467301187916,7.38061225346,0.0,0.0,0.0,0.0,0.0,0.0,0.0,0.0,0.0
44804000000,60,44804000000,imu_link,-0.00105082097039,-0.369686638521,0.00530008933343,0.929140782728,0.0,0.0,0.0,0.0,0.0,0.0,0.0,0.0,0.0,-0.00083199684657,-0.0164414491522,0.00139218631839,0.0,0.0,0.0,0.0,0.0,0.0,0.0,0.0,0.0,6.16087643023,-0.0468645588786,7.37751974913,0.0,0.0,0.0,0.0,0.0,0.0,0.0,0.0,0.0
44808000000,61,44808000000,imu_link,-0.00105371652076,-0.369716891817,0.00530217924342,0.929128729769,0.0,0.0,0.0,0.0,0.0,0.0,0.0,0.0,0.0,-0.00104538640803,-0.0162761193432,0.00152217892451,0.0,0.0,0.0,0.0,0.0,0.0,0.0,0.0,0.0,6.16222431438,-0.0470364242861,7.3728503493,0.0,0.0,0.0,0.0,0.0,0.0,0.0,0.0,0.0
44812000000,62,44812000000,imu_link,-0.00105673845651,-0.369746532692,0.00530436863099,0.929116918659,0.0,0.0,0.0,0.0,0.0,0.0,0.0,0.0,0.0,-0.0010839602758,-0.0159466198685,0.00159143756291,0.0,0.0,0.0,0.0,0.0,0.0,0.0,0.0,0.0,6.16492581597,-0.047220260494,7.37030513044,0.0,0.0,0.0,0.0,0.0,0.0,0.0,0.0,0.0
44816000000,63,44816000000,imu_link,-0.00105976196475,-0.369775347572,0.00530665769521,0.929105434607,0.0,0.0,0.0,0.0,0.0,0.0,0.0,0.0,0.0,-0.0010638997436,-0.0155024807186,0.00163760291754,0.0,0.0,0.0,0.0,0.0,0.0,0.0,0.0,0.0,6.16584730124,-0.0473465380405,7.36476814543,0.0,0.0,0.0,0.0,0.0,0.0,0.0,0.0,0.0
44820000000,64,44820000000,imu_link,-0.00106274993705,-0.369803349667,0.00530904666709,0.929094272483,0.0,0.0,0.0,0.0,0.0,0.0,0.0,0.0,0.0,-0.00102659256016,-0.015065526146,0.00167702163557,0.0,0.0,0.0,0.0,0.0,0.0,0.0,0.0,0.0,6.16748363709,-0.0474808372677,7.362530388,0.0,0.0,0.0,0.0,0.0,0.0,0.0,0.0,0.0
44824000000,65,44824000000,imu_link,-0.0010656572757,-0.36983061139,0.00531153745754,0.929083403588,0.0,0.0,0.0,0.0,0.0,0.0,0.0,0.0,0.0,-0.000968186853781,-0.0146676382751,0.00170902689363,0.0,0.0,0.0,0.0,0.0,0.0,0.0,0.0,0.0,6.16780580747,-0.0476049193474,7.35790673522,0.0,0.0,0.0,0.0,0.0,0.0,0.0,0.0,0.0
44828000000,66,44828000000,imu_link,-0.00106856936573,-0.369857323652,0.00531408072931,0.929072752182,0.0,0.0,0.0,0.0,0.0,0.0,0.0,0.0,0.0,-0.00095911434965,-0.0143721889817,0.00173400043254,0.0,0.0,0.0,0.0,0.0,0.0,0.0,0.0,0.0,6.16895655228,-0.0476792684976,7.35574370641,0.0,0.0,0.0,0.0,0.0,0.0,0.0,0.0,0.0
44832000000,67,44832000000,imu_link,-0.00107161909393,-0.369883614687,0.00531663383902,0.929062267355,0.0,0.0,0.0,0.0,0.0,0.0,0.0,0.0,0.0,-0.00102002474777,-0.0141453481222,0.00176380619971,0.0,0.0,0.0,0.0,0.0,0.0,0.0,0.0,0.0,6.17071282742,-0.0477517656118,7.35451083466,0.0,0.0,0.0,0.0,0.0,0.0,0.0,0.0,0.0
44836000000,68,44836000000,imu_link,-0.00107516649146,-0.369909673065,0.00531912942402,0.929051874037,0.0,0.0,0.0,0.0,0.0,0.0,0.0,0.0,0.0,-0.00126117886304,-0.0140189938636,0.00182900544299,0.0,0.0,0.0,0.0,0.0,0.0,0.0,0.0,0.0,6.17393958581,-0.0478429718816,7.35641104334,0.0,0.0,0.0,0.0,0.0,0.0,0.0,0.0,0.0
44840000000,69,44840000000,imu_link,-0.00107952282986,-0.369935473253,0.00532153088837,0.92904158226,0.0,0.0,0.0,0.0,0.0,0.0,0.0,0.0,0.0,-0.00165361968924,-0.0138780755687,0.00193477023453,0.0,0.0,0.0,0.0,0.0,0.0,0.0,0.0,0.0,6.17516327843,-0.0479282042277,7.35244193752,0.0,0.0,0.0,0.0,0.0,0.0,0.0,0.0,0.0
44844000000,70,44844000000,imu_link,-0.00108479636966,-0.36996072246,0.00532381340464,0.92903150865,0.0,0.0,0.0,0.0,0.0,0.0,0.0,0.0,0.0,-0.0021000965762,-0.0135792747606,0.00204888594874,0.0,0.0,0.0,0.0,0.0,0.0,0.0,0.0,0.0,6.1767490809,-0.0480589133628,7.34731645693,0.0,0.0,0.0,0.0,0.0,0.0,0.0,0.0,0.0
44848000000,71,44848000000,imu_link,-0.00109093122032,-0.369985189591,0.00532596422714,0.929021745417,0.0,0.0,0.0,0.0,0.0,0.0,0.0,0.0,0.0,-0.00252229963603,-0.0131562103882,0.00214663571731,0.0,0.0,0.0,0.0,0.0,0.0,0.0,0.0,0.0,6.17838229889,-0.0481909993015,7.34290831812,0.0,0.0,0.0,0.0,0.0,0.0,0.0,0.0,0.0
44852000000,72,44852000000,imu_link,-0.00109796745511,-0.370009059433,0.00532793584786,0.929012219244,0.0,0.0,0.0,0.0,0.0,0.0,0.0,0.0,0.0,-0.00297243349562,-0.0128324107198,0.00222983844659,0.0,0.0,0.0,0.0,0.0,0.0,0.0,0.0,0.0,6.18029494123,-0.0483152532097,7.34248144854,0.0,0.0,0.0,0.0,0.0,0.0,0.0,0.0,0.0
44856000000,73,44856000000,imu_link,-0.00110582237961,-0.370032852427,0.00532972658273,0.929002722976,0.0,0.0,0.0,0.0,0.0,0.0,0.0,0.0,0.0,-0.00338596342698,-0.0127889014754,0.00229723968645,0.0,0.0,0.0,0.0,0.0,0.0,0.0,0.0,0.0,6.18360365857,-0.0484845037219,7.34745078721,0.0,0.0,0.0,0.0,0.0,0.0,0.0,0.0,0.0
44860000000,74,44860000000,imu_link,-0.00111414544673,-0.370056841193,0.00533140068659,0.928993148055,0.0,0.0,0.0,0.0,0.0,0.0,0.0,0.0,0.0,-0.00362556016198,-0.0128930781062,0.00232977985374,0.0,0.0,0.0,0.0,0.0,0.0,0.0,0.0,0.0,6.18789634932,-0.048751074611,7.35283745128,0.0,0.0,0.0,0.0,0.0,0.0,0.0,0.0,0.0
44864000000,75,44864000000,imu_link,-0.00112258955678,-0.37008094532,0.00533301440502,0.928983526582,0.0,0.0,0.0,0.0,0.0,0.0,0.0,0.0,0.0,-0.00369329065826,-0.0129549196582,0.00232418724008,0.0,0.0,0.0,0.0,0.0,0.0,0.0,0.0,0.0,6.19004184023,-0.0489571162883,7.35047018629,0.0,0.0,0.0,0.0,0.0,0.0,0.0,0.0,0.0
44868000000,76,44868000000,imu_link,-0.00113097192038,-0.370105109035,0.00533461057947,0.928973880741,0.0,0.0,0.0,0.0,0.0,0.0,0.0,0.0,0.0,-0.00366802885632,-0.0129872621425,0.00230464414984,0.0,0.0,0.0,0.0,0.0,0.0,0.0,0.0,0.0,6.19132610653,-0.049070652176,7.34658934181,0.0,0.0,0.0,0.0,0.0,0.0,0.0,0.0,0.0
44872000000,77,44872000000,imu_link,-0.00113911606431,-0.37012940949,0.0053362572516,0.928964179613,0.0,0.0,0.0,0.0,0.0,0.0,0.0,0.0,0.0,-0.00354843019605,-0.0130616708557,0.00228408663964,0.0,0.0,0.0,0.0,0.0,0.0,0.0,0.0,0.0,6.19354686384,-0.0491528856605,7.34592462841,0.0,0.0,0.0,0.0,0.0,0.0,0.0,0.0,0.0
44876000000,78,44876000000,imu_link,-0.00114695092354,-0.370153997243,0.00533798493738,0.928954363112,0.0,0.0,0.0,0.0,0.0,0.0,0.0,0.0,0.0,-0.00339061248443,-0.013217337856,0.00226462254858,0.0,0.0,0.0,0.0,0.0,0.0,0.0,0.0,0.0,6.19559542618,-0.0491835758571,7.34556377742,0.0,0.0,0.0,0.0,0.0,0.0,0.0,0.0,0.0
44880000000,79,44880000000,imu_link,-0.00115450292597,-0.370179131654,0.00533972754401,0.928944328214,0.0,0.0,0.0,0.0,0.0,0.0,0.0,0.0,0.0,-0.00325805472097,-0.013512432384,0.00221947206194,0.0,0.0,0.0,0.0,0.0,0.0,0.0,0.0,0.0,6.19845129669,-0.0491988578916,7.34772127171,0.0,0.0,0.0,0.0,0.0,0.0,0.0,0.0,0.0
44884000000,80,44884000000,imu_link,-0.00116172553969,-0.370205017129,0.0053413977414,0.928933993972,0.0,0.0,0.0,0.0,0.0,0.0,0.0,0.0,0.0,-0.0031206430685,-0.013917524035,0.00212523922272,0.0,0.0,0.0,0.0,0.0,0.0,0.0,0.0,0.0,6.20214602169,-0.0492511550295,7.35090800815,0.0,0.0,0.0,0.0,0.0,0.0,0.0,0.0,0.0
44888000000,81,44888000000,imu_link,-0.00116877735652,-0.370231753442,0.00534292186279,0.92892332078,0.0,0.0,0.0,0.0,0.0,0.0,0.0,0.0,0.0,-0.00307082179611,-0.0143758216447,0.00202618782237,0.0,0.0,0.0,0.0,0.0,0.0,0.0,0.0,0.0,6.20496477767,-0.0491985400114,7.35151797364,0.0,0.0,0.0,0.0,0.0,0.0,0.0,0.0,0.0
44892000000,82,44892000000,imu_link,-0.00117573042211,-0.370259266132,0.00534431090831,0.928912338083,0.0,0.0,0.0,0.0,0.0,0.0,0.0,0.0,0.0,-0.00305221524672,-0.0147938978315,0.00194554296471,0.0,0.0,0.0,0.0,0.0,0.0,0.0,0.0,0.0,6.20711783784,-0.0491216996846,7.34932424563,0.0,0.0,0.0,0.0,0.0,0.0,0.0,0.0,0.0
44896000000,83,44896000000,imu_link,-0.00118256978489,-0.370287360631,0.00534559460346,0.928901123212,0.0,0.0,0.0,0.0,0.0,0.0,0.0,0.0,0.0,-0.00302059992653,-0.0151073473267,0.00187584095686,0.0,0.0,0.0,0.0,0.0,0.0,0.0,0.0,0.0,6.20954472861,-0.049105063558,7.34687202612,0.0,0.0,0.0,0.0,0.0,0.0,0.0,0.0,0.0
44900000000,84,44900000000,imu_link,-0.0011892055384,-0.370315748852,0.00534682101975,0.928889790797,0.0,0.0,0.0,0.0,0.0,0.0,0.0,0.0,0.0,-0.00293749286678,-0.0152660390171,0.00181168128109,0.0,0.0,0.0,0.0,0.0,0.0,0.0,0.0,0.0,6.212216607,-0.049112541989,7.34436332472,0.0,0.0,0.0,0.0,0.0,0.0,0.0,0.0,0.0
44904000000,85,44904000000,imu_link,-0.00119511073082,-0.370344185487,0.00534801865717,0.928878439131,0.0,0.0,0.0,0.0,0.0,0.0,0.0,0.0,0.0,-0.00260365700996,-0.0152940254931,0.00166306862443,0.0,0.0,0.0,0.0,0.0,0.0,0.0,0.0,0.0,6.21421626532,-0.0491899389324,7.34131744285,0.0,0.0,0.0,0.0,0.0,0.0,0.0,0.0,0.0
44908000000,86,44908000000,imu_link,-0.00119952182614,-0.370372395248,0.00534922103383,0.928867178783,0.0,0.0,0.0,0.0,0.0,0.0,0.0,0.0,0.0,-0.00190820091305,-0.0151757451659,0.00138849601431,0.0,0.0,0.0,0.0,0.0,0.0,0.0,0.0,0.0,6.21706086036,-0.0492678648862,7.33972726373,0.0,0.0,0.0,0.0,0.0,0.0,0.0,0.0,0.0
44912000000,87,44912000000,imu_link,-0.00120187295576,-0.370399960094,0.00535044654845,0.928856177126,0.0,0.0,0.0,0.0,0.0,0.0,0.0,0.0,0.0,-0.000945318768109,-0.0148338420088,0.00101745973926,0.0,0.0,0.0,0.0,0.0,0.0,0.0,0.0,0.0,6.2205015039,-0.0492358906799,7.33826572689,0.0,0.0,0.0,0.0,0.0,0.0,0.0,0.0,0.0
44916000000,88,44916000000,imu_link,-0.00120216500172,-0.370426702896,0.00535168062211,0.928845504966,0.0,0.0,0.0,0.0,0.0,0.0,0.0,0.0,0.0,1.4959814364e-05,-0.0143965524992,0.000639705061302,0.0,0.0,0.0,0.0,0.0,0.0,0.0,0.0,0.0,6.22210993434,-0.049030835965,7.33480472848,0.0,0.0,0.0,0.0,0.0,0.0,0.0,0.0,0.0
44920000000,89,44920000000,imu_link,-0.00120063462325,-0.370452774901,0.0053528925162,0.928835101935,0.0,0.0,0.0,0.0,0.0,0.0,0.0,0.0,0.0,0.000859183949715,-0.0140400360197,0.00029155008758,0.0,0.0,0.0,0.0,0.0,0.0,0.0,0.0,0.0,6.22294732868,-0.0487757398199,7.33232835877,0.0,0.0,0.0,0.0,0.0,0.0,0.0,0.0,0.0
44924000000,90,44924000000,imu_link,-0.00119795625326,-0.370478682938,0.00535400688985,0.928824765496,0.0,0.0,0.0,0.0,0.0,0.0,0.0,0.0,0.0,0.00137474682422,-0.0139545659889,3.35417619347e-05,0.0,0.0,0.0,0.0,0.0,0.0,0.0,0.0,0.0,6.22574278469,-0.0484985541053,7.33698201804,0.0,0.0,0.0,0.0,0.0,0.0,0.0,0.0,0.0
44928000000,91,44928000000,imu_link,-0.00119468889892,-0.370504999221,0.00535494687504,0.928814267125,0.0,0.0,0.0,0.0,0.0,0.0,0.0,0.0,0.0,0.00161478497616,-0.0141756285689,-0.000156360506194,0.0,0.0,0.0,0.0,0.0,0.0,0.0,0.0,0.0,6.22813154205,-0.04834769271,7.34059055359,0.0,0.0,0.0,0.0,0.0,0.0,0.0,0.0,0.0
44932000000,92,44932000000,imu_link,-0.00119134366223,-0.370532099687,0.00535565654887,0.928803456467,0.0,0.0,0.0,0.0,0.0,0.0,0.0,0.0,0.0,0.00160600216796,-0.0145977319524,-0.000277378930705,0.0,0.0,0.0,0.0,0.0,0.0,0.0,0.0,0.0,6.2301386915,-0.0482300594622,7.34182889829,0.0,0.0,0.0,0.0,0.0,0.0,0.0,0.0,0.0
44936000000,93,44936000000,imu_link,-0.0011885246156,-0.370559898445,0.00535607350308,0.928792367298,0.0,0.0,0.0,0.0,0.0,0.0,0.0,0.0,0.0,0.00130537178303,-0.014972035212,-0.000315503425075,0.0,0.0,0.0,0.0,0.0,0.0,0.0,0.0,0.0,6.23226179271,-0.0481373355804,7.33995434572,0.0,0.0,0.0,0.0,0.0,0.0,0.0,0.0,0.0
44940000000,94,44940000000,imu_link,-0.00118689752389,-0.370588070181,0.00535614571557,0.928781128801,0.0,0.0,0.0,0.0,0.0,0.0,0.0,0.0,0.0,0.000686871147288,-0.0151695152145,-0.000254576558879,0.0,0.0,0.0,0.0,0.0,0.0,0.0,0.0,0.0,6.23470360124,-0.0481404071203,7.33707903187,0.0,0.0,0.0,0.0,0.0,0.0,0.0,0.0,0.0
44944000000,95,44944000000,imu_link,-0.00118694375272,-0.37061635502,0.00535586022623,0.928769844104,0.0,0.0,0.0,0.0,0.0,0.0,0.0,0.0,0.0,-0.000156813452388,-0.0152259059535,-0.000110576993229,0.0,0.0,0.0,0.0,0.0,0.0,0.0,0.0,0.0,6.23530342836,-0.0482589505931,7.3309363543,0.0,0.0,0.0,0.0,0.0,0.0,0.0,0.0,0.0
44948000000,96,44948000000,imu_link,-0.00118864391835,-0.370644648074,0.00535528310399,0.928758554697,0.0,0.0,0.0,0.0,0.0,0.0,0.0,0.0,0.0,-0.000978943520617,-0.0152259916893,6.04888415005e-05,0.0,0.0,0.0,0.0,0.0,0.0,0.0,0.0,0.0,6.23571470353,-0.0485337084284,7.32553756105,0.0,0.0,0.0,0.0,0.0,0.0,0.0,0.0,0.0
44952000000,97,44952000000,imu_link,-0.00119179590564,-0.370672940976,0.00535448205321,0.928747263777,0.0,0.0,0.0,0.0,0.0,0.0,0.0,0.0,0.0,-0.00169463886666,-0.0152221808891,0.000225560173704,0.0,0.0,0.0,0.0,0.0,0.0,0.0,0.0,0.0,6.23684933516,-0.0488948485595,7.32233840124,0.0,0.0,0.0,0.0,0.0,0.0,0.0,0.0,0.0
44956000000,98,44956000000,imu_link,-0.00119609202707,-0.370701137758,0.00535351435762,0.928736009699,0.0,0.0,0.0,0.0,0.0,0.0,0.0,0.0,0.0,-0.00225655065961,-0.0151675549346,0.000360183137708,0.0,0.0,0.0,0.0,0.0,0.0,0.0,0.0,0.0,6.23896604805,-0.0492703664952,7.320241764,0.0,0.0,0.0,0.0,0.0,0.0,0.0,0.0,0.0
44960000000,99,44960000000,imu_link,-0.00120077855035,-0.370729103134,0.00535248197159,0.92872484685,0.0,0.0,0.0,0.0,0.0,0.0,0.0,0.0,0.0,-0.00244915722206,-0.0150421038606,0.000402398370371,0.0,0.0,0.0,0.0,0.0,0.0,0.0,0.0,0.0,6.24284125539,-0.0496561719746,7.32188530404,0.0,0.0,0.0,0.0,0.0,0.0,0.0,0.0,0.0
44964000000,100,44964000000,imu_link,-0.00120531574359,-0.370756568528,0.00535144602386,0.928713882815,0.0,0.0,0.0,0.0,0.0,0.0,0.0,0.0,0.0,-0.00237901674131,-0.0147734762207,0.000372832068759,0.0,0.0,0.0,0.0,0.0,0.0,0.0,0.0,0.0,6.24454104727,-0.0498562232701,7.31819724058,0.0,0.0,0.0,0.0,0.0,0.0,0.0,0.0,0.0
44968000000,101,44968000000,imu_link,-0.00120953593161,-0.370783459663,0.00535043006249,0.928703147384,0.0,0.0,0.0,0.0,0.0,0.0,0.0,0.0,0.0,-0.00222643379988,-0.0144652966519,0.000323081382712,0.0,0.0,0.0,0.0,0.0,0.0,0.0,0.0,0.0,6.24515251104,-0.0498994780329,7.31384335624,0.0,0.0,0.0,0.0,0.0,0.0,0.0,0.0,0.0
44972000000,102,44972000000,imu_link,-0.00121336786117,-0.370809957042,0.0053494769688,0.928692568395,0.0,0.0,0.0,0.0,0.0,0.0,0.0,0.0,0.0,-0.00203334222707,-0.0142545288774,0.000280113799379,0.0,0.0,0.0,0.0,0.0,0.0,0.0,0.0,0.0,6.24645333645,-0.0499226395692,7.31255044101,0.0,0.0,0.0,0.0,0.0,0.0,0.0,0.0,0.0
44976000000,103,44976000000,imu_link,-0.00121688833967,-0.370836717135,0.005348630087,0.928681883404,0.0,0.0,0.0,0.0,0.0,0.0,0.0,0.0,0.0,-0.0018697958768,-0.0143970699496,0.000271812460973,0.0,0.0,0.0,0.0,0.0,0.0,0.0,0.0,0.0,6.24966942513,-0.049901442167,7.31878672617,0.0,0.0,0.0,0.0,0.0,0.0,0.0,0.0,0.0
44980000000,104,44980000000,imu_link,-0.00122023978393,-0.370864310138,0.00534789068917,0.928670864486,0.0,0.0,0.0,0.0,0.0,0.0,0.0,0.0,0.0,-0.00177380749513,-0.0148462579879,0.000290765866854,0.0,0.0,0.0,0.0,0.0,0.0,0.0,0.0,0.0,6.25315000022,-0.0498495786514,7.32496265062,0.0,0.0,0.0,0.0,0.0,0.0,0.0,0.0,0.0
44984000000,105,44984000000,imu_link,-0.00122355420401,-0.370892932911,0.0053472571078,0.92865943277,0.0,0.0,0.0,0.0,0.0,0.0,0.0,0.0,0.0,-0.00173999949025,-0.0154011265074,0.000333510237847,0.0,0.0,0.0,0.0,0.0,0.0,0.0,0.0,0.0,6.25479500958,-0.0497705903343,7.32431888732,0.0,0.0,0.0,0.0,0.0,0.0,0.0,0.0,0.0
44988000000,106,44988000000,imu_link,-0.00122679617502,-0.370922495562,0.00534675093233,0.928647623973,0.0,0.0,0.0,0.0,0.0,0.0,0.0,0.0,0.0,-0.00168547583119,-0.0159077395167,0.000379666341691,0.0,0.0,0.0,0.0,0.0,0.0,0.0,0.0,0.0,6.25465933811,-0.0497464198209,7.31770429993,0.0,0.0,0.0,0.0,0.0,0.0,0.0,0.0,0.0
44992000000,107,44992000000,imu_link,-0.0012297156834,-0.370952699568,0.00534642104687,0.928635557291,0.0,0.0,0.0,0.0,0.0,0.0,0.0,0.0,0.0,-0.0015049265564,-0.0162543339944,0.00040201368657,0.0,0.0,0.0,0.0,0.0,0.0,0.0,0.0,0.0,6.25636207453,-0.0497674281343,7.31324636833,0.0,0.0,0.0,0.0,0.0,0.0,0.0,0.0,0.0
44996000000,108,44996000000,imu_link,-0.00123220761068,-0.370983347531,0.00534629846351,0.928623311474,0.0,0.0,0.0,0.0,0.0,0.0,0.0,0.0,0.0,-0.00126924034668,-0.0164949664295,0.000419167444875,0.0,0.0,0.0,0.0,0.0,0.0,0.0,0.0,0.0,6.25759894595,-0.049765651719,7.30907038427,0.0,0.0,0.0,0.0,0.0,0.0,0.0,0.0,0.0
45000000000,109,45000000000,imu_link,-0.0012343962381,-0.371014524942,0.00534638919902,0.928610852118,0.0,0.0,0.0,0.0,0.0,0.0,0.0,0.0,0.0,-0.00109039266883,-0.0167813476637,0.00046219891798,0.0,0.0,0.0,0.0,0.0,0.0,0.0,0.0,0.0,6.26018008799,-0.0497397526361,7.30984366621,0.0,0.0,0.0,0.0,0.0,0.0,0.0,0.0,0.0
45004000000,110,45004000000,imu_link,-0.0012369487966,-0.371046662782,0.00534656730782,0.92859800679,0.0,0.0,0.0,0.0,0.0,0.0,0.0,0.0,0.0,-0.00124596510077,-0.0172979617322,0.000570717669445,0.0,0.0,0.0,0.0,0.0,0.0,0.0,0.0,0.0,6.26284457728,-0.0496848281566,7.31379319193,0.0,0.0,0.0,0.0,0.0,0.0,0.0,0.0,0.0
45008000000,111,45008000000,imu_link,-0.00124068666845,-0.371080296908,0.00534667143129,0.928584561065,0.0,0.0,0.0,0.0,0.0,0.0,0.0,0.0,0.0,-0.00181440223892,-0.0181008584659,0.000756949251545,0.0,0.0,0.0,0.0,0.0,0.0,0.0,0.0,0.0,6.26710965008,-0.0496999524396,7.32207784129,0.0,0.0,0.0,0.0,0.0,0.0,0.0,0.0,0.0
45012000000,112,45012000000,imu_link,-0.00124593808068,-0.371115637612,0.005346650591,0.928570430547,0.0,0.0,0.0,0.0,0.0,0.0,0.0,0.0,0.0,-0.00254530021124,-0.0190161431046,0.000980524070552,0.0,0.0,0.0,0.0,0.0,0.0,0.0,0.0,0.0,6.2678736082,-0.0498877068854,7.32027569941,0.0,0.0,0.0,0.0,0.0,0.0,0.0,0.0,0.0
45016000000,113,45016000000,imu_link,-0.00125279063811,-0.371152593214,0.00534650037822,0.928555651536,0.0,0.0,0.0,0.0,0.0,0.0,0.0,0.0,0.0,-0.00331741547333,-0.0198818878124,0.00121829094124,0.0,0.0,0.0,0.0,0.0,0.0,0.0,0.0,0.0,6.2689806282,-0.0501516444453,7.31664754669,0.0,0.0,0.0,0.0,0.0,0.0,0.0,0.0,0.0
45020000000,114,45020000000,imu_link,-0.00126105139884,-0.371190889359,0.00534622951248,0.928540333661,0.0,0.0,0.0,0.0,0.0,0.0,0.0,0.0,0.0,-0.0039975245148,-0.0206004327333,0.00142420441352,0.0,0.0,0.0,0.0,0.0,0.0,0.0,0.0,0.0,6.27026100025,-0.0504888991093,7.31117196695,0.0,0.0,0.0,0.0,0.0,0.0,0.0,0.0,0.0
45024000000,115,45024000000,imu_link,-0.00127032312033,-0.371229989494,0.00534584952553,0.928524691687,0.0,0.0,0.0,0.0,0.0,0.0,0.0,0.0,0.0,-0.00448948935193,-0.0210310816653,0.00156153182235,0.0,0.0,0.0,0.0,0.0,0.0,0.0,0.0,0.0,6.27237798615,-0.0507588454802,7.3056814716,0.0,0.0,0.0,0.0,0.0,0.0,0.0,0.0,0.0
45028000000,116,45028000000,imu_link,-0.0012802964103,-0.371269327431,0.00534538351012,0.928508952151,0.0,0.0,0.0,0.0,0.0,0.0,0.0,0.0,0.0,-0.00483186694316,-0.0211576626454,0.00165192341198,0.0,0.0,0.0,0.0,0.0,0.0,0.0,0.0,0.0,6.27485372347,-0.0508961778788,7.30112549591,0.0,0.0,0.0,0.0,0.0,0.0,0.0,0.0,0.0
45032000000,117,45032000000,imu_link,-0.00129077382361,-0.371308517058,0.00534486417385,0.928493269491,0.0,0.0,0.0,0.0,0.0,0.0,0.0,0.0,0.0,-0.00507537386678,-0.0210768700216,0.0017206946553,0.0,0.0,0.0,0.0,0.0,0.0,0.0,0.0,0.0,6.27537690432,-0.0509746939424,7.29413333478,0.0,0.0,0.0,0.0,0.0,0.0,0.0,0.0,0.0
45036000000,118,45036000000,imu_link,-0.00130160076713,-0.371347163815,0.00534435824661,0.928477801348,0.0,0.0,0.0,0.0,0.0,0.0,0.0,0.0,0.0,-0.00523356341599,-0.0207840926343,0.00179158860318,0.0,0.0,0.0,0.0,0.0,0.0,0.0,0.0,0.0,6.27674936682,-0.051043340116,7.28911095124,0.0,0.0,0.0,0.0,0.0,0.0,0.0,0.0,0.0
45040000000,119,45040000000,imu_link,-0.00131257073315,-0.371384962644,0.00534393119827,0.928462669729,0.0,0.0,0.0,0.0,0.0,0.0,0.0,0.0,0.0,-0.00528282946609,-0.0203276370293,0.00185441534289,0.0,0.0,0.0,0.0,0.0,0.0,0.0,0.0,0.0,6.27839398267,-0.0511036553961,7.28551787386,0.0,0.0,0.0,0.0,0.0,0.0,0.0,0.0,0.0
45044000000,120,45044000000,imu_link,-0.00132345591759,-0.371421636629,0.00534360359556,0.928447985732,0.0,0.0,0.0,0.0,0.0,0.0,0.0,0.0,0.0,-0.00522170558946,-0.0197226209859,0.0018843799996,0.0,0.0,0.0,0.0,0.0,0.0,0.0,0.0,0.0,6.27925699292,-0.0511828133569,7.28043551863,0.0,0.0,0.0,0.0,0.0,0.0,0.0,0.0,0.0
45048000000,121,45048000000,imu_link,-0.00133389759668,-0.371456819659,0.00534337776011,0.928433896494,0.0,0.0,0.0,0.0,0.0,0.0,0.0,0.0,0.0,-0.00499254337509,-0.0189212832194,0.00184865658869,0.0,0.0,0.0,0.0,0.0,0.0,0.0,0.0,0.0,6.28044496574,-0.0512725143284,7.27542760083,0.0,0.0,0.0,0.0,0.0,0.0,0.0,0.0,0.0
45052000000,122,45052000000,imu_link,-0.00134347216666,-0.371490253315,0.00534324207898,0.928420506311,0.0,0.0,0.0,0.0,0.0,0.0,0.0,0.0,0.0,-0.00456813239139,-0.0179817363225,0.00172876004513,0.0,0.0,0.0,0.0,0.0,0.0,0.0,0.0,0.0,6.28217718866,-0.0513138763162,7.2728735352,0.0,0.0,0.0,0.0,0.0,0.0,0.0,0.0,0.0
45056000000,123,45056000000,imu_link,-0.00135212369467,-0.371521774849,0.00534317803908,0.928407880741,0.0,0.0,0.0,0.0,0.0,0.0,0.0,0.0,0.0,-0.00412071775576,-0.0169546007486,0.00158980777815,0.0,0.0,0.0,0.0,0.0,0.0,0.0,0.0,0.0,6.28311648233,-0.0512284979446,7.26966580031,0.0,0.0,0.0,0.0,0.0,0.0,0.0,0.0,0.0
45060000000,124,45060000000,imu_link,-0.00136024131968,-0.371551499561,0.00534315057018,0.928395973526,0.0,0.0,0.0,0.0,0.0,0.0,0.0,0.0,0.0,-0.00386079839214,-0.0159885175986,0.00150690149486,0.0,0.0,0.0,0.0,0.0,0.0,0.0,0.0,0.0,6.28378273014,-0.0510657885693,7.26807504163,0.0,0.0,0.0,0.0,0.0,0.0,0.0,0.0,0.0
45064000000,125,45064000000,imu_link,-0.00136841070152,-0.371579608361,0.00534309033884,0.928384712007,0.0,0.0,0.0,0.0,0.0,0.0,0.0,0.0,0.0,-0.00388615409192,-0.0151182992836,0.00150068239071,0.0,0.0,0.0,0.0,0.0,0.0,0.0,0.0,0.0,6.28498402202,-0.0509519601678,7.26767390904,0.0,0.0,0.0,0.0,0.0,0.0,0.0,0.0,0.0
45068000000,126,45068000000,imu_link,-0.00137686235224,-0.371606281051,0.00534297199843,0.928374024186,0.0,0.0,0.0,0.0,0.0,0.0,0.0,0.0,0.0,-0.00402374806515,-0.0143442872757,0.00152560121789,0.0,0.0,0.0,0.0,0.0,0.0,0.0,0.0,0.0,6.28581987527,-0.0509074255257,7.26632022585,0.0,0.0,0.0,0.0,0.0,0.0,0.0,0.0,0.0
45072000000,127,45072000000,imu_link,-0.00138546911754,-0.371631767058,0.0053428186579,0.928363810409,0.0,0.0,0.0,0.0,0.0,0.0,0.0,0.0,0.0,-0.00409875681418,-0.0137049268188,0.0015377259418,0.0,0.0,0.0,0.0,0.0,0.0,0.0,0.0,0.0,6.28693777578,-0.0508885914305,7.26606240317,0.0,0.0,0.0,0.0,0.0,0.0,0.0,0.0,0.0
45076000000,128,45076000000,imu_link,-0.00139377192104,-0.371656358963,0.00534267634498,0.928353954078,0.0,0.0,0.0,0.0,0.0,0.0,0.0,0.0,0.0,-0.00395297801889,-0.0132243013097,0.0014860283185,0.0,0.0,0.0,0.0,0.0,0.0,0.0,0.0,0.0,6.28955032177,-0.0509515079304,7.26945139172,0.0,0.0,0.0,0.0,0.0,0.0,0.0,0.0,0.0
45080000000,129,45080000000,imu_link,-0.00140142390038,-0.371680279305,0.0053425732387,0.928344366546,0.0,0.0,0.0,0.0,0.0,0.0,0.0,0.0,0.0,-0.00364161342851,-0.0128643926492,0.00138303561954,0.0,0.0,0.0,0.0,0.0,0.0,0.0,0.0,0.0,6.29176342145,-0.0509526224348,7.27122926937,0.0,0.0,0.0,0.0,0.0,0.0,0.0,0.0,0.0
45084000000,130,45084000000,imu_link,-0.00140827211421,-0.371703772566,0.00534252920242,0.928334950119,0.0,0.0,0.0,0.0,0.0,0.0,0.0,0.0,0.0,-0.0032562895142,-0.0126365442499,0.00126092456804,0.0,0.0,0.0,0.0,0.0,0.0,0.0,0.0,0.0,6.29243789477,-0.0508704254939,7.26965642825,0.0,0.0,0.0,0.0,0.0,0.0,0.0,0.0,0.0
45088000000,131,45088000000,imu_link,-0.00141448753169,-0.371727123448,0.00534251654296,0.928325590747,0.0,0.0,0.0,0.0,0.0,0.0,0.0,0.0,0.0,-0.002956314076,-0.0125615649915,0.00115783011469,0.0,0.0,0.0,0.0,0.0,0.0,0.0,0.0,0.0,6.29437767829,-0.0507746144399,7.27112059036,0.0,0.0,0.0,0.0,0.0,0.0,0.0,0.0,0.0
45092000000,132,45092000000,imu_link,-0.00142061221867,-0.371750558421,0.00534245250399,0.928316197411,0.0,0.0,0.0,0.0,0.0,0.0,0.0,0.0,0.0,-0.00292399858785,-0.0126071154017,0.00111714941566,0.0,0.0,0.0,0.0,0.0,0.0,0.0,0.0,0.0,6.29640386165,-0.0506637363427,7.27211273609,0.0,0.0,0.0,0.0,0.0,0.0,0.0,0.0,0.0
45096000000,133,45096000000,imu_link,-0.00142726097471,-0.371774191407,0.00534227272708,0.928306723907,0.0,0.0,0.0,0.0,0.0,0.0,0.0,0.0,0.0,-0.00318934818979,-0.0127124442833,0.0011609136929,0.0,0.0,0.0,0.0,0.0,0.0,0.0,0.0,0.0,6.29903370457,-0.0506504359528,7.27355655307,0.0,0.0,0.0,0.0,0.0,0.0,0.0,0.0,0.0
45100000000,134,45100000000,imu_link,-0.00143499931289,-0.371797927187,0.00534194022098,0.928297207682,0.0,0.0,0.0,0.0,0.0,0.0,0.0,0.0,0.0,-0.00372377684765,-0.0127650780683,0.00129260394381,0.0,0.0,0.0,0.0,0.0,0.0,0.0,0.0,0.0,6.30081906183,-0.0507189459019,7.27184346277,0.0,0.0,0.0,0.0,0.0,0.0,0.0,0.0,0.0
45104000000,135,45104000000,imu_link,-0.0014439339484,-0.371821739904,0.00534146515467,0.928287658832,0.0,0.0,0.0,0.0,0.0,0.0,0.0,0.0,0.0,-0.0043057672851,-0.012803555605,0.00144885719932,0.0,0.0,0.0,0.0,0.0,0.0,0.0,0.0,0.0,6.30071260491,-0.050929361208,7.26629244959,0.0,0.0,0.0,0.0,0.0,0.0,0.0,0.0,0.0
45108000000,136,45108000000,imu_link,-0.00145381465373,-0.371845623038,0.0053409098777,0.928278079959,0.0,0.0,0.0,0.0,0.0,0.0,0.0,0.0,0.0,-0.00476000152945,-0.0128392359898,0.00158754191889,0.0,0.0,0.0,0.0,0.0,0.0,0.0,0.0,0.0,6.30197690535,-0.051222099924,7.26369715542,0.0,0.0,0.0,0.0,0.0,0.0,0.0,0.0,0.0
45112000000,137,45112000000,imu_link,-0.00146414169713,-0.371869764251,0.00534035254361,0.928268396187,0.0,0.0,0.0,0.0,0.0,0.0,0.0,0.0,0.0,-0.0049683123565,-0.0129773304743,0.00166966408329,0.0,0.0,0.0,0.0,0.0,0.0,0.0,0.0,0.0,6.30353252272,-0.0514812595151,7.26318645301,0.0,0.0,0.0,0.0,0.0,0.0,0.0,0.0,0.0
45116000000,138,45116000000,imu_link,-0.00147447961018,-0.371894355607,0.00533982898998,0.928258531016,0.0,0.0,0.0,0.0,0.0,0.0,0.0,0.0,0.0,-0.00496841112953,-0.0132199816201,0.00168751863409,0.0,0.0,0.0,0.0,0.0,0.0,0.0,0.0,0.0,6.30599452649,-0.051603960621,7.26515188561,0.0,0.0,0.0,0.0,0.0,0.0,0.0,0.0,0.0
45120000000,139,45120000000,imu_link,-0.00148482704606,-0.371919623115,0.00533930274471,0.928248394061,0.0,0.0,0.0,0.0,0.0,0.0,0.0,0.0,0.0,-0.0049753370938,-0.0135843133715,0.0016882672575,0.0,0.0,0.0,0.0,0.0,0.0,0.0,0.0,0.0,6.30719037693,-0.0515371473013,7.2646923106,0.0,0.0,0.0,0.0,0.0,0.0,0.0,0.0,0.0
45124000000,140,45124000000,imu_link,-0.0014952261413,-0.371945434115,0.00533873744463,0.928238038556,0.0,0.0,0.0,0.0,0.0,0.0,0.0,0.0,0.0,-0.00500818926421,-0.0138770356117,0.00167992749933,0.0,0.0,0.0,0.0,0.0,0.0,0.0,0.0,0.0,6.30775494935,-0.0514846881696,7.26005197356,0.0,0.0,0.0,0.0,0.0,0.0,0.0,0.0,0.0
45128000000,141,45128000000,imu_link,-0.00150572849881,-0.37197133815,0.00533808370449,0.92822764516,0.0,0.0,0.0,0.0,0.0,0.0,0.0,0.0,0.0,-0.00507283936042,-0.0139269202893,0.00165811634159,0.0,0.0,0.0,0.0,0.0,0.0,0.0,0.0,0.0,6.30882703745,-0.0514582976776,7.25383700357,0.0,0.0,0.0,0.0,0.0,0.0,0.0,0.0,0.0
45132000000,142,45132000000,imu_link,-0.0015163039308,-0.37199670753,0.00533732432962,0.928217465564,0.0,0.0,0.0,0.0,0.0,0.0,0.0,0.0,0.0,-0.0051248127989,-0.0136387405711,0.00162251249049,0.0,0.0,0.0,0.0,0.0,0.0,0.0,0.0,0.0,6.31168309473,-0.0514556591544,7.24987636821,0.0,0.0,0.0,0.0,0.0,0.0,0.0,0.0,0.0
45136000000,143,45136000000,imu_link,-0.00152696594824,-0.372021220448,0.00533646484996,0.928207628742,0.0,0.0,0.0,0.0,0.0,0.0,0.0,0.0,0.0,-0.00518107171439,-0.0131771874632,0.00159189231515,0.0,0.0,0.0,0.0,0.0,0.0,0.0,0.0,0.0,6.3127937686,-0.051475775692,7.24491727761,0.0,0.0,0.0,0.0,0.0,0.0,0.0,0.0,0.0
45140000000,144,45140000000,imu_link,-0.00153770878449,-0.372044991612,0.00533551443644,0.928198088747,0.0,0.0,0.0,0.0,0.0,0.0,0.0,0.0,0.0,-0.00523328889409,-0.0127774380887,0.00156449703212,0.0,0.0,0.0,0.0,0.0,0.0,0.0,0.0,0.0,6.31324901057,-0.0515402445529,7.24232549315,0.0,0.0,0.0,0.0,0.0,0.0,0.0,0.0,0.0
45144000000,145,45144000000,imu_link,-0.00154842854972,-0.372068808599,0.00533451531623,0.928188529871,0.0,0.0,0.0,0.0,0.0,0.0,0.0,0.0,0.0,-0.00523177895814,-0.0128022407713,0.00153761571233,0.0,0.0,0.0,0.0,0.0,0.0,0.0,0.0,0.0,6.31565049225,-0.0516349944968,7.24902496344,0.0,0.0,0.0,0.0,0.0,0.0,0.0,0.0,0.0
45148000000,146,45148000000,imu_link,-0.00155885371192,-0.372093606538,0.00533349772156,0.928178577511,0.0,0.0,0.0,0.0,0.0,0.0,0.0,0.0,0.0,-0.00510141336123,-0.0133314682212,0.00147452557911,0.0,0.0,0.0,0.0,0.0,0.0,0.0,0.0,0.0,6.31752846774,-0.0517324977497,7.25566355749,0.0,0.0,0.0,0.0,0.0,0.0,0.0,0.0,0.0
45152000000,147,45152000000,imu_link,-0.00156878048326,-0.372119870746,0.00533247675266,0.928168037273,0.0,0.0,0.0,0.0,0.0,0.0,0.0,0.0,0.0,-0.00487511164199,-0.0141226471369,0.00138066048116,0.0,0.0,0.0,0.0,0.0,0.0,0.0,0.0,0.0,6.31766918322,-0.0517644229405,7.2549947052,0.0,0.0,0.0,0.0,0.0,0.0,0.0,0.0,0.0
45156000000,148,45156000000,imu_link,-0.00157810571807,-0.372147492084,0.00533146521805,0.928156952889,0.0,0.0,0.0,0.0,0.0,0.0,0.0,0.0,0.0,-0.00459823806919,-0.0148553249272,0.0012735032465,0.0,0.0,0.0,0.0,0.0,0.0,0.0,0.0,0.0,6.31805048915,-0.0517439291302,7.24977694311,0.0,0.0,0.0,0.0,0.0,0.0,0.0,0.0,0.0
45160000000,149,45160000000,imu_link,-0.00158675570067,-0.372175908043,0.00533047006848,0.928145549883,0.0,0.0,0.0,0.0,0.0,0.0,0.0,0.0,0.0,-0.00428418887939,-0.0152851913358,0.00115568283825,0.0,0.0,0.0,0.0,0.0,0.0,0.0,0.0,0.0,6.32022252909,-0.0516644238656,7.24464416088,0.0,0.0,0.0,0.0,0.0,0.0,0.0,0.0,0.0
45164000000,150,45164000000,imu_link,-0.00159472254672,-0.372204376746,0.00532947054997,0.928134125832,0.0,0.0,0.0,0.0,0.0,0.0,0.0,0.0,0.0,-0.00396813408276,-0.0153154017411,0.00102654609626,0.0,0.0,0.0,0.0,0.0,0.0,0.0,0.0,0.0,6.32191627492,-0.0515067506076,7.23717605425,0.0,0.0,0.0,0.0,0.0,0.0,0.0,0.0,0.0
45168000000,151,45168000000,imu_link,-0.00160192385628,-0.372232176102,0.00532847098018,0.928122970468,0.0,0.0,0.0,0.0,0.0,0.0,0.0,0.0,0.0,-0.00361088548471,-0.0149568164189,0.000883872013026,0.0,0.0,0.0,0.0,0.0,0.0,0.0,0.0,0.0,6.32356466363,-0.0514159225355,7.23005395731,0.0,0.0,0.0,0.0,0.0,0.0,0.0,0.0,0.0
45172000000,152,45172000000,imu_link,-0.00160834909473,-0.372258853843,0.00532745826711,0.928112265374,0.0,0.0,0.0,0.0,0.0,0.0,0.0,0.0,0.0,-0.0032498380474,-0.0143545726104,0.000733032153538,0.0,0.0,0.0,0.0,0.0,0.0,0.0,0.0,0.0,6.32432982408,-0.0513112241668,7.2237363629,0.0,0.0,0.0,0.0,0.0,0.0,0.0,0.0,0.0
45176000000,153,45176000000,imu_link,-0.00161407509828,-0.372284220872,0.00532643051602,0.928102086405,0.0,0.0,0.0,0.0,0.0,0.0,0.0,0.0,0.0,-0.00292423835267,-0.0136502519979,0.000595558058652,0.0,0.0,0.0,0.0,0.0,0.0,0.0,0.0,0.0,6.32511106291,-0.0511882504995,7.21976860201,0.0,0.0,0.0,0.0,0.0,0.0,0.0,0.0,0.0
45180000000,154,45180000000,imu_link,-0.00161939307811,-0.372308321632,0.00532541126757,0.928092415229,0.0,0.0,0.0,0.0,0.0,0.0,0.0,0.0,0.0,-0.00272952965627,-0.0129692106087,0.000523222890921,0.0,0.0,0.0,0.0,0.0,0.0,0.0,0.0,0.0,6.32712747323,-0.0510696551481,7.22029227629,0.0,0.0,0.0,0.0,0.0,0.0,0.0,0.0,0.0
45184000000,155,45184000000,imu_link,-0.00162448701653,-0.372331340182,0.00532445406113,0.928083177495,0.0,0.0,0.0,0.0,0.0,0.0,0.0,0.0,0.0,-0.00261078215345,-0.0123869745611,0.000510029138905,0.0,0.0,0.0,0.0,0.0,0.0,0.0,0.0,0.0,6.32874505272,-0.0510432880698,7.22098407348,0.0,0.0,0.0,0.0,0.0,0.0,0.0,0.0,0.0
45188000000,156,45188000000,imu_link,-0.00162923059677,-0.372353575831,0.00532363363362,0.928074253009,0.0,0.0,0.0,0.0,0.0,0.0,0.0,0.0,0.0,-0.00242039914982,-0.0119664038776,0.000508077552472,0.0,0.0,0.0,0.0,0.0,0.0,0.0,0.0,0.0,6.33001773787,-0.0511076695343,7.22184002127,0.0,0.0,0.0,0.0,0.0,0.0,0.0,0.0,0.0
45192000000,157,45192000000,imu_link,-0.00163334011172,-0.372375266325,0.00532300879621,0.928065546611,0.0,0.0,0.0,0.0,0.0,0.0,0.0,0.0,0.0,-0.00208812621924,-0.0116746761965,0.000480653964625,0.0,0.0,0.0,0.0,0.0,0.0,0.0,0.0,0.0,6.33069746589,-0.0511851208263,7.22086590379,0.0,0.0,0.0,0.0,0.0,0.0,0.0,0.0,0.0
45196000000,158,45196000000,imu_link,-0.00163647800247,-0.372396570593,0.00532262409959,0.928056994922,0.0,0.0,0.0,0.0,0.0,0.0,0.0,0.0,0.0,-0.00159139521186,-0.0114694317489,0.000411086414761,0.0,0.0,0.0,0.0,0.0,0.0,0.0,0.0,0.0,6.33229927256,-0.0512480331477,7.22135780985,0.0,0.0,0.0,0.0,0.0,0.0,0.0,0.0,0.0
45200000000,159,45200000000,imu_link,-0.00163847865391,-0.372417526305,0.00532248368951,0.928048583134,0.0,0.0,0.0,0.0,0.0,0.0,0.0,0.0,0.0,-0.00101715593892,-0.0112848685742,0.000312603202706,0.0,0.0,0.0,0.0,0.0,0.0,0.0,0.0,0.0,6.33302284094,-0.0512392689458,7.2189714282,0.0,0.0,0.0,0.0,0.0,0.0,0.0,0.0,0.0
45204000000,160,45204000000,imu_link,-0.00163948357297,-0.372438021853,0.005322568061,0.928040355933,0.0,0.0,0.0,0.0,0.0,0.0,0.0,0.0,0.0,-0.000511879804337,-0.0110398041648,0.00023137896483,0.0,0.0,0.0,0.0,0.0,0.0,0.0,0.0,0.0,6.3335760677,-0.0511035485082,7.21455064444,0.0,0.0,0.0,0.0,0.0,0.0,0.0,0.0,0.0
45208000000,161,45208000000,imu_link,-0.00163976704241,-0.37245789191,0.00532284072457,0.928032379438,0.0,0.0,0.0,0.0,0.0,0.0,0.0,0.0,0.0,-0.000140178928681,-0.010704951513,0.000184248205028,0.0,0.0,0.0,0.0,0.0,0.0,0.0,0.0,0.0,6.33461956407,-0.0509249893384,7.211101227,0.0,0.0,0.0,0.0,0.0,0.0,0.0,0.0,0.0
45212000000,162,45212000000,imu_link,-0.00163951540814,-0.372477110795,0.00532324328207,0.928024664006,0.0,0.0,0.0,0.0,0.0,0.0,0.0,0.0,0.0,0.000134254946944,-0.0103557098909,0.000144708370493,0.0,0.0,0.0,0.0,0.0,0.0,0.0,0.0,0.0,6.33572092729,-0.0508318207843,7.20879919021,0.0,0.0,0.0,0.0,0.0,0.0,0.0,0.0,0.0
45216000000,163,45216000000,imu_link,-0.0016387857078,-0.3724959446,0.00532373923878,0.928017102988,0.0,0.0,0.0,0.0,0.0,0.0,0.0,0.0,0.0,0.000374629554478,-0.0101496197378,9.89171055376e-05,0.0,0.0,0.0,0.0,0.0,0.0,0.0,0.0,0.0,6.33836299442,-0.0508224710564,7.21218328411,0.0,0.0,0.0,0.0,0.0,0.0,0.0,0.0,0.0
45220000000,164,45220000000,imu_link,-0.00163757421634,-0.372514741104,0.00532434421608,0.928009556723,0.0,0.0,0.0,0.0,0.0,0.0,0.0,0.0,0.0,0.000618600991637,-0.0101309360161,5.97622633819e-05,0.0,0.0,0.0,0.0,0.0,0.0,0.0,0.0,0.0,6.3406489011,-0.0508416566896,7.21516930735,0.0,0.0,0.0,0.0,0.0,0.0,0.0,0.0,0.0
45224000000,165,45224000000,imu_link,-0.00163600380561,-0.372533652774,0.00532508920113,0.928001963612,0.0,0.0,0.0,0.0,0.0,0.0,0.0,0.0,0.0,0.000810873776744,-0.0101941684132,5.79055901805e-05,0.0,0.0,0.0,0.0,0.0,0.0,0.0,0.0,0.0,6.34231363612,-0.0508416314911,7.21513981324,0.0,0.0,0.0,0.0,0.0,0.0,0.0,0.0,0.0
45228000000,166,45228000000,imu_link,-0.00163447237741,-0.372552566111,0.00532595059588,0.927994368644,0.0,0.0,0.0,0.0,0.0,0.0,0.0,0.0,0.0,0.000814463151962,-0.0101952799523,0.00011918453199,0.0,0.0,0.0,0.0,0.0,0.0,0.0,0.0,0.0,6.34365325579,-0.0508576496395,7.21249122156,0.0,0.0,0.0,0.0,0.0,0.0,0.0,0.0,0.0
45232000000,167,45232000000,imu_link,-0.00163343084586,-0.372571383027,0.00532685663561,0.927986810817,0.0,0.0,0.0,0.0,0.0,0.0,0.0,0.0,0.0,0.000595755907183,-0.0101423540532,0.000231135698604,0.0,0.0,0.0,0.0,0.0,0.0,0.0,0.0,0.0,6.34592933923,-0.0509848431158,7.21190513475,0.0,0.0,0.0,0.0,0.0,0.0,0.0,0.0,0.0
45236000000,168,45236000000,imu_link,-0.00163301538036,-0.372590169384,0.00532776958322,0.927979263675,0.0,0.0,0.0,0.0,0.0,0.0,0.0,0.0,0.0,0.000306642346732,-0.0101245224405,0.000350964558854,0.0,0.0,0.0,0.0,0.0,0.0,0.0,0.0,0.0,6.34682476559,-0.0511871203989,7.20994496351,0.0,0.0,0.0,0.0,0.0,0.0,0.0,0.0,0.0
45240000000,169,45240000000,imu_link,-0.00163303562907,-0.372609203849,0.00532865357777,0.927971615866,0.0,0.0,0.0,0.0,0.0,0.0,0.0,0.0,0.0,9.83385308742e-05,-0.0102572115206,0.00041876763645,0.0,0.0,0.0,0.0,0.0,0.0,0.0,0.0,0.0,6.34883706727,-0.0514521259197,7.21213710589,0.0,0.0,0.0,0.0,0.0,0.0,0.0,0.0,0.0
45244000000,170,45244000000,imu_link,-0.00163352123054,-0.37262879916,0.00532944209778,0.927963742122,0.0,0.0,0.0,0.0,0.0,0.0,0.0,0.0,0.0,-0.000137044642941,-0.010558210755,0.0004613101882,0.0,0.0,0.0,0.0,0.0,0.0,0.0,0.0,0.0,6.35187178072,-0.0516495912168,7.21660693054,0.0,0.0,0.0,0.0,0.0,0.0,0.0,0.0,0.0
45248000000,171,45248000000,imu_link,-0.00163487212677,-0.372649101996,0.00533007188773,0.927955583155,0.0,0.0,0.0,0.0,0.0,0.0,0.0,0.0,0.0,-0.000570217743077,-0.0109371955773,0.000549061352522,0.0,0.0,0.0,0.0,0.0,0.0,0.0,0.0,0.0,6.35435338331,-0.0517679837449,7.21835291075,0.0,0.0,0.0,0.0,0.0,0.0,0.0,0.0,0.0
45252000000,172,45252000000,imu_link,-0.0016376264497,-0.372670154958,0.00533049335809,0.927947121136,0.0,0.0,0.0,0.0,0.0,0.0,0.0,0.0,0.0,-0.00126243845436,-0.011337792821,0.000714093004783,0.0,0.0,0.0,0.0,0.0,0.0,0.0,0.0,0.0,6.35691579411,-0.0518929402074,7.21949344816,0.0,0.0,0.0,0.0,0.0,0.0,0.0,0.0,0.0
45256000000,173,45256000000,imu_link,-0.00164206386267,-0.372692012783,0.00533072162355,0.927938333426,0.0,0.0,0.0,0.0,0.0,0.0,0.0,0.0,0.0,-0.00208176042484,-0.0117672718321,0.000938278766155,0.0,0.0,0.0,0.0,0.0,0.0,0.0,0.0,0.0,6.35837219638,-0.0520949750856,7.2185987243,0.0,0.0,0.0,0.0,0.0,0.0,0.0,0.0,0.0
45260000000,174,45260000000,imu_link,-0.0016478638168,-0.372714865011,0.00533085721424,0.927929143796,0.0,0.0,0.0,0.0,0.0,0.0,0.0,0.0,0.0,-0.00273418751526,-0.0122998323203,0.00114943946166,0.0,0.0,0.0,0.0,0.0,0.0,0.0,0.0,0.0,6.36054758945,-0.0524554840373,7.22011728365,0.0,0.0,0.0,0.0,0.0,0.0,0.0,0.0,0.0
45264000000,175,45264000000,imu_link,-0.00165433261659,-0.372738867497,0.00533098787397,0.927919490262,0.0,0.0,0.0,0.0,0.0,0.0,0.0,0.0,0.0,-0.00304887528062,-0.0129181764718,0.00127208479535,0.0,0.0,0.0,0.0,0.0,0.0,0.0,0.0,0.0,6.36220945756,-0.0528310916305,7.22050631288,0.0,0.0,0.0,0.0,0.0,0.0,0.0,0.0,0.0
45268000000,176,45268000000,imu_link,-0.0016606445036,-0.372764098424,0.00533117436074,0.927909342428,0.0,0.0,0.0,0.0,0.0,0.0,0.0,0.0,0.0,-0.00296935288298,-0.0135807103299,0.00126904398044,0.0,0.0,0.0,0.0,0.0,0.0,0.0,0.0,0.0,6.36494296149,-0.0531224803517,7.22244563801,0.0,0.0,0.0,0.0,0.0,0.0,0.0,0.0,0.0
45272000000,177,45272000000,imu_link,-0.00166612520139,-0.372790389661,0.00533141128521,0.927898768971,0.0,0.0,0.0,0.0,0.0,0.0,0.0,0.0,0.0,-0.00257749783472,-0.014154232234,0.00113778017757,0.0,0.0,0.0,0.0,0.0,0.0,0.0,0.0,0.0,6.36689440519,-0.053271816232,7.22061242742,0.0,0.0,0.0,0.0,0.0,0.0,0.0,0.0,0.0
45276000000,178,45276000000,imu_link,-0.00167053528448,-0.372817441745,0.00533166326075,0.927887890755,0.0,0.0,0.0,0.0,0.0,0.0,0.0,0.0,0.0,-0.00208026343552,-0.0145668991521,0.000945384232471,0.0,0.0,0.0,0.0,0.0,0.0,0.0,0.0,0.0,6.36893083659,-0.0532918356003,7.21793146656,0.0,0.0,0.0,0.0,0.0,0.0,0.0,0.0,0.0
45280000000,179,45280000000,imu_link,-0.00167387545927,-0.372844754981,0.00533189909672,0.927876908688,0.0,0.0,0.0,0.0,0.0,0.0,0.0,0.0,0.0,-0.00158767744265,-0.0147102558787,0.00073851485958,0.0,0.0,0.0,0.0,0.0,0.0,0.0,0.0,0.0,6.37106275977,-0.0532276556728,7.21378973273,0.0,0.0,0.0,0.0,0.0,0.0,0.0,0.0,0.0
45284000000,180,45284000000,imu_link,-0.00167638842507,-0.37287199763,0.00533210472701,0.927865955709,0.0,0.0,0.0,0.0,0.0,0.0,0.0,0.0,0.0,-0.00120932187208,-0.0146742657694,0.000570272547185,0.0,0.0,0.0,0.0,0.0,0.0,0.0,0.0,0.0,6.3721841576,-0.0531252543496,7.20926283991,0.0,0.0,0.0,0.0,0.0,0.0,0.0,0.0,0.0
45288000000,181,45288000000,imu_link,-0.00167848596195,-0.372898963954,0.00533227845815,0.927855113783,0.0,0.0,0.0,0.0,0.0,0.0,0.0,0.0,0.0,-0.0010217080665,-0.0145264454681,0.000477958114788,0.0,0.0,0.0,0.0,0.0,0.0,0.0,0.0,0.0,6.37352304625,-0.0530419653159,7.20629344288,0.0,0.0,0.0,0.0,0.0,0.0,0.0,0.0,0.0
45292000000,182,45292000000,imu_link,-0.00168050496478,-0.372925542823,0.00533242134528,0.92784442699,0.0,0.0,0.0,0.0,0.0,0.0,0.0,0.0,0.0,-0.000989861598858,-0.0143179538125,0.000448917658192,0.0,0.0,0.0,0.0,0.0,0.0,0.0,0.0,0.0,6.37408084637,-0.0530272947288,7.20250065508,0.0,0.0,0.0,0.0,0.0,0.0,0.0,0.0,0.0
45296000000,183,45296000000,imu_link,-0.00168276490714,-0.372951790999,0.00533248921788,0.927833872227,0.0,0.0,0.0,0.0,0.0,0.0,0.0,0.0,0.0,-0.00111463358466,-0.0141392141671,0.000458968847612,0.0,0.0,0.0,0.0,0.0,0.0,0.0,0.0,0.0,6.37628249857,-0.0530415702121,7.20338066873,0.0,0.0,0.0,0.0,0.0,0.0,0.0,0.0,0.0
45300000000,184,45300000000,imu_link,-0.00168564330063,-0.37297784272,0.00533239965994,0.927823395351,0.0,0.0,0.0,0.0,0.0,0.0,0.0,0.0,0.0,-0.00143031120597,-0.0140317695884,0.00050121801686,0.0,0.0,0.0,0.0,0.0,0.0,0.0,0.0,0.0,6.37802620344,-0.0530241487933,7.20413851356,0.0,0.0,0.0,0.0,0.0,0.0,0.0,0.0,0.0
45304000000,185,45304000000,imu_link,-0.00168927687317,-0.373003698116,0.00533211971652,0.927812996263,0.0,0.0,0.0,0.0,0.0,0.0,0.0,0.0,0.0,-0.00181556338043,-0.0139240114775,0.000553686551416,0.0,0.0,0.0,0.0,0.0,0.0,0.0,0.0,0.0,6.37798552511,-0.0530997114936,7.20020349005,0.0,0.0,0.0,0.0,0.0,0.0,0.0,0.0,0.0
45308000000,186,45308000000,imu_link,-0.00169370629014,-0.373029242737,0.00533164730247,0.927802720927,0.0,0.0,0.0,0.0,0.0,0.0,0.0,0.0,0.0,-0.00221972384007,-0.0137544766457,0.00061275720228,0.0,0.0,0.0,0.0,0.0,0.0,0.0,0.0,0.0,6.37805372265,-0.053219640505,7.19565317145,0.0,0.0,0.0,0.0,0.0,0.0,0.0,0.0,0.0
45312000000,187,45312000000,imu_link,-0.00169881412213,-0.373054386998,0.00533098911759,0.927792605557,0.0,0.0,0.0,0.0,0.0,0.0,0.0,0.0,0.0,-0.00256788771267,-0.0135369472868,0.000653024782749,0.0,0.0,0.0,0.0,0.0,0.0,0.0,0.0,0.0,6.3783798141,-0.0533712918844,7.19185955955,0.0,0.0,0.0,0.0,0.0,0.0,0.0,0.0,0.0
45316000000,188,45316000000,imu_link,-0.00170447663101,-0.373079133765,0.00533016055758,0.927782649168,0.0,0.0,0.0,0.0,0.0,0.0,0.0,0.0,0.0,-0.00285578530937,-0.0133212737055,0.000677364585452,0.0,0.0,0.0,0.0,0.0,0.0,0.0,0.0,0.0,6.37916237511,-0.0535149026336,7.18942482866,0.0,0.0,0.0,0.0,0.0,0.0,0.0,0.0,0.0
45320000000,189,45320000000,imu_link,-0.00171078336941,-0.373103856169,0.00532914934977,0.927772701635,0.0,0.0,0.0,0.0,0.0,0.0,0.0,0.0,0.0,-0.00318863636194,-0.0133064478587,0.000712807313667,0.0,0.0,0.0,0.0,0.0,0.0,0.0,0.0,0.0,6.38100759716,-0.0536525791507,7.19241674358,0.0,0.0,0.0,0.0,0.0,0.0,0.0,0.0,0.0
45324000000,190,45324000000,imu_link,-0.00171796147131,-0.37312887687,0.00532794955635,0.927762632793,0.0,0.0,0.0,0.0,0.0,0.0,0.0,0.0,0.0,-0.00362892959713,-0.0134649702492,0.000787947642764,0.0,0.0,0.0,0.0,0.0,0.0,0.0,0.0,0.0,6.38244118352,-0.0538177292853,7.19432860634,0.0,0.0,0.0,0.0,0.0,0.0,0.0,0.0,0.0
45328000000,191,45328000000,imu_link,-0.00172611223247,-0.3731544165,0.00532655142886,0.92775235372,0.0,0.0,0.0,0.0,0.0,0.0,0.0,0.0,0.0,-0.00411869315135,-0.0137421527866,0.000877522098206,0.0,0.0,0.0,0.0,0.0,0.0,0.0,0.0,0.0,6.38340674471,-0.0540132669406,7.19411780938,0.0,0.0,0.0,0.0,0.0,0.0,0.0,0.0,0.0
45332000000,192,45332000000,imu_link,-0.00173525482935,-0.373180677271,0.0053249401853,0.927741783049,0.0,0.0,0.0,0.0,0.0,0.0,0.0,0.0,0.0,-0.00462071696611,-0.014128252223,0.000963870795394,0.0,0.0,0.0,0.0,0.0,0.0,0.0,0.0,0.0,6.38442497334,-0.0542146686423,7.19381451766,0.0,0.0,0.0,0.0,0.0,0.0,0.0,0.0,0.0
45336000000,193,45336000000,imu_link,-0.0017453425366,-0.37320772053,0.00532312408005,0.92773089604,0.0,0.0,0.0,0.0,0.0,0.0,0.0,0.0,0.0,-0.00509970919096,-0.0145475575582,0.00104535321171,0.0,0.0,0.0,0.0,0.0,0.0,0.0,0.0,0.0,6.38534161623,-0.0544256045248,7.19190358591,0.0,0.0,0.0,0.0,0.0,0.0,0.0,0.0,0.0
45340000000,194,45340000000,imu_link,-0.00175624165218,-0.373235356609,0.00532109206736,0.927719769204,0.0,0.0,0.0,0.0,0.0,0.0,0.0,0.0,0.0,-0.00551816975329,-0.0148649508623,0.00109673411631,0.0,0.0,0.0,0.0,0.0,0.0,0.0,0.0,0.0,6.38753738122,-0.0545788902993,7.19058889609,0.0,0.0,0.0,0.0,0.0,0.0,0.0,0.0,0.0
45344000000,195,45344000000,imu_link,-0.00176774195389,-0.373263176448,0.00531881769908,0.927708567587,0.0,0.0,0.0,0.0,0.0,0.0,0.0,0.0,0.0,-0.0058428182903,-0.0149623325627,0.00109654463334,0.0,0.0,0.0,0.0,0.0,0.0,0.0,0.0,0.0,6.38936209613,-0.0546518835912,7.18709342549,0.0,0.0,0.0,0.0,0.0,0.0,0.0,0.0,0.0
45348000000,196,45348000000,imu_link,-0.00177957820967,-0.373290526803,0.0053162896299,0.927697554575,0.0,0.0,0.0,0.0,0.0,0.0,0.0,0.0,0.0,-0.00604458537169,-0.0147082433398,0.00104147741489,0.0,0.0,0.0,0.0,0.0,0.0,0.0,0.0,0.0,6.39202238645,-0.054740064019,7.18305620333,0.0,0.0,0.0,0.0,0.0,0.0,0.0,0.0,0.0
45352000000,197,45352000000,imu_link,-0.00179123377006,-0.373316816542,0.00531356105431,0.927686968776,0.0,0.0,0.0,0.0,0.0,0.0,0.0,0.0,0.0,-0.00599499421257,-0.0141368426988,0.000914554949854,0.0,0.0,0.0,0.0,0.0,0.0,0.0,0.0,0.0,6.39427743893,-0.0548532798119,7.17924691735,0.0,0.0,0.0,0.0,0.0,0.0,0.0,0.0,0.0
45356000000,198,45356000000,imu_link,-0.00180209590962,-0.373341816382,0.00531072706017,0.927676903221,0.0,0.0,0.0,0.0,0.0,0.0,0.0,0.0,0.0,-0.00564275546639,-0.0134434367168,0.000717331660381,0.0,0.0,0.0,0.0,0.0,0.0,0.0,0.0,0.0,6.39537286567,-0.0549206829506,7.17612324345,0.0,0.0,0.0,0.0,0.0,0.0,0.0,0.0,0.0
45360000000,199,45360000000,imu_link,-0.00181165434211,-0.373365745039,0.00530790333926,0.927667270363,0.0,0.0,0.0,0.0,0.0,0.0,0.0,0.0,0.0,-0.00503289402523,-0.0128692803826,0.000478548808826,0.0,0.0,0.0,0.0,0.0,0.0,0.0,0.0,0.0,6.39706279096,-0.0548722905533,7.17774994196,0.0,0.0,0.0,0.0,0.0,0.0,0.0,0.0,0.0
45364000000,200,45364000000,imu_link,-0.00181966104948,-0.373389104203,0.005305165026,0.927657868462,0.0,0.0,0.0,0.0,0.0,0.0,0.0,0.0,0.0,-0.00429548696618,-0.0125662099706,0.000228386160978,0.0,0.0,0.0,0.0,0.0,0.0,0.0,0.0,0.0,6.3982409741,-0.0547262812929,7.18041186163,0.0,0.0,0.0,0.0,0.0,0.0,0.0,0.0,0.0
45368000000,201,45368000000,imu_link,-0.00182619563619,-0.373412429331,0.00530246766331,0.927648482167,0.0,0.0,0.0,0.0,0.0,0.0,0.0,0.0,0.0,-0.0036049250699,-0.0125514513512,-2.74671119416e-05,0.0,0.0,0.0,0.0,0.0,0.0,0.0,0.0,0.0,6.39947563867,-0.0545193876678,7.18367144547,0.0,0.0,0.0,0.0,0.0,0.0,0.0,0.0,0.0
45372000000,202,45372000000,imu_link,-0.00183138069055,-0.37343611362,0.00529977927413,0.927638953165,0.0,0.0,0.0,0.0,0.0,0.0,0.0,0.0,0.0,-0.00297838637154,-0.012748269712,-0.000275220657848,0.0,0.0,0.0,0.0,0.0,0.0,0.0,0.0,0.0,6.40098891337,-0.0543270800803,7.1863908569,0.0,0.0,0.0,0.0,0.0,0.0,0.0,0.0,0.0
45376000000,203,45376000000,imu_link,-0.00183516267276,-0.373460221988,0.00529713069646,0.92762925524,0.0,0.0,0.0,0.0,0.0,0.0,0.0,0.0,0.0,-0.00232145909842,-0.0129802614239,-0.000518674907884,0.0,0.0,0.0,0.0,0.0,0.0,0.0,0.0,0.0,6.40184908219,-0.0541800754744,7.18493782907,0.0,0.0,0.0,0.0,0.0,0.0,0.0,0.0,0.0
45380000000,204,45380000000,imu_link,-0.00183737811547,-0.373484577453,0.00529458394208,0.927619459599,0.0,0.0,0.0,0.0,0.0,0.0,0.0,0.0,0.0,-0.0015766058026,-0.0131173574949,-0.000763935797302,0.0,0.0,0.0,0.0,0.0,0.0,0.0,0.0,0.0,6.40343149729,-0.0540630206964,7.18269150764,0.0,0.0,0.0,0.0,0.0,0.0,0.0,0.0,0.0
45384000000,205,45384000000,imu_link,-0.00183800648109,-0.373508893262,0.00529217874934,0.92760968151,0.0,0.0,0.0,0.0,0.0,0.0,0.0,0.0,0.0,-0.00081394735441,-0.0131000186991,-0.000994662573117,0.0,0.0,0.0,0.0,0.0,0.0,0.0,0.0,0.0,6.40435796958,-0.0538359710793,7.17838188872,0.0,0.0,0.0,0.0,0.0,0.0,0.0,0.0,0.0
45388000000,206,45388000000,imu_link,-0.00183733777881,-0.373532888795,0.00528991018769,0.927600033435,0.0,0.0,0.0,0.0,0.0,0.0,0.0,0.0,0.0,-0.000185877558245,-0.0129307494541,-0.00117357530472,0.0,0.0,0.0,0.0,0.0,0.0,0.0,0.0,0.0,6.40579326232,-0.0535711420043,7.17537239123,0.0,0.0,0.0,0.0,0.0,0.0,0.0,0.0,0.0
45392000000,207,45392000000,imu_link,-0.00183587593224,-0.373556574004,0.00528771368012,0.927590510765,0.0,0.0,0.0,0.0,0.0,0.0,0.0,0.0,0.0,0.000196376060418,-0.0127655642429,-0.00128833596233,0.0,0.0,0.0,0.0,0.0,0.0,0.0,0.0,0.0,6.4083064592,-0.0533131015015,7.1772011227,0.0,0.0,0.0,0.0,0.0,0.0,0.0,0.0,0.0
45396000000,208,45396000000,imu_link,-0.00183415320489,-0.373580064388,0.00528550119512,0.927581066458,0.0,0.0,0.0,0.0,0.0,0.0,0.0,0.0,0.0,0.000314974111369,-0.0126612439769,-0.00134450143042,0.0,0.0,0.0,0.0,0.0,0.0,0.0,0.0,0.0,6.41070891367,-0.0531526315961,7.17941866169,0.0,0.0,0.0,0.0,0.0,0.0,0.0,0.0,0.0
45400000000,209,45400000000,imu_link,-0.00183237829825,-0.373603431396,0.0052832568251,0.927571671428,0.0,0.0,0.0,0.0,0.0,0.0,0.0,0.0,0.0,0.000333589813827,-0.0125949274133,-0.00136905305054,0.0,0.0,0.0,0.0,0.0,0.0,0.0,0.0,0.0,6.41209479914,-0.0531279743461,7.17939532596,0.0,0.0,0.0,0.0,0.0,0.0,0.0,0.0,0.0
45404000000,210,45404000000,imu_link,-0.00183033312514,-0.373626788936,0.00528102304381,0.927562279993,0.0,0.0,0.0,0.0,0.0,0.0,0.0,0.0,0.0,0.000460941873756,-0.012590588288,-0.00141462921144,0.0,0.0,0.0,0.0,0.0,0.0,0.0,0.0,0.0,6.41298322948,-0.0532003653755,7.17838151162,0.0,0.0,0.0,0.0,0.0,0.0,0.0,0.0,0.0
45408000000,211,45408000000,imu_link,-0.00182750739751,-0.373650015069,0.0052788691494,0.927552941883,0.0,0.0,0.0,0.0,0.0,0.0,0.0,0.0,0.0,0.00083826805314,-0.0125218169881,-0.0015234177709,0.0,0.0,0.0,0.0,0.0,0.0,0.0,0.0,0.0,6.41389843941,-0.0533085881062,7.17515602739,0.0,0.0,0.0,0.0,0.0,0.0,0.0,0.0,0.0
45412000000,212,45412000000,imu_link,-0.00182351287675,-0.373672896594,0.00527685884181,0.927543743396,0.0,0.0,0.0,0.0,0.0,0.0,0.0,0.0,0.0,0.00140818957426,-0.0123391265176,-0.00167523900491,0.0,0.0,0.0,0.0,0.0,0.0,0.0,0.0,0.0,6.41598630115,-0.0533883816629,7.17388118806,0.0,0.0,0.0,0.0,0.0,0.0,0.0,0.0,0.0
45416000000,213,45416000000,imu_link,-0.00181842668359,-0.373695159758,0.00527501866699,0.927534794537,0.0,0.0,0.0,0.0,0.0,0.0,0.0,0.0,0.0,0.00194812262757,-0.0120087439744,-0.00180039523379,0.0,0.0,0.0,0.0,0.0,0.0,0.0,0.0,0.0,6.41751133237,-0.0533590879301,7.17108890325,0.0,0.0,0.0,0.0,0.0,0.0,0.0,0.0,0.0
45420000000,214,45420000000,imu_link,-0.00181263448277,-0.373716568384,0.00527332795721,0.927526189864,0.0,0.0,0.0,0.0,0.0,0.0,0.0,0.0,0.0,0.00230603993068,-0.0115501251194,-0.00186312488576,0.0,0.0,0.0,0.0,0.0,0.0,0.0,0.0,0.0,6.41930441598,-0.0532877975603,7.16939506587,0.0,0.0,0.0,0.0,0.0,0.0,0.0,0.0,0.0
45424000000,215,45424000000,imu_link,-0.00180659764376,-0.373736871817,0.00527174393263,0.927518029779,0.0,0.0,0.0,0.0,0.0,0.0,0.0,0.0,0.0,0.00244274607585,-0.0109552434787,-0.00185953146936,0.0,0.0,0.0,0.0,0.0,0.0,0.0,0.0,0.0,6.42021301433,-0.0532540952589,7.16571648983,0.0,0.0,0.0,0.0,0.0,0.0,0.0,0.0,0.0
45428000000,216,45428000000,imu_link,-0.00180067519804,-0.373755930491,0.00527020930455,0.927510370231,0.0,0.0,0.0,0.0,0.0,0.0,0.0,0.0,0.0,0.00240265895834,-0.0102841844452,-0.00181544186429,0.0,0.0,0.0,0.0,0.0,0.0,0.0,0.0,0.0,6.42209899928,-0.0532895038506,7.16504481783,0.0,0.0,0.0,0.0,0.0,0.0,0.0,0.0,0.0
45432000000,217,45432000000,imu_link,-0.00179530705051,-0.373773887278,0.00526867362647,0.92750315317,0.0,0.0,0.0,0.0,0.0,0.0,0.0,0.0,0.0,0.00214870605476,-0.00968902572989,-0.00171251661938,0.0,0.0,0.0,0.0,0.0,0.0,0.0,0.0,0.0,6.42377393528,-0.0533096859729,7.16633687143,0.0,0.0,0.0,0.0,0.0,0.0,0.0,0.0,0.0
45436000000,218,45436000000,imu_link,-0.00179090015119,-0.373790887047,0.00526709694356,0.927496319738,0.0,0.0,0.0,0.0,0.0,0.0,0.0,0.0,0.0,0.00169812788588,-0.00917094274824,-0.00155203947122,0.0,0.0,0.0,0.0,0.0,0.0,0.0,0.0,0.0,6.42453894101,-0.0533478937522,7.16571840384,0.0,0.0,0.0,0.0,0.0,0.0,0.0,0.0,0.0
45440000000,219,45440000000,imu_link,-0.00178773150862,-0.373806972139,0.00526544610274,0.927489852599,0.0,0.0,0.0,0.0,0.0,0.0,0.0,0.0,0.0,0.00111276566213,-0.00867497739451,-0.00135515112514,0.0,0.0,0.0,0.0,0.0,0.0,0.0,0.0,0.0,6.42625151907,-0.0534888725412,7.16627112055,0.0,0.0,0.0,0.0,0.0,0.0,0.0,0.0,0.0
45444000000,220,45444000000,imu_link,-0.0017857116961,-0.373822393126,0.00526372513937,0.927483650977,0.0,0.0,0.0,0.0,0.0,0.0,0.0,0.0,0.0,0.000568881149302,-0.00831428845736,-0.0011730551699,0.0,0.0,0.0,0.0,0.0,0.0,0.0,0.0,0.0,6.42620118974,-0.0537280002483,7.16498886563,0.0,0.0,0.0,0.0,0.0,0.0,0.0,0.0,0.0
45448000000,221,45448000000,imu_link,-0.00178447746618,-0.373837720463,0.00526197692624,0.92747748544,0.0,0.0,0.0,0.0,0.0,0.0,0.0,0.0,0.0,0.000199759047922,-0.00826202272301,-0.00103886919691,0.0,0.0,0.0,0.0,0.0,0.0,0.0,0.0,0.0,6.4282736524,-0.0540241080251,7.17042884313,0.0,0.0,0.0,0.0,0.0,0.0,0.0,0.0,0.0
45452000000,222,45452000000,imu_link,-0.00178352786061,-0.373853518848,0.00526032124695,0.927471128658,0.0,0.0,0.0,0.0,0.0,0.0,0.0,0.0,0.0,8.36540714727e-05,-0.0085155468203,-0.000942673133334,0.0,0.0,0.0,0.0,0.0,0.0,0.0,0.0,0.0,6.43042334942,-0.054285230091,7.17547055247,0.0,0.0,0.0,0.0,0.0,0.0,0.0,0.0,0.0
45456000000,223,45456000000,imu_link,-0.00178272469178,-0.373870041921,0.00525880409843,0.927464478364,0.0,0.0,0.0,0.0,0.0,0.0,0.0,0.0,0.0,3.94734682784e-05,-0.00890621384075,-0.000850932814148,0.0,0.0,0.0,0.0,0.0,0.0,0.0,0.0,0.0,6.43162760397,-0.0544637479855,7.17618477597,0.0,0.0,0.0,0.0,0.0,0.0,0.0,0.0,0.0
45460000000,224,45460000000,imu_link,-0.001782260951,-0.373887287242,0.00525740140154,0.927457535262,0.0,0.0,0.0,0.0,0.0,0.0,0.0,0.0,0.0,-9.8695324617e-05,-0.00929508933844,-0.000734280785407,0.0,0.0,0.0,0.0,0.0,0.0,0.0,0.0,0.0,6.4319700617,-0.0546029616637,7.17310411653,0.0,0.0,0.0,0.0,0.0,0.0,0.0,0.0,0.0
45464000000,225,45464000000,imu_link,-0.00178258747962,-0.373905125429,0.00525605346742,0.927450350942,0.0,0.0,0.0,0.0,0.0,0.0,0.0,0.0,0.0,-0.000456701848847,-0.00961308362215,-0.000561044101068,0.0,0.0,0.0,0.0,0.0,0.0,0.0,0.0,0.0,6.4320065852,-0.054683946055,7.16854122842,0.0,0.0,0.0,0.0,0.0,0.0,0.0,0.0,0.0
45468000000,226,45468000000,imu_link,-0.00178428243868,-0.373923593192,0.00525469198467,0.927442909835,0.0,0.0,0.0,0.0,0.0,0.0,0.0,0.0,0.0,-0.00109569386664,-0.00994943321994,-0.000311381660879,0.0,0.0,0.0,0.0,0.0,0.0,0.0,0.0,0.0,6.43386376358,-0.0548101292502,7.16901653505,0.0,0.0,0.0,0.0,0.0,0.0,0.0,0.0,0.0
45472000000,227,45472000000,imu_link,-0.00178749152898,-0.373942738513,0.00525331173999,0.927435192293,0.0,0.0,0.0,0.0,0.0,0.0,0.0,0.0,0.0,-0.00180336356902,-0.0103113187207,-3.68754620199e-05,0.0,0.0,0.0,0.0,0.0,0.0,0.0,0.0,0.0,6.43421023542,-0.0550742266849,7.16629668849,0.0,0.0,0.0,0.0,0.0,0.0,0.0,0.0,0.0
45476000000,228,45476000000,imu_link,-0.00179223181743,-0.373962654467,0.00525189024107,0.927427160815,0.0,0.0,0.0,0.0,0.0,0.0,0.0,0.0,0.0,-0.00252342522297,-0.0107233131117,0.000230420290775,0.0,0.0,0.0,0.0,0.0,0.0,0.0,0.0,0.0,6.43550679958,-0.0553312276073,7.16577728882,0.0,0.0,0.0,0.0,0.0,0.0,0.0,0.0,0.0
45480000000,229,45480000000,imu_link,-0.00179822527401,-0.373983283084,0.00525039414983,0.927418839425,0.0,0.0,0.0,0.0,0.0,0.0,0.0,0.0,0.0,-0.00312061488182,-0.0111046349925,0.000430272522489,0.0,0.0,0.0,0.0,0.0,0.0,0.0,0.0,0.0,6.43767817387,-0.0556041938997,7.16584992734,0.0,0.0,0.0,0.0,0.0,0.0,0.0,0.0,0.0
45484000000,230,45484000000,imu_link,-0.00180514093849,-0.374004514481,0.00524881963982,0.927410273022,0.0,0.0,0.0,0.0,0.0,0.0,0.0,0.0,0.0,-0.00356471773878,-0.011427474238,0.000566455408594,0.0,0.0,0.0,0.0,0.0,0.0,0.0,0.0,0.0,6.43833259063,-0.0558426322516,7.16249823911,0.0,0.0,0.0,0.0,0.0,0.0,0.0,0.0,0.0
45488000000,231,45488000000,imu_link,-0.00181266764337,-0.3740262568,0.00524717087969,0.927401499167,0.0,0.0,0.0,0.0,0.0,0.0,0.0,0.0,0.0,-0.00386347335902,-0.0117015143049,0.000646374474698,0.0,0.0,0.0,0.0,0.0,0.0,0.0,0.0,0.0,6.43899043427,-0.0560422977713,7.15933866695,0.0,0.0,0.0,0.0,0.0,0.0,0.0,0.0,0.0
45492000000,232,45492000000,imu_link,-0.00182066943701,-0.374048373908,0.00524547025153,0.927392572852,0.0,0.0,0.0,0.0,0.0,0.0,0.0,0.0,0.0,-0.00409459384601,-0.0119025227555,0.00071123137882,0.0,0.0,0.0,0.0,0.0,0.0,0.0,0.0,0.0,6.43890567136,-0.0561659715274,7.15449602466,0.0,0.0,0.0,0.0,0.0,0.0,0.0,0.0,0.0
45496000000,233,45496000000,imu_link,-0.00182896199327,-0.374070742617,0.00524375903088,0.927383543852,0.0,0.0,0.0,0.0,0.0,0.0,0.0,0.0,0.0,-0.00423215380644,-0.0120376221521,0.000760739595862,0.0,0.0,0.0,0.0,0.0,0.0,0.0,0.0,0.0,6.44069121031,-0.056271038125,7.15321100056,0.0,0.0,0.0,0.0,0.0,0.0,0.0,0.0,0.0
45500000000,234,45500000000,imu_link,-0.00183729405923,-0.374093225294,0.00524207097119,0.927374467964,0.0,0.0,0.0,0.0,0.0,0.0,0.0,0.0,0.0,-0.00424648389673,-0.0120991546539,0.000778887562428,0.0,0.0,0.0,0.0,0.0,0.0,0.0,0.0,0.0,6.44313906872,-0.0563759760693,7.15336326525,0.0,0.0,0.0,0.0,0.0,0.0,0.0,0.0,0.0
45504000000,235,45504000000,imu_link,-0.00184541446067,-0.374115832231,0.00524043121427,0.927365341384,0.0,0.0,0.0,0.0,0.0,0.0,0.0,0.0,0.0,-0.00413967515222,-0.0121668536075,0.00076171252839,0.0,0.0,0.0,0.0,0.0,0.0,0.0,0.0,0.0,6.44345309059,-0.0564524816328,7.15070693579,0.0,0.0,0.0,0.0,0.0,0.0,0.0,0.0,0.0
45508000000,236,45508000000,imu_link,-0.00185335899982,-0.374138558876,0.00523885834217,0.927356165767,0.0,0.0,0.0,0.0,0.0,0.0,0.0,0.0,0.0,-0.00404597842699,-0.0122320556494,0.00075984745554,0.0,0.0,0.0,0.0,0.0,0.0,0.0,0.0,0.0,6.44436323113,-0.0564568463016,7.14924796321,0.0,0.0,0.0,0.0,0.0,0.0,0.0,0.0,0.0
45512000000,237,45512000000,imu_link,-0.00186144348305,-0.374161357696,0.00523732589684,0.927346959801,0.0,0.0,0.0,0.0,0.0,0.0,0.0,0.0,0.0,-0.00410352200472,-0.0122708701334,0.000804784316297,0.0,0.0,0.0,0.0,0.0,0.0,0.0,0.0,0.0,6.44627397883,-0.0564348845291,7.14953266396,0.0,0.0,0.0,0.0,0.0,0.0,0.0,0.0,0.0
45516000000,238,45516000000,imu_link,-0.00186980905607,-0.374184270423,0.00523581419567,0.927337706465,0.0,0.0,0.0,0.0,0.0,0.0,0.0,0.0,0.0,-0.00423031742579,-0.0123318302679,0.000867007336348,0.0,0.0,0.0,0.0,0.0,0.0,0.0,0.0,0.0,6.44653315752,-0.0564919486692,7.14702899456,0.0,0.0,0.0,0.0,0.0,0.0,0.0,0.0,0.0
45520000000,239,45520000000,imu_link,-0.00187846134506,-0.374207279083,0.0052343022649,0.927328413101,0.0,0.0,0.0,0.0,0.0,0.0,0.0,0.0,0.0,-0.00436359020999,-0.0123830498791,0.000920558278416,0.0,0.0,0.0,0.0,0.0,0.0,0.0,0.0,0.0,6.44711368578,-0.0565240100317,7.14473933271,0.0,0.0,0.0,0.0,0.0,0.0,0.0,0.0,0.0
45524000000,240,45524000000,imu_link,-0.00188723146362,-0.374230094257,0.00523277412697,0.927319196924,0.0,0.0,0.0,0.0,0.0,0.0,0.0,0.0,0.0,-0.00442067710991,-0.0122785719843,0.000935069657877,0.0,0.0,0.0,0.0,0.0,0.0,0.0,0.0,0.0,6.4487597849,-0.0565725856332,7.14224193259,0.0,0.0,0.0,0.0,0.0,0.0,0.0,0.0,0.0
45528000000,241,45528000000,imu_link,-0.00189605491318,-0.374252361704,0.00523119585387,0.927310201241,0.0,0.0,0.0,0.0,0.0,0.0,0.0,0.0,0.0,-0.00445314445674,-0.011983168388,0.000921742983718,0.0,0.0,0.0,0.0,0.0,0.0,0.0,0.0,0.0,6.45050904026,-0.056570853702,7.13952514366,0.0,0.0,0.0,0.0,0.0,0.0,0.0,0.0,0.0
45532000000,242,45532000000,imu_link,-0.00190496703425,-0.374273929475,0.00522955515416,0.927301487419,0.0,0.0,0.0,0.0,0.0,0.0,0.0,0.0,0.0,-0.0045038418248,-0.0116057254478,0.000909317407222,0.0,0.0,0.0,0.0,0.0,0.0,0.0,0.0,0.0,6.4512475735,-0.0565616286549,7.13669271605,0.0,0.0,0.0,0.0,0.0,0.0,0.0,0.0,0.0
45536000000,243,45536000000,imu_link,-0.00191397189089,-0.374294750576,0.00522785283377,0.927293074469,0.0,0.0,0.0,0.0,0.0,0.0,0.0,0.0,0.0,-0.00455613129211,-0.0112029258125,0.000898025661529,0.0,0.0,0.0,0.0,0.0,0.0,0.0,0.0,0.0,6.45102185308,-0.0565703684123,7.1329645508,0.0,0.0,0.0,0.0,0.0,0.0,0.0,0.0,0.0
45540000000,244,45540000000,imu_link,-0.00192302258216,-0.374314937112,0.00522608520653,0.927284917311,0.0,0.0,0.0,0.0,0.0,0.0,0.0,0.0,0.0,-0.00458770087266,-0.0108606587552,0.000876262845179,0.0,0.0,0.0,0.0,0.0,0.0,0.0,0.0,0.0,6.4518913776,-0.0566089223423,7.13246543761,0.0,0.0,0.0,0.0,0.0,0.0,0.0,0.0,0.0
45544000000,245,45544000000,imu_link,-0.00193208019353,-0.37433444737,0.00522425373983,0.927277032904,0.0,0.0,0.0,0.0,0.0,0.0,0.0,0.0,0.0,-0.00460082796176,-0.0104959807609,0.000847896853586,0.0,0.0,0.0,0.0,0.0,0.0,0.0,0.0,0.0,6.45175310293,-0.0565907627127,7.1283203597,0.0,0.0,0.0,0.0,0.0,0.0,0.0,0.0,0.0
45548000000,246,45548000000,imu_link,-0.00194109297637,-0.374353183448,0.00522235693007,0.927269460938,0.0,0.0,0.0,0.0,0.0,0.0,0.0,0.0,0.0,-0.00458994971601,-0.0100786163152,0.000809142606495,0.0,0.0,0.0,0.0,0.0,0.0,0.0,0.0,0.0,6.45246687341,-0.0566484499483,7.12557162927,0.0,0.0,0.0,0.0,0.0,0.0,0.0,0.0,0.0
45552000000,247,45552000000,imu_link,-0.00195001626858,-0.374371064244,0.005220393873,0.927262234312,0.0,0.0,0.0,0.0,0.0,0.0,0.0,0.0,0.0,-0.00455829023623,-0.00961760740976,0.000761605855369,0.0,0.0,0.0,0.0,0.0,0.0,0.0,0.0,0.0,6.45325041154,-0.0567100604675,7.12316973295,0.0,0.0,0.0,0.0,0.0,0.0,0.0,0.0,0.0
45556000000,248,45556000000,imu_link,-0.00195873207028,-0.374388395979,0.00521839235984,0.927255229538,0.0,0.0,0.0,0.0,0.0,0.0,0.0,0.0,0.0,-0.00446764013958,-0.00932202284259,0.000704893452826,0.0,0.0,0.0,0.0,0.0,0.0,0.0,0.0,0.0,6.45482320655,-0.0567856255913,7.12571067622,0.0,0.0,0.0,0.0,0.0,0.0,0.0,0.0,0.0
45560000000,249,45560000000,imu_link,-0.00196729974394,-0.374405710091,0.00521637126807,0.927248231842,0.0,0.0,0.0,0.0,0.0,0.0,0.0,0.0,0.0,-0.00440257597949,-0.00931289426631,0.000668086353204,0.0,0.0,0.0,0.0,0.0,0.0,0.0,0.0,0.0,6.45711708086,-0.0568112076533,7.13138384083,0.0,0.0,0.0,0.0,0.0,0.0,0.0,0.0,0.0
45564000000,250,45564000000,imu_link,-0.00197578430748,-0.37442343465,0.00521434611971,0.927241068146,0.0,0.0,0.0,0.0,0.0,0.0,0.0,0.0,0.0,-0.0043660373314,-0.00953447582316,0.000650676389863,0.0,0.0,0.0,0.0,0.0,0.0,0.0,0.0,0.0,6.45848869421,-0.0567978602857,7.13439692604,0.0,0.0,0.0,0.0,0.0,0.0,0.0,0.0,0.0
45568000000,251,45568000000,imu_link,-0.00198432183432,-0.374441705743,0.00521229968821,0.927233683275,0.0,0.0,0.0,0.0,0.0,0.0,0.0,0.0,0.0,-0.00439622007146,-0.00982910827034,0.000650761165579,0.0,0.0,0.0,0.0,0.0,0.0,0.0,0.0,0.0,6.45938917101,-0.0567382122295,7.13411560605,0.0,0.0,0.0,0.0,0.0,0.0,0.0,0.0,0.0
45572000000,252,45572000000,imu_link,-0.00199307651016,-0.374460557227,0.00521020103356,0.927226063338,0.0,0.0,0.0,0.0,0.0,0.0,0.0,0.0,0.0,-0.00450841706955,-0.0101415779816,0.000667241229574,0.0,0.0,0.0,0.0,0.0,0.0,0.0,0.0,0.0,6.46019676109,-0.0566453577375,7.132703752,0.0,0.0,0.0,0.0,0.0,0.0,0.0,0.0,0.0
45576000000,253,45576000000,imu_link,-0.00200202143454,-0.374479998544,0.00520802809343,0.927218204655,0.0,0.0,0.0,0.0,0.0,0.0,0.0,0.0,0.0,-0.00461230175991,-0.0104591633126,0.00066845596092,0.0,0.0,0.0,0.0,0.0,0.0,0.0,0.0,0.0,6.46115655571,-0.0566516557589,7.13147793718,0.0,0.0,0.0,0.0,0.0,0.0,0.0,0.0,0.0
45580000000,254,45580000000,imu_link,-0.00201087521447,-0.374500127192,0.00520579228318,0.927210068345,0.0,0.0,0.0,0.0,0.0,0.0,0.0,0.0,0.0,-0.00458388589301,-0.0108299739003,0.000622277841343,0.0,0.0,0.0,0.0,0.0,0.0,0.0,0.0,0.0,6.46263879752,-0.0567352157184,7.13215071329,0.0,0.0,0.0,0.0,0.0,0.0,0.0,0.0,0.0
45584000000,255,45584000000,imu_link,-0.00201910548583,-0.374521026022,0.00520354691584,0.927201621752,0.0,0.0,0.0,0.0,0.0,0.0,0.0,0.0,0.0,-0.00429893042075,-0.0112467475518,0.000501128367883,0.0,0.0,0.0,0.0,0.0,0.0,0.0,0.0,0.0,6.46477457319,-0.0568396115469,7.13385103118,0.0,0.0,0.0,0.0,0.0,0.0,0.0,0.0,0.0
45588000000,256,45588000000,imu_link,-0.00202614098338,-0.374542743831,0.00520133004692,0.927192846155,0.0,0.0,0.0,0.0,0.0,0.0,0.0,0.0,0.0,-0.00374215862904,-0.0116911742101,0.000290635492145,0.0,0.0,0.0,0.0,0.0,0.0,0.0,0.0,0.0,6.467042338,-0.0568482696699,7.13523371869,0.0,0.0,0.0,0.0,0.0,0.0,0.0,0.0,0.0
45592000000,257,45592000000,imu_link,-0.00203168865506,-0.374565270332,0.00519918066497,0.927183746095,0.0,0.0,0.0,0.0,0.0,0.0,0.0,0.0,0.0,-0.00304220134004,-0.0121307807424,4.33195763808e-05,0.0,0.0,0.0,0.0,0.0,0.0,0.0,0.0,0.0,6.46789544775,-0.0567515681187,7.13341487927,0.0,0.0,0.0,0.0,0.0,0.0,0.0,0.0,0.0
45596000000,258,45596000000,imu_link,-0.00203574635237,-0.374588470734,0.00519710376788,0.927174375963,0.0,0.0,0.0,0.0,0.0,0.0,0.0,0.0,0.0,-0.0023399123933,-0.0124977227109,-0.000202105859835,0.0,0.0,0.0,0.0,0.0,0.0,0.0,0.0,0.0,6.4683083094,-0.0565833976971,7.12972167238,0.0,0.0,0.0,0.0,0.0,0.0,0.0,0.0,0.0
45600000000,259,45600000000,imu_link,-0.00203826797438,-0.374612146016,0.00519511593687,0.927164816142,0.0,0.0,0.0,0.0,0.0,0.0,0.0,0.0,0.0,-0.00161255307916,-0.012757480741,-0.000448504465876,0.0,0.0,0.0,0.0,0.0,0.0,0.0,0.0,0.0,6.46981804386,-0.0564483490724,7.12755771522,0.0,0.0,0.0,0.0,0.0,0.0,0.0,0.0,0.0
45604000000,260,45604000000,imu_link,-0.00203914548506,-0.374636013876,0.00519325324117,0.927155180708,0.0,0.0,0.0,0.0,0.0,0.0,0.0,0.0,0.0,-0.000827510678599,-0.0128653177275,-0.000698445825596,0.0,0.0,0.0,0.0,0.0,0.0,0.0,0.0,0.0,6.47160349769,-0.0563401820229,7.12527527098,0.0,0.0,0.0,0.0,0.0,0.0,0.0,0.0,0.0
45608000000,261,45608000000,imu_link,-0.00203831256913,-0.374659972791,0.0051915453358,0.927145510655,0.0,0.0,0.0,0.0,0.0,0.0,0.0,0.0,0.0,-5.87195056933e-06,-0.0129186127177,-0.000947085147052,0.0,0.0,0.0,0.0,0.0,0.0,0.0,0.0,0.0,6.47171947386,-0.0562040534887,7.12147306921,0.0,0.0,0.0,0.0,0.0,0.0,0.0,0.0,0.0
45612000000,262,45612000000,imu_link,-0.00203583645298,-0.374684001343,0.00519000170241,0.927135814425,0.0,0.0,0.0,0.0,0.0,0.0,0.0,0.0,0.0,0.000786436529701,-0.0129602309508,-0.00117875683172,0.0,0.0,0.0,0.0,0.0,0.0,0.0,0.0,0.0,6.47150512815,-0.0559760207487,7.11792264598,0.0,0.0,0.0,0.0,0.0,0.0,0.0,0.0,0.0
45616000000,263,45616000000,imu_link,-0.00203201022261,-0.374708285192,0.00518857698405,0.927126016576,0.0,0.0,0.0,0.0,0.0,0.0,0.0,0.0,0.0,0.00143381800278,-0.0131012406603,-0.00137656090577,0.0,0.0,0.0,0.0,0.0,0.0,0.0,0.0,0.0,6.47358572708,-0.0557145005598,7.12048637357,0.0,0.0,0.0,0.0,0.0,0.0,0.0,0.0,0.0
45620000000,264,45620000000,imu_link,-0.00202719060152,-0.374733077227,0.00518726079291,0.92711601413,0.0,0.0,0.0,0.0,0.0,0.0,0.0,0.0,0.0,0.00191312395928,-0.0133778360869,-0.00151235310533,0.0,0.0,0.0,0.0,0.0,0.0,0.0,0.0,0.0,6.47602028406,-0.0555324894893,7.12445865568,0.0,0.0,0.0,0.0,0.0,0.0,0.0,0.0,0.0
45624000000,265,45624000000,imu_link,-0.00202196362042,-0.374758677979,0.00518601497002,0.927105684478,0.0,0.0,0.0,0.0,0.0,0.0,0.0,0.0,0.0,0.00211271444722,-0.013815158899,-0.00155603003503,0.0,0.0,0.0,0.0,0.0,0.0,0.0,0.0,0.0,6.47871993088,-0.055384095505,7.12921569363,0.0,0.0,0.0,0.0,0.0,0.0,0.0,0.0,0.0
45628000000,266,45628000000,imu_link,-0.00201683636697,-0.374785287469,0.00518479360593,0.92709494583,0.0,0.0,0.0,0.0,0.0,0.0,0.0,0.0,0.0,0.00206803932906,-0.0143591655658,-0.0015259644748,0.0,0.0,0.0,0.0,0.0,0.0,0.0,0.0,0.0,6.47959129754,-0.0553290002697,7.12961561256,0.0,0.0,0.0,0.0,0.0,0.0,0.0,0.0,0.0
45632000000,267,45632000000,imu_link,-0.00201205173104,-0.374812737487,0.00518356826401,0.927083865724,0.0,0.0,0.0,0.0,0.0,0.0,0.0,0.0,0.0,0.00190595111332,-0.0148118849145,-0.00146356679526,0.0,0.0,0.0,0.0,0.0,0.0,0.0,0.0,0.0,6.48075538098,-0.0553859504615,7.12694591131,0.0,0.0,0.0,0.0,0.0,0.0,0.0,0.0,0.0
45636000000,268,45636000000,imu_link,-0.00200792685981,-0.374840707601,0.00518227583885,0.927072573304,0.0,0.0,0.0,0.0,0.0,0.0,0.0,0.0,0.0,0.00158598911647,-0.0150909824004,-0.00137099153541,0.0,0.0,0.0,0.0,0.0,0.0,0.0,0.0,0.0,6.48176864026,-0.055470255128,7.12278922639,0.0,0.0,0.0,0.0,0.0,0.0,0.0,0.0,0.0
45640000000,269,45640000000,imu_link,-0.00200510941451,-0.374868814019,0.00518085760511,0.927061222642,0.0,0.0,0.0,0.0,0.0,0.0,0.0,0.0,0.0,0.000955959003001,-0.015161566717,-0.00118425608503,0.0,0.0,0.0,0.0,0.0,0.0,0.0,0.0,0.0,6.48428244165,-0.0556100241007,7.12167561991,0.0,0.0,0.0,0.0,0.0,0.0,0.0,0.0,0.0
45644000000,270,45644000000,imu_link,-0.00200439607518,-0.374896849707,0.0051792219175,0.92704989625,0.0,0.0,0.0,0.0,0.0,0.0,0.0,0.0,0.0,-5.9909298031e-05,-0.0151185628591,-0.000890662712435,0.0,0.0,0.0,0.0,0.0,0.0,0.0,0.0,0.0,6.48626316034,-0.055852641958,7.12139974604,0.0,0.0,0.0,0.0,0.0,0.0,0.0,0.0,0.0
45648000000,271,45648000000,imu_link,-0.00200635326971,-0.37492451262,0.00517730806666,0.927038715407,0.0,0.0,0.0,0.0,0.0,0.0,0.0,0.0,0.0,-0.00134879842317,-0.0149112953297,-0.000519014264177,0.0,0.0,0.0,0.0,0.0,0.0,0.0,0.0,0.0,6.48732396295,-0.0562069207615,7.1183782287,0.0,0.0,0.0,0.0,0.0,0.0,0.0,0.0,0.0
45652000000,272,45652000000,imu_link,-0.00201077214221,-0.374951236919,0.00517511876562,0.927027909436,0.0,0.0,0.0,0.0,0.0,0.0,0.0,0.0,0.0,-0.00253866451798,-0.0143993064082,-0.000185247872421,0.0,0.0,0.0,0.0,0.0,0.0,0.0,0.0,0.0,6.48865764446,-0.0567607263936,7.11314521957,0.0,0.0,0.0,0.0,0.0,0.0,0.0,0.0,0.0
45656000000,273,45656000000,imu_link,-0.00201668452747,-0.374976468992,0.00517273626691,0.927017703976,0.0,0.0,0.0,0.0,0.0,0.0,0.0,0.0,0.0,-0.00326268340836,-0.0135909989853,5.14594339117e-06,0.0,0.0,0.0,0.0,0.0,0.0,0.0,0.0,0.0,6.49132104267,-0.0573280224007,7.11108014761,0.0,0.0,0.0,0.0,0.0,0.0,0.0,0.0,0.0
45660000000,274,45660000000,imu_link,-0.00202288332548,-0.374999892033,0.00517031959044,0.927008229043,0.0,0.0,0.0,0.0,0.0,0.0,0.0,0.0,0.0,-0.00339643073414,-0.0126147559079,4.29379807788e-05,0.0,0.0,0.0,0.0,0.0,0.0,0.0,0.0,0.0,6.4946423853,-0.0577520127537,7.11230182883,0.0,0.0,0.0,0.0,0.0,0.0,0.0,0.0,0.0
45664000000,275,45664000000,imu_link,-0.00202837609593,-0.375021800715,0.00516802649391,0.926999366872,0.0,0.0,0.0,0.0,0.0,0.0,0.0,0.0,0.0,-0.00304147819526,-0.0117999017608,-3.2214741893e-05,0.0,0.0,0.0,0.0,0.0,0.0,0.0,0.0,0.0,6.49645446294,-0.0579538065089,7.11594618807,0.0,0.0,0.0,0.0,0.0,0.0,0.0,0.0,0.0
45668000000,276,45668000000,imu_link,-0.00203270297046,-0.375042800797,0.00516597188359,0.926990872891,0.0,0.0,0.0,0.0,0.0,0.0,0.0,0.0,0.0,-0.00245364578775,-0.0113129808655,-0.000140324564289,0.0,0.0,0.0,0.0,0.0,0.0,0.0,0.0,0.0,6.4963938749,-0.0579328436974,7.11822106768,0.0,0.0,0.0,0.0,0.0,0.0,0.0,0.0,0.0
45672000000,277,45672000000,imu_link,-0.00203584782066,-0.375063389648,0.00516418143598,0.926982545844,0.0,0.0,0.0,0.0,0.0,0.0,0.0,0.0,0.0,-0.00185501488363,-0.0110943954669,-0.000239554444807,0.0,0.0,0.0,0.0,0.0,0.0,0.0,0.0,0.0,6.49624377047,-0.0577918255954,7.11946359198,0.0,0.0,0.0,0.0,0.0,0.0,0.0,0.0,0.0
45676000000,278,45676000000,imu_link,-0.00203809770816,-0.375083758641,0.00516263670404,0.926974307812,0.0,0.0,0.0,0.0,0.0,0.0,0.0,0.0,0.0,-0.00139346969668,-0.0109783607703,-0.000293507300299,0.0,0.0,0.0,0.0,0.0,0.0,0.0,0.0,0.0,6.49667129742,-0.0576112013957,7.11909364258,0.0,0.0,0.0,0.0,0.0,0.0,0.0,0.0,0.0
45680000000,279,45680000000,imu_link,-0.0020395057628,-0.375103857911,0.0051613319688,0.926966178913,0.0,0.0,0.0,0.0,0.0,0.0,0.0,0.0,0.0,-0.000957474094629,-0.0108352982013,-0.000340157669462,0.0,0.0,0.0,0.0,0.0,0.0,0.0,0.0,0.0,6.49667734817,-0.0574823980444,7.11545471762,0.0,0.0,0.0,0.0,0.0,0.0,0.0,0.0,0.0
45684000000,280,45684000000,imu_link,-0.00203979988756,-0.375123486621,0.00516023926756,0.926958241202,0.0,0.0,0.0,0.0,0.0,0.0,0.0,0.0,0.0,-0.000400009727434,-0.0105844345663,-0.000450816734254,0.0,0.0,0.0,0.0,0.0,0.0,0.0,0.0,0.0,6.49727394283,-0.0574893733477,7.1120880285,0.0,0.0,0.0,0.0,0.0,0.0,0.0,0.0,0.0
45688000000,281,45688000000,imu_link,-0.0020386349106,-0.375142671853,0.00515931422283,0.926950484761,0.0,0.0,0.0,0.0,0.0,0.0,0.0,0.0,0.0,0.000309028508945,-0.0103488285892,-0.000646798500867,0.0,0.0,0.0,0.0,0.0,0.0,0.0,0.0,0.0,6.49762773707,-0.0574973004992,7.110391938,0.0,0.0,0.0,0.0,0.0,0.0,0.0,0.0,0.0
45692000000,282,45692000000,imu_link,-0.00203593223245,-0.375161527816,0.00515853910592,0.926942863666,0.0,0.0,0.0,0.0,0.0,0.0,0.0,0.0,0.0,0.00105082446386,-0.0101749527101,-0.000865752845121,0.0,0.0,0.0,0.0,0.0,0.0,0.0,0.0,0.0,6.49787177973,-0.0574024350189,7.10919767631,0.0,0.0,0.0,0.0,0.0,0.0,0.0,0.0,0.0
45696000000,283,45696000000,imu_link,-0.00203195689498,-0.375180149639,0.00515789748058,0.926935338933,0.0,0.0,0.0,0.0,0.0,0.0,0.0,0.0,0.0,0.00166640814814,-0.0100517785701,-0.00104261992616,0.0,0.0,0.0,0.0,0.0,0.0,0.0,0.0,0.0,6.49844387779,-0.0572545883645,7.10841368302,0.0,0.0,0.0,0.0,0.0,0.0,0.0,0.0,0.0
45700000000,284,45700000000,imu_link,-0.00202735943642,-0.375198545292,0.00515737461476,0.926927905995,0.0,0.0,0.0,0.0,0.0,0.0,0.0,0.0,0.0,0.00197769581548,-0.00993146133025,-0.00110428942047,0.0,0.0,0.0,0.0,0.0,0.0,0.0,0.0,0.0,6.49987670382,-0.0570632171542,7.10865728345,0.0,0.0,0.0,0.0,0.0,0.0,0.0,0.0,0.0
45704000000,285,45704000000,imu_link,-0.00202274193225,-0.375216552722,0.00515696758897,0.926920629161,0.0,0.0,0.0,0.0,0.0,0.0,0.0,0.0,0.0,0.00200987708346,-0.00972241814566,-0.00105437129318,0.0,0.0,0.0,0.0,0.0,0.0,0.0,0.0,0.0,6.500933932,-0.0569611324695,7.10703650752,0.0,0.0,0.0,0.0,0.0,0.0,0.0,0.0,0.0
45708000000,286,45708000000,imu_link,-0.00201830652755,-0.375234152162,0.0051566580903,0.926913516121,0.0,0.0,0.0,0.0,0.0,0.0,0.0,0.0,0.0,0.00194499575237,-0.00950223061037,-0.000975017685665,0.0,0.0,0.0,0.0,0.0,0.0,0.0,0.0,0.0,6.50099505836,-0.0569965876781,7.10408832397,0.0,0.0,0.0,0.0,0.0,0.0,0.0,0.0,0.0
45712000000,287,45712000000,imu_link,-0.00201405344929,-0.375251344447,0.0051564199615,0.926906566712,0.0,0.0,0.0,0.0,0.0,0.0,0.0,0.0,0.0,0.0018751004491,-0.00928243384475,-0.000907744293652,0.0,0.0,0.0,0.0,0.0,0.0,0.0,0.0,0.0,6.50123050396,-0.0570979339069,7.10182151011,0.0,0.0,0.0,0.0,0.0,0.0,0.0,0.0,0.0
45716000000,288,45716000000,imu_link,-0.00200979969933,-0.375268116293,0.00515623281741,0.92689978685,0.0,0.0,0.0,0.0,0.0,0.0,0.0,0.0,0.0,0.00188623250555,-0.00905582202652,-0.000884255031396,0.0,0.0,0.0,0.0,0.0,0.0,0.0,0.0,0.0,6.50200527606,-0.0572390475139,7.10059786503,0.0,0.0,0.0,0.0,0.0,0.0,0.0,0.0,0.0
45720000000,289,45720000000,imu_link,-0.00200540602654,-0.375284451157,0.00515607909935,0.92689318366,0.0,0.0,0.0,0.0,0.0,0.0,0.0,0.0,0.0,0.00195865571834,-0.00882054743126,-0.000895034383771,0.0,0.0,0.0,0.0,0.0,0.0,0.0,0.0,0.0,6.50276276252,-0.0573433841894,7.0992476603,0.0,0.0,0.0,0.0,0.0,0.0,0.0,0.0,0.0
45724000000,290,45724000000,imu_link,-0.00200098949632,-0.375300360454,0.00515594514062,0.926886752367,0.0,0.0,0.0,0.0,0.0,0.0,0.0,0.0,0.0,0.00197422609265,-0.00859114320017,-0.000890182451683,0.0,0.0,0.0,0.0,0.0,0.0,0.0,0.0,0.0,6.50292705613,-0.0573625043715,7.09642050364,0.0,0.0,0.0,0.0,0.0,0.0,0.0,0.0,0.0
45728000000,291,45728000000,imu_link,-0.00199690576535,-0.37531595825,0.005155783189,0.926880446309,0.0,0.0,0.0,0.0,0.0,0.0,0.0,0.0,0.0,0.00181566794496,-0.00842239397113,-0.000840716923675,0.0,0.0,0.0,0.0,0.0,0.0,0.0,0.0,0.0,6.50401544854,-0.0574326924937,7.09654348508,0.0,0.0,0.0,0.0,0.0,0.0,0.0,0.0,0.0
45732000000,292,45732000000,imu_link,-0.00199351309405,-0.375331451208,0.00515552798563,0.926874181413,0.0,0.0,0.0,0.0,0.0,0.0,0.0,0.0,0.0,0.0014782150306,-0.00836420867363,-0.000754252115237,0.0,0.0,0.0,0.0,0.0,0.0,0.0,0.0,0.0,6.50537217533,-0.0575819739174,7.0980762823,0.0,0.0,0.0,0.0,0.0,0.0,0.0,0.0,0.0
45736000000,293,45736000000,imu_link,-0.00199092263351,-0.375347264946,0.00515518976356,0.926867785039,0.0,0.0,0.0,0.0,0.0,0.0,0.0,0.0,0.0,0.00108990309319,-0.0085353932465,-0.000642159410502,0.0,0.0,0.0,0.0,0.0,0.0,0.0,0.0,0.0,6.50710349714,-0.0578313465647,7.1021268799,0.0,0.0,0.0,0.0,0.0,0.0,0.0,0.0,0.0
45740000000,294,45740000000,imu_link,-0.00198891204403,-0.375363732302,0.0051548382434,0.926861122469,0.0,0.0,0.0,0.0,0.0,0.0,0.0,0.0,0.0,0.000816725742382,-0.00888675212228,-0.000539460194562,0.0,0.0,0.0,0.0,0.0,0.0,0.0,0.0,0.0,6.50837907362,-0.0581324306556,7.10430781019,0.0,0.0,0.0,0.0,0.0,0.0,0.0,0.0,0.0
45744000000,295,45744000000,imu_link,-0.00198740617618,-0.375381003938,0.0051545407525,0.926854132433,0.0,0.0,0.0,0.0,0.0,0.0,0.0,0.0,0.0,0.000590564006995,-0.00931969224903,-0.000419650099137,0.0,0.0,0.0,0.0,0.0,0.0,0.0,0.0,0.0,6.50980347218,-0.0583705860155,7.10510014699,0.0,0.0,0.0,0.0,0.0,0.0,0.0,0.0,0.0
45748000000,296,45748000000,imu_link,-0.00198636817518,-0.375398888471,0.00515433874788,0.926846892247,0.0,0.0,0.0,0.0,0.0,0.0,0.0,0.0,0.0,0.000389835536864,-0.00964956514196,-0.000287549335509,0.0,0.0,0.0,0.0,0.0,0.0,0.0,0.0,0.0,6.51108203337,-0.0585298835401,7.10288527616,0.0,0.0,0.0,0.0,0.0,0.0,0.0,0.0,0.0
45752000000,297,45752000000,imu_link,-0.00198591226589,-0.375416956052,0.0051542462513,0.926839575658,0.0,0.0,0.0,0.0,0.0,0.0,0.0,0.0,0.0,0.000140087558996,-0.00974734368259,-0.000127527348924,0.0,0.0,0.0,0.0,0.0,0.0,0.0,0.0,0.0,6.51177365836,-0.0586274789406,7.09728520315,0.0,0.0,0.0,0.0,0.0,0.0,0.0,0.0,0.0
45756000000,298,45756000000,imu_link,-0.00198628885622,-0.375434635302,0.00515425751464,0.926832413601,0.0,0.0,0.0,0.0,0.0,0.0,0.0,0.0,0.0,-0.000225078396509,-0.00953633403367,7.68116388396e-05,0.0,0.0,0.0,0.0,0.0,0.0,0.0,0.0,0.0,6.51446027208,-0.0587399645797,7.09477201047,0.0,0.0,0.0,0.0,0.0,0.0,0.0,0.0,0.0
45760000000,299,45760000000,imu_link,-0.0019877598942,-0.375451606435,0.00515434761606,0.926825535221,0.0,0.0,0.0,0.0,0.0,0.0,0.0,0.0,0.0,-0.00071535726234,-0.0091521873337,0.000318765447498,0.0,0.0,0.0,0.0,0.0,0.0,0.0,0.0,0.0,6.51585847119,-0.0588814773561,7.09226312487,0.0,0.0,0.0,0.0,0.0,0.0,0.0,0.0,0.0
45764000000,300,45764000000,imu_link,-0.00199041457589,-0.375467947557,0.00515449857749,0.926818908823,0.0,0.0,0.0,0.0,0.0,0.0,0.0,0.0,0.0,-0.00125057379208,-0.00880993917079,0.000569145968862,0.0,0.0,0.0,0.0,0.0,0.0,0.0,0.0,0.0,6.51476095882,-0.0590756599787,7.08844358272,0.0,0.0,0.0,0.0,0.0,0.0,0.0,0.0,0.0
45768000000,301,45768000000,imu_link,-0.00199423948713,-0.375484156361,0.0051546811847,0.926812332995,0.0,0.0,0.0,0.0,0.0,0.0,0.0,0.0,0.0,-0.00178653689444,-0.0087361430409,0.000803504123208,0.0,0.0,0.0,0.0,0.0,0.0,0.0,0.0,0.0,6.51640113201,-0.0593080591409,7.09302642445,0.0,0.0,0.0,0.0,0.0,0.0,0.0,0.0,0.0
45772000000,302,45772000000,imu_link,-0.0019992077096,-0.375500694258,0.00515487540904,0.926805620958,0.0,0.0,0.0,0.0,0.0,0.0,0.0,0.0,0.0,-0.00231515734582,-0.00891128418737,0.00102355810945,0.0,0.0,0.0,0.0,0.0,0.0,0.0,0.0,0.0,6.51667882049,-0.0595278082429,7.09470458764,0.0,0.0,0.0,0.0,0.0,0.0,0.0,0.0,0.0
45776000000,303,45776000000,imu_link,-0.00200518719431,-0.375517710043,0.00515503088986,0.92679871295,0.0,0.0,0.0,0.0,0.0,0.0,0.0,0.0,0.0,-0.00279248083848,-0.00916688694779,0.00119549650085,0.0,0.0,0.0,0.0,0.0,0.0,0.0,0.0,0.0,6.51769174792,-0.0598028624273,7.09510100851,0.0,0.0,0.0,0.0,0.0,0.0,0.0,0.0,0.0
45780000000,304,45780000000,imu_link,-0.00201194621776,-0.375534939076,0.00515515374883,0.92679171662,0.0,0.0,0.0,0.0,0.0,0.0,0.0,0.0,0.0,-0.00316048183232,-0.00928024767489,0.00132675870079,0.0,0.0,0.0,0.0,0.0,0.0,0.0,0.0,0.0,6.51795755064,-0.0600970290155,7.09042151583,0.0,0.0,0.0,0.0,0.0,0.0,0.0,0.0,0.0
45784000000,305,45784000000,imu_link,-0.00201905364985,-0.375552025624,0.0051552676979,0.926784776896,0.0,0.0,0.0,0.0,0.0,0.0,0.0,0.0,0.0,-0.00332318173596,-0.00920268465931,0.00138804712844,0.0,0.0,0.0,0.0,0.0,0.0,0.0,0.0,0.0,6.5190750371,-0.0603775505737,7.08669358324,0.0,0.0,0.0,0.0,0.0,0.0,0.0,0.0,0.0
45788000000,306,45788000000,imu_link,-0.00202619838527,-0.375568775099,0.00515539255189,0.926777973205,0.0,0.0,0.0,0.0,0.0,0.0,0.0,0.0,0.0,-0.00333741394808,-0.00902085844042,0.00140009469805,0.0,0.0,0.0,0.0,0.0,0.0,0.0,0.0,0.0,6.51892678372,-0.0605670401801,7.08198631922,0.0,0.0,0.0,0.0,0.0,0.0,0.0,0.0,0.0
45792000000,307,45792000000,imu_link,-0.00203327062473,-0.375585257234,0.00515553569177,0.926771277506,0.0,0.0,0.0,0.0,0.0,0.0,0.0,0.0,0.0,-0.00329958778722,-0.00887690259461,0.00139494703761,0.0,0.0,0.0,0.0,0.0,0.0,0.0,0.0,0.0,6.51861100906,-0.0606049132928,7.0792672377,0.0,0.0,0.0,0.0,0.0,0.0,0.0,0.0,0.0
45796000000,308,45796000000,imu_link,-0.00204040211679,-0.375601789162,0.00515564466169,0.926764561291,0.0,0.0,0.0,0.0,0.0,0.0,0.0,0.0,0.0,-0.00333361067131,-0.00890364131602,0.00139024264085,0.0,0.0,0.0,0.0,0.0,0.0,0.0,0.0,0.0,6.51983712085,-0.0605538310425,7.08165255493,0.0,0.0,0.0,0.0,0.0,0.0,0.0,0.0,0.0
45800000000,309,45800000000,imu_link,-0.00204742380597,-0.375618736092,0.00515571344522,0.926757676942,0.0,0.0,0.0,0.0,0.0,0.0,0.0,0.0,0.0,-0.00329151832862,-0.00912776315164,0.00135100993246,0.0,0.0,0.0,0.0,0.0,0.0,0.0,0.0,0.0,6.52166750425,-0.0606086073221,7.08558967116,0.0,0.0,0.0,0.0,0.0,0.0,0.0,0.0,0.0
45804000000,310,45804000000,imu_link,-0.00205402145869,-0.375636366668,0.00515573929209,0.926750516258,0.0,0.0,0.0,0.0,0.0,0.0,0.0,0.0,0.0,-0.00310513795054,-0.00949749830322,0.00125148846768,0.0,0.0,0.0,0.0,0.0,0.0,0.0,0.0,0.0,6.52351363331,-0.0606821154049,7.08874633738,0.0,0.0,0.0,0.0,0.0,0.0,0.0,0.0,0.0
45808000000,311,45808000000,imu_link,-0.00205988273294,-0.375654791338,0.00515574962909,0.926743034975,0.0,0.0,0.0,0.0,0.0,0.0,0.0,0.0,0.0,-0.00276920774517,-0.00992755801795,0.0011060072287,0.0,0.0,0.0,0.0,0.0,0.0,0.0,0.0,0.0,6.52417368462,-0.0607111111479,7.08825766564,0.0,0.0,0.0,0.0,0.0,0.0,0.0,0.0,0.0
45812000000,312,45812000000,imu_link,-0.0020651575661,-0.375673858107,0.00515571751843,0.926735294481,0.0,0.0,0.0,0.0,0.0,0.0,0.0,0.0,0.0,-0.0025073627106,-0.0102752436237,0.000976195380233,0.0,0.0,0.0,0.0,0.0,0.0,0.0,0.0,0.0,6.52427040398,-0.0606151705061,7.08412352691,0.0,0.0,0.0,0.0,0.0,0.0,0.0,0.0,0.0
45816000000,313,45816000000,imu_link,-0.002070249116,-0.375693210787,0.00515562200166,0.926727438354,0.0,0.0,0.0,0.0,0.0,0.0,0.0,0.0,0.0,-0.00243520162044,-0.0104298527138,0.000912390536311,0.0,0.0,0.0,0.0,0.0,0.0,0.0,0.0,0.0,6.52601714099,-0.0604852729753,7.08154746292,0.0,0.0,0.0,0.0,0.0,0.0,0.0,0.0,0.0
45820000000,314,45820000000,imu_link,-0.00207544522412,-0.375712494727,0.00515544497369,0.926719609817,0.0,0.0,0.0,0.0,0.0,0.0,0.0,0.0,0.0,-0.00249875594795,-0.0103924645863,0.00089426213961,0.0,0.0,0.0,0.0,0.0,0.0,0.0,0.0,0.0,6.52808117682,-0.0604698892082,7.07972847329,0.0,0.0,0.0,0.0,0.0,0.0,0.0,0.0,0.0
45824000000,315,45824000000,imu_link,-0.00208072741898,-0.375731683342,0.00515521385172,0.926711819541,0.0,0.0,0.0,0.0,0.0,0.0,0.0,0.0,0.0,-0.00254852155644,-0.0103408291326,0.000885369386768,0.0,0.0,0.0,0.0,0.0,0.0,0.0,0.0,0.0,6.5285106651,-0.0605637050048,7.07754302073,0.0,0.0,0.0,0.0,0.0,0.0,0.0,0.0,0.0
45828000000,316,45828000000,imu_link,-0.00208600256616,-0.375750999322,0.00515496035372,0.926703977269,0.0,0.0,0.0,0.0,0.0,0.0,0.0,0.0,0.0,-0.00254984205715,-0.0104096075089,0.000873678817692,0.0,0.0,0.0,0.0,0.0,0.0,0.0,0.0,0.0,6.5297597837,-0.0606758648148,7.07929350561,0.0,0.0,0.0,0.0,0.0,0.0,0.0,0.0,0.0
45832000000,317,45832000000,imu_link,-0.00209141017144,-0.375770582952,0.00515463171987,0.926696026086,0.0,0.0,0.0,0.0,0.0,0.0,0.0,0.0,0.0,-0.00262613641925,-0.0105536653584,0.000863751662692,0.0,0.0,0.0,0.0,0.0,0.0,0.0,0.0,0.0,6.53042730846,-0.0607395079177,7.07914787868,0.0,0.0,0.0,0.0,0.0,0.0,0.0,0.0,0.0
45836000000,318,45836000000,imu_link,-0.00209689146603,-0.375790180238,0.00515420248093,0.926688069244,0.0,0.0,0.0,0.0,0.0,0.0,0.0,0.0,0.0,-0.0026792235468,-0.0105607610442,0.000830981931941,0.0,0.0,0.0,0.0,0.0,0.0,0.0,0.0,0.0,6.53223805485,-0.0608140812464,7.0779978916,0.0,0.0,0.0,0.0,0.0,0.0,0.0,0.0,0.0
45840000000,319,45840000000,imu_link,-0.00210252338231,-0.375809452425,0.00515365730534,0.926680244032,0.0,0.0,0.0,0.0,0.0,0.0,0.0,0.0,0.0,-0.00276982131692,-0.0103848862337,0.000805566084782,0.0,0.0,0.0,0.0,0.0,0.0,0.0,0.0,0.0,6.53383432075,-0.0608186545116,7.07570422338,0.0,0.0,0.0,0.0,0.0,0.0,0.0,0.0,0.0
45844000000,320,45844000000,imu_link,-0.00210829421173,-0.37582825113,0.00515302211782,0.926672610532,0.0,0.0,0.0,0.0,0.0,0.0,0.0,0.0,0.0,-0.00284967739295,-0.0101290270181,0.00078996611855,0.0,0.0,0.0,0.0,0.0,0.0,0.0,0.0,0.0,6.53338401915,-0.0608393232298,7.07101649703,0.0,0.0,0.0,0.0,0.0,0.0,0.0,0.0,0.0
45848000000,321,45848000000,imu_link,-0.00211408691499,-0.375846728686,0.0051523564075,0.926665106927,0.0,0.0,0.0,0.0,0.0,0.0,0.0,0.0,0.0,-0.00286458363086,-0.00995572904137,0.000779938067711,0.0,0.0,0.0,0.0,0.0,0.0,0.0,0.0,0.0,6.53470781059,-0.0609069926561,7.07228276223,0.0,0.0,0.0,0.0,0.0,0.0,0.0,0.0,0.0
45852000000,322,45852000000,imu_link,-0.00211981146526,-0.375865080029,0.00515170905997,0.926657654103,0.0,0.0,0.0,0.0,0.0,0.0,0.0,0.0,0.0,-0.00282917651242,-0.00988790304626,0.000775641202121,0.0,0.0,0.0,0.0,0.0,0.0,0.0,0.0,0.0,6.53471867508,-0.060957085864,7.07150845427,0.0,0.0,0.0,0.0,0.0,0.0,0.0,0.0,0.0
45856000000,323,45856000000,imu_link,-0.00212548051413,-0.375883213795,0.00515109001573,0.926650289047,0.0,0.0,0.0,0.0,0.0,0.0,0.0,0.0,0.0,-0.00279748852748,-0.00977077103464,0.000778328938713,0.0,0.0,0.0,0.0,0.0,0.0,0.0,0.0,0.0,6.5356963017,-0.0609963247509,7.06999653848,0.0,0.0,0.0,0.0,0.0,0.0,0.0,0.0,0.0
45860000000,324,45860000000,imu_link,-0.00213102666264,-0.37590078959,0.00515051051306,0.926643149952,0.0,0.0,0.0,0.0,0.0,0.0,0.0,0.0,0.0,-0.00273143697653,-0.00947014069735,0.000773562461985,0.0,0.0,0.0,0.0,0.0,0.0,0.0,0.0,0.0,6.53814807673,-0.0610486544507,7.06905164115,0.0,0.0,0.0,0.0,0.0,0.0,0.0,0.0,0.0
45864000000,325,45864000000,imu_link,-0.0021363768291,-0.375917371989,0.00514997851466,0.926636413623,0.0,0.0,0.0,0.0,0.0,0.0,0.0,0.0,0.0,-0.00262871842087,-0.00893473378832,0.000758758559984,0.0,0.0,0.0,0.0,0.0,0.0,0.0,0.0,0.0,6.5399918571,-0.0610941300423,7.06629749867,0.0,0.0,0.0,0.0,0.0,0.0,0.0,0.0,0.0
45868000000,326,45868000000,imu_link,-0.00214144493903,-0.375932781714,0.00514951479276,0.926630152943,0.0,0.0,0.0,0.0,0.0,0.0,0.0,0.0,0.0,-0.00248167562514,-0.0083028098091,0.000737405179975,0.0,0.0,0.0,0.0,0.0,0.0,0.0,0.0,0.0,6.54031469937,-0.0611633124591,7.06315868133,0.0,0.0,0.0,0.0,0.0,0.0,0.0,0.0,0.0
45872000000,327,45872000000,imu_link,-0.00214612870872,-0.375947264975,0.00514914992538,0.926624268161,0.0,0.0,0.0,0.0,0.0,0.0,0.0,0.0,0.0,-0.0022822357682,-0.00780400432188,0.000710987057863,0.0,0.0,0.0,0.0,0.0,0.0,0.0,0.0,0.0,6.54220718729,-0.0612638080339,7.06662621656,0.0,0.0,0.0,0.0,0.0,0.0,0.0,0.0,0.0
45876000000,328,45876000000,imu_link,-0.00215026166692,-0.375961419958,0.00514887388991,0.926618517069,0.0,0.0,0.0,0.0,0.0,0.0,0.0,0.0,0.0,-0.00200935143031,-0.0076282921552,0.000648613993015,0.0,0.0,0.0,0.0,0.0,0.0,0.0,0.0,0.0,6.54540728767,-0.0613682983549,7.07557531045,0.0,0.0,0.0,0.0,0.0,0.0,0.0,0.0,0.0
45880000000,329,45880000000,imu_link,-0.00215361735893,-0.375975820293,0.00514865430956,0.926612667648,0.0,0.0,0.0,0.0,0.0,0.0,0.0,0.0,0.0,-0.00163936169224,-0.00776251159323,0.000528648479805,0.0,0.0,0.0,0.0,0.0,0.0,0.0,0.0,0.0,6.54862301662,-0.0614022195066,7.0843264549,0.0,0.0,0.0,0.0,0.0,0.0,0.0,0.0,0.0
45884000000,330,45884000000,imu_link,-0.0021560985322,-0.375990575435,0.0051484452193,0.926606675961,0.0,0.0,0.0,0.0,0.0,0.0,0.0,0.0,0.0,-0.0012332861975,-0.00795590320288,0.000369093835267,0.0,0.0,0.0,0.0,0.0,0.0,0.0,0.0,0.0,6.54916268397,-0.0613123235233,7.08420207018,0.0,0.0,0.0,0.0,0.0,0.0,0.0,0.0,0.0
45888000000,331,45888000000,imu_link,-0.00215766249167,-0.376005473972,0.00514824222443,0.926600627907,0.0,0.0,0.0,0.0,0.0,0.0,0.0,0.0,0.0,-0.000807621972214,-0.00803530256942,0.000199476488469,0.0,0.0,0.0,0.0,0.0,0.0,0.0,0.0,0.0,6.54869923062,-0.0611707718537,7.07880842413,0.0,0.0,0.0,0.0,0.0,0.0,0.0,0.0,0.0
45892000000,332,45892000000,imu_link,-0.00215840125917,-0.376020195678,0.00514804174871,0.92659465324,0.0,0.0,0.0,0.0,0.0,0.0,0.0,0.0,0.0,-0.000424302316739,-0.00794170720235,4.55071279529e-05,0.0,0.0,0.0,0.0,0.0,0.0,0.0,0.0,0.0,6.5501338655,-0.0610577644728,7.07610695743,0.0,0.0,0.0,0.0,0.0,0.0,0.0,0.0,0.0
45896000000,333,45896000000,imu_link,-0.00215848814077,-0.376034548563,0.00514780784924,0.926588829682,0.0,0.0,0.0,0.0,0.0,0.0,0.0,0.0,0.0,-0.00012745688256,-0.00774406452022,-9.25300621154e-05,0.0,0.0,0.0,0.0,0.0,0.0,0.0,0.0,0.0,6.55054002168,-0.0609638611219,7.07282475299,0.0,0.0,0.0,0.0,0.0,0.0,0.0,0.0,0.0
45900000000,334,45900000000,imu_link,-0.00215827481546,-0.376048531133,0.00514748029227,0.926583157374,0.0,0.0,0.0,0.0,0.0,0.0,0.0,0.0,0.0,-4.8655440019e-06,-0.00754473436736,-0.000192354790229,0.0,0.0,0.0,0.0,0.0,0.0,0.0,0.0,0.0,6.55169822429,-0.0608892009064,7.07298656436,0.0,0.0,0.0,0.0,0.0,0.0,0.0,0.0,0.0
45904000000,335,45904000000,imu_link,-0.00215805739636,-0.376062248709,0.0051470202774,0.926577593117,0.0,0.0,0.0,0.0,0.0,0.0,0.0,0.0,0.0,-2.70755918002e-05,-0.00740151593625,-0.000254483280542,0.0,0.0,0.0,0.0,0.0,0.0,0.0,0.0,0.0,6.55202052765,-0.0608520626873,7.07201504805,0.0,0.0,0.0,0.0,0.0,0.0,0.0,0.0,0.0
45908000000,336,45908000000,imu_link,-0.00215787325799,-0.37607568956,0.00514646111443,0.926572141413,0.0,0.0,0.0,0.0,0.0,0.0,0.0,0.0,0.0,-6.03035077778e-05,-0.00725195589924,-0.000294150731527,0.0,0.0,0.0,0.0,0.0,0.0,0.0,0.0,0.0,6.55235518837,-0.0608999962682,7.06995502959,0.0,0.0,0.0,0.0,0.0,0.0,0.0,0.0,0.0
45912000000,337,45912000000,imu_link,-0.00215766321508,-0.376088948542,0.00514585774986,0.926566763608,0.0,0.0,0.0,0.0,0.0,0.0,0.0,0.0,0.0,-5.60661488226e-05,-0.00715382217389,-0.000319493684325,0.0,0.0,0.0,0.0,0.0,0.0,0.0,0.0,0.0,6.55316564611,-0.061017865496,7.06981212629,0.0,0.0,0.0,0.0,0.0,0.0,0.0,0.0,0.0
45916000000,338,45916000000,imu_link,-0.00215720355251,-0.376102334608,0.00514526991326,0.926561334491,0.0,0.0,0.0,0.0,0.0,0.0,0.0,0.0,0.0,6.21161062146e-05,-0.00722300576425,-0.000359244515526,0.0,0.0,0.0,0.0,0.0,0.0,0.0,0.0,0.0,6.55405184589,-0.0611935208952,7.07162076307,0.0,0.0,0.0,0.0,0.0,0.0,0.0,0.0,0.0
45920000000,339,45920000000,imu_link,-0.00215649282582,-0.376116364503,0.00514468120983,0.926555644388,0.0,0.0,0.0,0.0,0.0,0.0,0.0,0.0,0.0,0.000176328412628,-0.0075710031418,-0.000406882012221,0.0,0.0,0.0,0.0,0.0,0.0,0.0,0.0,0.0,6.55559584816,-0.0612872842373,7.07639242388,0.0,0.0,0.0,0.0,0.0,0.0,0.0,0.0,0.0
45924000000,340,45924000000,imu_link,-0.00215552329271,-0.376131156093,0.00514408263137,0.926549645486,0.0,0.0,0.0,0.0,0.0,0.0,0.0,0.0,0.0,0.000292078310243,-0.00798260685026,-0.00046015451996,0.0,0.0,0.0,0.0,0.0,0.0,0.0,0.0,0.0,6.55602843993,-0.0613595152255,7.07547343693,0.0,0.0,0.0,0.0,0.0,0.0,0.0,0.0,0.0
45928000000,341,45928000000,imu_link,-0.00215421883183,-0.376146440833,0.00514349068788,0.926543446846,0.0,0.0,0.0,0.0,0.0,0.0,0.0,0.0,0.0,0.000447006047193,-0.00824950316493,-0.000520086852816,0.0,0.0,0.0,0.0,0.0,0.0,0.0,0.0,0.0,6.55691089641,-0.0613877978884,7.07219656705,0.0,0.0,0.0,0.0,0.0,0.0,0.0,0.0,0.0
45932000000,342,45932000000,imu_link,-0.00215251540527,-0.376161747337,0.00514292133824,0.926537239877,0.0,0.0,0.0,0.0,0.0,0.0,0.0,0.0,0.0,0.000636019926061,-0.00826220260048,-0.000584656545842,0.0,0.0,0.0,0.0,0.0,0.0,0.0,0.0,0.0,6.55857079971,-0.0613809798832,7.06866302234,0.0,0.0,0.0,0.0,0.0,0.0,0.0,0.0,0.0
45936000000,343,45936000000,imu_link,-0.00215031985083,-0.376176762486,0.0051423929338,0.926531151816,0.0,0.0,0.0,0.0,0.0,0.0,0.0,0.0,0.0,0.000872585517862,-0.00810617212917,-0.000658239950569,0.0,0.0,0.0,0.0,0.0,0.0,0.0,0.0,0.0,6.55905330766,-0.0613930263322,7.0643657227,0.0,0.0,0.0,0.0,0.0,0.0,0.0,0.0,0.0
45940000000,344,45940000000,imu_link,-0.00214757013976,-0.376191632149,0.00514192370875,0.926525123493,0.0,0.0,0.0,0.0,0.0,0.0,0.0,0.0,0.0,0.00114087646844,-0.00802902619111,-0.000735051783498,0.0,0.0,0.0,0.0,0.0,0.0,0.0,0.0,0.0,6.55987282153,-0.0613984073572,7.06490703138,0.0,0.0,0.0,0.0,0.0,0.0,0.0,0.0,0.0
45944000000,345,45944000000,imu_link,-0.00214416526599,-0.376206800851,0.00514152801279,0.92651897457,0.0,0.0,0.0,0.0,0.0,0.0,0.0,0.0,0.0,0.0014573210117,-0.00819200727171,-0.000824232912905,0.0,0.0,0.0,0.0,0.0,0.0,0.0,0.0,0.0,6.5604617737,-0.0614012219663,7.06744539054,0.0,0.0,0.0,0.0,0.0,0.0,0.0,0.0,0.0
45948000000,346,45948000000,imu_link,-0.00214010832285,-0.376222700897,0.00514118369071,0.926512529595,0.0,0.0,0.0,0.0,0.0,0.0,0.0,0.0,0.0,0.00176686443082,-0.00858822946708,-0.000923112924337,0.0,0.0,0.0,0.0,0.0,0.0,0.0,0.0,0.0,6.56192148725,-0.0613783844062,7.07122542093,0.0,0.0,0.0,0.0,0.0,0.0,0.0,0.0,0.0
45952000000,347,45952000000,imu_link,-0.00213533593784,-0.376239332803,0.00514090137763,0.926505788393,0.0,0.0,0.0,0.0,0.0,0.0,0.0,0.0,0.0,0.00210776366858,-0.00898489702489,-0.00102899125087,0.0,0.0,0.0,0.0,0.0,0.0,0.0,0.0,0.0,6.56175019687,-0.0613527810925,7.06811132243,0.0,0.0,0.0,0.0,0.0,0.0,0.0,0.0,0.0
45956000000,348,45956000000,imu_link,-0.00212985946206,-0.376256275482,0.00514068719292,0.926498921853,0.0,0.0,0.0,0.0,0.0,0.0,0.0,0.0,0.0,0.00244581939071,-0.00915432477021,-0.00112989353879,0.0,0.0,0.0,0.0,0.0,0.0,0.0,0.0,0.0,6.56267442279,-0.0613527342516,7.06360717819,0.0,0.0,0.0,0.0,0.0,0.0,0.0,0.0,0.0
45960000000,349,45960000000,imu_link,-0.00212392307074,-0.376273018698,0.00514054823546,0.926492136564,0.0,0.0,0.0,0.0,0.0,0.0,0.0,0.0,0.0,0.00267362660089,-0.00904789974455,-0.00118156403522,0.0,0.0,0.0,0.0,0.0,0.0,0.0,0.0,0.0,6.56514526792,-0.0613695853682,7.06145821511,0.0,0.0,0.0,0.0,0.0,0.0,0.0,0.0,0.0
45964000000,350,45964000000,imu_link,-0.00211794670349,-0.376289612271,0.00514047464179,0.92648541139,0.0,0.0,0.0,0.0,0.0,0.0,0.0,0.0,0.0,0.00270489106878,-0.00896744124334,-0.00115880104986,0.0,0.0,0.0,0.0,0.0,0.0,0.0,0.0,0.0,6.56519383747,-0.0614004136345,7.06017043165,0.0,0.0,0.0,0.0,0.0,0.0,0.0,0.0,0.0
45968000000,351,45968000000,imu_link,-0.00211246522879,-0.376306349441,0.00514044266459,0.926478626149,0.0,0.0,0.0,0.0,0.0,0.0,0.0,0.0,0.0,0.00248303293876,-0.00904403432392,-0.00104640873465,0.0,0.0,0.0,0.0,0.0,0.0,0.0,0.0,0.0,6.56624427014,-0.0614706292451,7.06272252598,0.0,0.0,0.0,0.0,0.0,0.0,0.0,0.0,0.0
45972000000,352,45972000000,imu_link,-0.00210775103288,-0.376323574237,0.00514046172255,0.926471640425,0.0,0.0,0.0,0.0,0.0,0.0,0.0,0.0,0.0,0.00213573660093,-0.0093057256596,-0.000878401068484,0.0,0.0,0.0,0.0,0.0,0.0,0.0,0.0,0.0,6.56780084126,-0.0616200762573,7.06672092009,0.0,0.0,0.0,0.0,0.0,0.0,0.0,0.0,0.0
45976000000,353,45976000000,imu_link,-0.00210378094257,-0.376341531509,0.00514053330478,0.926464354783,0.0,0.0,0.0,0.0,0.0,0.0,0.0,0.0,0.0,0.00179872458862,-0.0096996104537,-0.000714058780906,0.0,0.0,0.0,0.0,0.0,0.0,0.0,0.0,0.0,6.5684273056,-0.061810992234,7.06761245412,0.0,0.0,0.0,0.0,0.0,0.0,0.0,0.0,0.0
45980000000,354,45980000000,imu_link,-0.00210042196855,-0.376360307192,0.00514063944489,0.926456734675,0.0,0.0,0.0,0.0,0.0,0.0,0.0,0.0,0.0,0.00151968328523,-0.0101401272057,-0.000583057448555,0.0,0.0,0.0,0.0,0.0,0.0,0.0,0.0,0.0,6.56860205804,-0.0620139822162,7.06605751539,0.0,0.0,0.0,0.0,0.0,0.0,0.0,0.0,0.0
45984000000,355,45984000000,imu_link,-0.00209770753445,-0.376379974379,0.00514076857793,0.926448750341,0.0,0.0,0.0,0.0,0.0,0.0,0.0,0.0,0.0,0.00122276695774,-0.0106200046097,-0.000451116946976,0.0,0.0,0.0,0.0,0.0,0.0,0.0,0.0,0.0,6.56863942629,-0.0621633522476,7.06417335091,0.0,0.0,0.0,0.0,0.0,0.0,0.0,0.0,0.0
45988000000,356,45988000000,imu_link,-0.00209561310309,-0.376400328734,0.00514093404619,0.926440484722,0.0,0.0,0.0,0.0,0.0,0.0,0.0,0.0,0.0,0.000940343189503,-0.0109896972205,-0.000317605004025,0.0,0.0,0.0,0.0,0.0,0.0,0.0,0.0,0.0,6.56839587618,-0.0623262203614,7.05938341481,0.0,0.0,0.0,0.0,0.0,0.0,0.0,0.0,0.0
45992000000,357,45992000000,imu_link,-0.0020939403683,-0.376420847472,0.00514114799051,0.926432150564,0.0,0.0,0.0,0.0,0.0,0.0,0.0,0.0,0.0,0.000753633643698,-0.0110777085863,-0.000215782613691,0.0,0.0,0.0,0.0,0.0,0.0,0.0,0.0,0.0,6.57036791202,-0.0625317687574,7.05600830802,0.0,0.0,0.0,0.0,0.0,0.0,0.0,0.0,0.0
45996000000,358,45996000000,imu_link,-0.00209240145126,-0.376441118899,0.00514145762866,0.926423915533,0.0,0.0,0.0,0.0,0.0,0.0,0.0,0.0,0.0,0.000710397204696,-0.0109442496442,-0.000146265680714,0.0,0.0,0.0,0.0,0.0,0.0,0.0,0.0,0.0,6.57183242078,-0.0627111868654,7.05263168101,0.0,0.0,0.0,0.0,0.0,0.0,0.0,0.0,0.0
46000000000,359,46000000000,imu_link,-0.00209077682392,-0.376461071766,0.00514190188466,0.92641580888,0.0,0.0,0.0,0.0,0.0,0.0,0.0,0.0,0.0,0.000776390330801,-0.0107728866681,-0.000100038272153,0.0,0.0,0.0,0.0,0.0,0.0,0.0,0.0,0.0,6.57253688781,-0.0628326319916,7.05093580036,0.0,0.0,0.0,0.0,0.0,0.0,0.0,0.0,0.0
46008000000,360,46008000000,imu_link,-0.00208665690481,-0.37650041035,0.00514322109317,0.926399824129,0.0,0.0,0.0,0.0,0.0,0.0,0.0,0.0,0.0,0.00110305630622,-0.0106038607193,-8.01432523926e-05,0.0,0.0,0.0,0.0,0.0,0.0,0.0,0.0,0.0,6.57223329131,-0.0629956008215,7.0481415373,0.0,0.0,0.0,0.0,0.0,0.0,0.0,0.0,0.0
46012000000,361,46012000000,imu_link,-0.00208418727699,-0.376520150877,0.00514406932276,0.926391801938,0.0,0.0,0.0,0.0,0.0,0.0,0.0,0.0,0.0,0.00124447605511,-0.0106612254842,-7.19739770504e-05,0.0,0.0,0.0,0.0,0.0,0.0,0.0,0.0,0.0,6.57198810081,-0.063151359397,7.04704444317,0.0,0.0,0.0,0.0,0.0,0.0,0.0,0.0,0.0
46016000000,362,46016000000,imu_link,-0.0020816122249,-0.376540057899,0.00514503199835,0.926383711177,0.0,0.0,0.0,0.0,0.0,0.0,0.0,0.0,0.0,0.00131435406816,-0.0107516449662,-3.88073782098e-05,0.0,0.0,0.0,0.0,0.0,0.0,0.0,0.0,0.0,6.57318459328,-0.0631991765481,7.04776182653,0.0,0.0,0.0,0.0,0.0,0.0,0.0,0.0,0.0
46020000000,363,46020000000,imu_link,-0.0020790151312,-0.376560126203,0.00514608337812,0.926375553907,0.0,0.0,0.0,0.0,0.0,0.0,0.0,0.0,0.0,0.00134077978226,-0.0108390195514,-1.86686053571e-06,0.0,0.0,0.0,0.0,0.0,0.0,0.0,0.0,0.0,6.57302946828,-0.0632383251826,7.04535583572,0.0,0.0,0.0,0.0,0.0,0.0,0.0,0.0,0.0
46024000000,364,46024000000,imu_link,-0.00207635761148,-0.376580088473,0.00514721195985,0.926367438932,0.0,0.0,0.0,0.0,0.0,0.0,0.0,0.0,0.0,0.00138362076217,-0.0107821783,2.25165171118e-05,0.0,0.0,0.0,0.0,0.0,0.0,0.0,0.0,0.0,6.57423500948,-0.063314159568,7.04325577815,0.0,0.0,0.0,0.0,0.0,0.0,0.0,0.0,0.0
46028000000,365,46028000000,imu_link,-0.002073844374,-0.376599596388,0.00514839304351,0.926359507545,0.0,0.0,0.0,0.0,0.0,0.0,0.0,0.0,0.0,0.0013280370917,-0.0105368443893,7.40006891048e-05,0.0,0.0,0.0,0.0,0.0,0.0,0.0,0.0,0.0,6.57577421154,-0.063366647699,7.04115996225,0.0,0.0,0.0,0.0,0.0,0.0,0.0,0.0,0.0
46032000000,366,46032000000,imu_link,-0.00207183991661,-0.376618402019,0.00514959758641,0.926351859924,0.0,0.0,0.0,0.0,0.0,0.0,0.0,0.0,0.0,0.00109889988807,-0.0101568418073,0.000180667463614,0.0,0.0,0.0,0.0,0.0,0.0,0.0,0.0,0.0,6.5767930056,-0.0634146147329,7.03922267483,0.0,0.0,0.0,0.0,0.0,0.0,0.0,0.0,0.0
46036000000,367,46036000000,imu_link,-0.00207068011398,-0.376636518028,0.00515079370844,0.926344490401,0.0,0.0,0.0,0.0,0.0,0.0,0.0,0.0,0.0,0.000708154133973,-0.00978287385526,0.000335821731622,0.0,0.0,0.0,0.0,0.0,0.0,0.0,0.0,0.0,6.57729383102,-0.0635157620961,7.03845066638,0.0,0.0,0.0,0.0,0.0,0.0,0.0,0.0,0.0
46040000000,368,46040000000,imu_link,-0.00207053043897,-0.37665407589,0.00515197187685,0.92633734525,0.0,0.0,0.0,0.0,0.0,0.0,0.0,0.0,0.0,0.000238579809752,-0.00947948205419,0.000517731611442,0.0,0.0,0.0,0.0,0.0,0.0,0.0,0.0,0.0,6.57796436362,-0.0636678766041,7.03885773076,0.0,0.0,0.0,0.0,0.0,0.0,0.0,0.0,0.0
46044000000,369,46044000000,imu_link,-0.00207117796877,-0.376671301484,0.0051530970393,0.926330333332,0.0,0.0,0.0,0.0,0.0,0.0,0.0,0.0,0.0,-0.000139649091516,-0.00929838583873,0.000643316911831,0.0,0.0,0.0,0.0,0.0,0.0,0.0,0.0,0.0,6.57920371757,-0.0639067579723,7.0408280893,0.0,0.0,0.0,0.0,0.0,0.0,0.0,0.0,0.0
46048000000,370,46048000000,imu_link,-0.0020721923704,-0.376688292861,0.00515413792442,0.926323415931,0.0,0.0,0.0,0.0,0.0,0.0,0.0,0.0,0.0,-0.000324742412513,-0.0091710716537,0.000673376655797,0.0,0.0,0.0,0.0,0.0,0.0,0.0,0.0,0.0,6.58166069583,-0.064208630486,7.04440737239,0.0,0.0,0.0,0.0,0.0,0.0,0.0,0.0,0.0
46052000000,371,46052000000,imu_link,-0.00207309802355,-0.376705063057,0.00515505694325,0.926316589034,0.0,0.0,0.0,0.0,0.0,0.0,0.0,0.0,0.0,-0.000296663317971,-0.00905173688508,0.000596446650951,0.0,0.0,0.0,0.0,0.0,0.0,0.0,0.0,0.0,6.58331195108,-0.0644866090549,7.04582001437,0.0,0.0,0.0,0.0,0.0,0.0,0.0,0.0,0.0
46056000000,372,46056000000,imu_link,-0.0020735330405,-0.376721393525,0.00515583135718,0.926309942473,0.0,0.0,0.0,0.0,0.0,0.0,0.0,0.0,0.0,-0.000104600615668,-0.00881516972212,0.000440817145959,0.0,0.0,0.0,0.0,0.0,0.0,0.0,0.0,0.0,6.58467369941,-0.064661644405,7.04447399469,0.0,0.0,0.0,0.0,0.0,0.0,0.0,0.0,0.0
46060000000,373,46060000000,imu_link,-0.00207333197086,-0.376737022412,0.00515646511589,0.926303583123,0.0,0.0,0.0,0.0,0.0,0.0,0.0,0.0,0.0,0.000165618520097,-0.00843762372078,0.000255845243009,0.0,0.0,0.0,0.0,0.0,0.0,0.0,0.0,0.0,6.58539951364,-0.0647303781242,7.04131330848,0.0,0.0,0.0,0.0,0.0,0.0,0.0,0.0,0.0
46064000000,374,46064000000,imu_link,-0.00207252248457,-0.376751839782,0.00515697866913,0.926297555563,0.0,0.0,0.0,0.0,0.0,0.0,0.0,0.0,0.0,0.000427201094864,-0.00800071311545,8.55511603797e-05,0.0,0.0,0.0,0.0,0.0,0.0,0.0,0.0,0.0,6.58499225359,-0.064670351479,7.03750897502,0.0,0.0,0.0,0.0,0.0,0.0,0.0,0.0,0.0
46068000000,375,46068000000,imu_link,-0.00207118822999,-0.37676586152,0.0051573716632,0.926291853192,0.0,0.0,0.0,0.0,0.0,0.0,0.0,0.0,0.0,0.000649924944917,-0.00757218813461,-6.91533892789e-05,0.0,0.0,0.0,0.0,0.0,0.0,0.0,0.0,0.0,6.58458847737,-0.0645568735622,7.03493035993,0.0,0.0,0.0,0.0,0.0,0.0,0.0,0.0,0.0
46072000000,376,46072000000,imu_link,-0.00206938788001,-0.376779365716,0.00515764441861,0.926286362799,0.0,0.0,0.0,0.0,0.0,0.0,0.0,0.0,0.0,0.000844698330736,-0.00729363458569,-0.000212656514703,0.0,0.0,0.0,0.0,0.0,0.0,0.0,0.0,0.0,6.58521147485,-0.0644972474246,7.03630788625,0.0,0.0,0.0,0.0,0.0,0.0,0.0,0.0,0.0
46076000000,377,46076000000,imu_link,-0.0020671039256,-0.376792554678,0.00515785827808,0.926281001813,0.0,0.0,0.0,0.0,0.0,0.0,0.0,0.0,0.0,0.00105852786084,-0.00712444330519,-0.0003310473969,0.0,0.0,0.0,0.0,0.0,0.0,0.0,0.0,0.0,6.58664539159,-0.0644818498392,7.03878890891,0.0,0.0,0.0,0.0,0.0,0.0,0.0,0.0,0.0
46080000000,378,46080000000,imu_link,-0.00206432595669,-0.376805470231,0.00515807704348,0.926275752896,0.0,0.0,0.0,0.0,0.0,0.0,0.0,0.0,0.0,0.00128907117615,-0.0069779823822,-0.000421852201187,0.0,0.0,0.0,0.0,0.0,0.0,0.0,0.0,0.0,6.58760063338,-0.0644724820927,7.03879031987,0.0,0.0,0.0,0.0,0.0,0.0,0.0,0.0,0.0
46084000000,379,46084000000,imu_link,-0.00206107509316,-0.376817874908,0.00515833863921,0.926270712406,0.0,0.0,0.0,0.0,0.0,0.0,0.0,0.0,0.0,0.00151768863444,-0.00670337229566,-0.000491120721237,0.0,0.0,0.0,0.0,0.0,0.0,0.0,0.0,0.0,6.58853137515,-0.0644557145205,7.03612744193,0.0,0.0,0.0,0.0,0.0,0.0,0.0,0.0,0.0
46088000000,380,46088000000,imu_link,-0.00205736807513,-0.376829597023,0.00515867431967,0.926265949997,0.0,0.0,0.0,0.0,0.0,0.0,0.0,0.0,0.0,0.00174495515556,-0.00633611306744,-0.000542766854066,0.0,0.0,0.0,0.0,0.0,0.0,0.0,0.0,0.0,6.5891692832,-0.0644435396028,7.03362244394,0.0,0.0,0.0,0.0,0.0,0.0,0.0,0.0,0.0
46092000000,381,46092000000,imu_link,-0.002053286758,-0.376840621259,0.00515909041556,0.926261471707,0.0,0.0,0.0,0.0,0.0,0.0,0.0,0.0,0.0,0.00193554919806,-0.00596041858204,-0.000576062255472,0.0,0.0,0.0,0.0,0.0,0.0,0.0,0.0,0.0,6.58937420462,-0.0644293111334,7.03173464516,0.0,0.0,0.0,0.0,0.0,0.0,0.0,0.0,0.0
46096000000,382,46096000000,imu_link,-0.00204876612166,-0.37685089363,0.00515958669591,0.92625729967,0.0,0.0,0.0,0.0,0.0,0.0,0.0,0.0,0.0,0.00215637369205,-0.00555571781413,-0.000621721125219,0.0,0.0,0.0,0.0,0.0,0.0,0.0,0.0,0.0,6.58972222004,-0.0644987164639,7.02996270429,0.0,0.0,0.0,0.0,0.0,0.0,0.0,0.0,0.0
46100000000,383,46100000000,imu_link,-0.00204374710306,-0.376860651072,0.0051601629874,0.92625333764,0.0,0.0,0.0,0.0,0.0,0.0,0.0,0.0,0.0,0.00240380846853,-0.00527903680249,-0.000678587859172,0.0,0.0,0.0,0.0,0.0,0.0,0.0,0.0,0.0,6.59072046877,-0.0646143536062,7.03182153834,0.0,0.0,0.0,0.0,0.0,0.0,0.0,0.0,0.0
46104000000,384,46104000000,imu_link,-0.00203824632779,-0.376870254993,0.00516079155579,0.926249438696,0.0,0.0,0.0,0.0,0.0,0.0,0.0,0.0,0.0,0.00263723394831,-0.00519734588843,-0.0007451604913,0.0,0.0,0.0,0.0,0.0,0.0,0.0,0.0,0.0,6.59152042999,-0.0646741637409,7.03429390231,0.0,0.0,0.0,0.0,0.0,0.0,0.0,0.0,0.0
