%time,field.header.seq,field.header.stamp,field.header.frame_id,field.orientation.x,field.orientation.y,field.orientation.z,field.orientation.w,field.orientation_covariance0,field.orientation_covariance1,field.orientation_covariance2,field.orientation_covariance3,field.orientation_covariance4,field.orientation_covariance5,field.orientation_covariance6,field.orientation_covariance7,field.orientation_covariance8,field.angular_velocity.x,field.angular_velocity.y,field.angular_velocity.z,field.angular_velocity_covariance0,field.angular_velocity_covariance1,field.angular_velocity_covariance2,field.angular_velocity_covariance3,field.angular_velocity_covariance4,field.angular_velocity_covariance5,field.angular_velocity_covariance6,field.angular_velocity_covariance7,field.angular_velocity_covariance8,field.linear_acceleration.x,field.linear_acceleration.y,field.linear_acceleration.z,field.linear_acceleration_covariance0,field.linear_acceleration_covariance1,field.linear_acceleration_covariance2,field.linear_acceleration_covariance3,field.linear_acceleration_covariance4,field.linear_acceleration_covariance5,field.linear_acceleration_covariance6,field.linear_acceleration_covariance7,field.linear_acceleration_covariance8
29332000000,0,29332000000,imu_link,-0.000248297548972,-0.366407092024,0.000836584220183,0.930454233904,0.0,0.0,0.0,0.0,0.0,0.0,0.0,0.0,0.0,-0.00332548645968,-0.0264148999473,0.00203743748034,0.0,0.0,0.0,0.0,0.0,0.0,0.0,0.0,0.0,5.27308397774,-0.0235809997076,8.21064012478,0.0,0.0,0.0,0.0,0.0,0.0,0.0,0.0,0.0
29336000000,1,29336000000,imu_link,-0.000255195547755,-0.36645266599,0.000838017670264,0.930436282714,0.0,0.0,0.0,0.0,0.0,0.0,0.0,0.0,0.0,-0.00296781480085,-0.0244882589604,0.00193246857725,0.0,0.0,0.0,0.0,0.0,0.0,0.0,0.0,0.0,5.27963254012,-0.0233903585368,8.20778343882,0.0,0.0,0.0,0.0,0.0,0.0,0.0,0.0,0.0
29340000000,2,29340000000,imu_link,-0.000260551333849,-0.366494869605,0.000839665052227,0.93041965673,0.0,0.0,0.0,0.0,0.0,0.0,0.0,0.0,0.0,-0.00220957022435,-0.0226781716766,0.00174929437031,0.0,0.0,0.0,0.0,0.0,0.0,0.0,0.0,0.0,5.28588949167,-0.0232304016044,8.20393116916,0.0,0.0,0.0,0.0,0.0,0.0,0.0,0.0,0.0
29344000000,3,29344000000,imu_link,-0.000263872869698,-0.36653365105,0.00084160316385,0.930404376991,0.0,0.0,0.0,0.0,0.0,0.0,0.0,0.0,0.0,-0.00120832943045,-0.0208403402814,0.00151165415345,0.0,0.0,0.0,0.0,0.0,0.0,0.0,0.0,0.0,5.29215418863,-0.0229485383974,8.19876015023,0.0,0.0,0.0,0.0,0.0,0.0,0.0,0.0,0.0
29348000000,4,29348000000,imu_link,-0.000265405137057,-0.366568941028,0.00084378992118,0.930390471282,0.0,0.0,0.0,0.0,0.0,0.0,0.0,0.0,0.0,-0.000328738803043,-0.0189650737549,0.00129929358147,0.0,0.0,0.0,0.0,0.0,0.0,0.0,0.0,0.0,5.29836930579,-0.0224957196017,8.19338059089,0.0,0.0,0.0,0.0,0.0,0.0,0.0,0.0,0.0
29352000000,5,29352000000,imu_link,-0.000265843847004,-0.366600804756,0.000846081187636,0.930377914305,0.0,0.0,0.0,0.0,0.0,0.0,0.0,0.0,0.0,0.000200758292613,-0.0171244725434,0.001147364287,0.0,0.0,0.0,0.0,0.0,0.0,0.0,0.0,0.0,5.30455086541,-0.0219416827932,8.18770129358,0.0,0.0,0.0,0.0,0.0,0.0,0.0,0.0,0.0
29356000000,6,29356000000,imu_link,-0.000265783100584,-0.366629505206,0.00084834042376,0.930366602792,0.0,0.0,0.0,0.0,0.0,0.0,0.0,0.0,0.0,0.000428732451294,-0.0154248631623,0.0010408071638,0.0,0.0,0.0,0.0,0.0,0.0,0.0,0.0,0.0,5.31095807084,-0.0216057304821,8.18425637323,0.0,0.0,0.0,0.0,0.0,0.0,0.0,0.0,0.0
29360000000,7,29360000000,imu_link,-0.000265275609202,-0.36665559766,0.000850529216515,0.930356318264,0.0,0.0,0.0,0.0,0.0,0.0,0.0,0.0,0.0,0.000624880150395,-0.0140235858105,0.000926054106817,0.0,0.0,0.0,0.0,0.0,0.0,0.0,0.0,0.0,5.31782026357,-0.0215316467521,8.18446186652,0.0,0.0,0.0,0.0,0.0,0.0,0.0,0.0,0.0
29364000000,8,29364000000,imu_link,-0.000264106597071,-0.366679675649,0.000852671480471,0.930346827084,0.0,0.0,0.0,0.0,0.0,0.0,0.0,0.0,0.0,0.000925037041732,-0.012941332703,0.00078306459397,0.0,0.0,0.0,0.0,0.0,0.0,0.0,0.0,0.0,5.32475898596,-0.0216135169715,8.18529331861,0.0,0.0,0.0,0.0,0.0,0.0,0.0,0.0,0.0
29368000000,9,29368000000,imu_link,-0.000262244152319,-0.366701723993,0.000854811225214,0.930338135382,0.0,0.0,0.0,0.0,0.0,0.0,0.0,0.0,0.0,0.00124811247215,-0.0118509154801,0.000654686074505,0.0,0.0,0.0,0.0,0.0,0.0,0.0,0.0,0.0,5.33131844035,-0.0215949877092,8.18093330628,0.0,0.0,0.0,0.0,0.0,0.0,0.0,0.0,0.0
29372000000,10,29372000000,imu_link,-0.000259953452021,-0.366721522529,0.000856955398765,0.930330330026,0.0,0.0,0.0,0.0,0.0,0.0,0.0,0.0,0.0,0.00144921353096,-0.0106420456911,0.000578141365674,0.0,0.0,0.0,0.0,0.0,0.0,0.0,0.0,0.0,5.33751457249,-0.0214953514964,8.17417597221,0.0,0.0,0.0,0.0,0.0,0.0,0.0,0.0,0.0
29376000000,11,29376000000,imu_link,-0.000257612106174,-0.36673879038,0.000859059964213,0.930323521837,0.0,0.0,0.0,0.0,0.0,0.0,0.0,0.0,0.0,0.00146672345508,-0.00928203397194,0.000550332315418,0.0,0.0,0.0,0.0,0.0,0.0,0.0,0.0,0.0,5.34361437074,-0.0212948460461,8.16683954506,0.0,0.0,0.0,0.0,0.0,0.0,0.0,0.0,0.0
29380000000,12,29380000000,imu_link,-0.00025538478126,-0.366753572323,0.000861145369241,0.930317693261,0.0,0.0,0.0,0.0,0.0,0.0,0.0,0.0,0.0,0.0014113657943,-0.00794600257401,0.000562226996584,0.0,0.0,0.0,0.0,0.0,0.0,0.0,0.0,0.0,5.3497592817,-0.0211125289336,8.1613814434,0.0,0.0,0.0,0.0,0.0,0.0,0.0,0.0,0.0
29384000000,13,29384000000,imu_link,-0.000253229230298,-0.366765841028,0.000863243546216,0.930312855195,0.0,0.0,0.0,0.0,0.0,0.0,0.0,0.0,0.0,0.00138153019647,-0.00659528168922,0.000581224093144,0.0,0.0,0.0,0.0,0.0,0.0,0.0,0.0,0.0,5.35617736128,-0.0210374722597,8.15655986183,0.0,0.0,0.0,0.0,0.0,0.0,0.0,0.0,0.0
29388000000,14,29388000000,imu_link,-0.000251011940757,-0.366775369892,0.000865379450572,0.930309097103,0.0,0.0,0.0,0.0,0.0,0.0,0.0,0.0,0.0,0.00141848616629,-0.00512280981833,0.000587332189578,0.0,0.0,0.0,0.0,0.0,0.0,0.0,0.0,0.0,5.36218562587,-0.0209879919349,8.14972255449,0.0,0.0,0.0,0.0,0.0,0.0,0.0,0.0,0.0
29392000000,15,29392000000,imu_link,-0.000248684820906,-0.366781954071,0.000867571087169,0.93030649984,0.0,0.0,0.0,0.0,0.0,0.0,0.0,0.0,0.0,0.00148121466703,-0.00354024876265,0.000592982064764,0.0,0.0,0.0,0.0,0.0,0.0,0.0,0.0,0.0,5.36804252397,-0.0209081662266,8.14264368514,0.0,0.0,0.0,0.0,0.0,0.0,0.0,0.0,0.0
29396000000,16,29396000000,imu_link,-0.000246364817589,-0.366785581053,0.00086979458599,0.930305068402,0.0,0.0,0.0,0.0,0.0,0.0,0.0,0.0,0.0,0.00148517538336,-0.00195089794976,0.000608969977138,0.0,0.0,0.0,0.0,0.0,0.0,0.0,0.0,0.0,5.37388569027,-0.0208032054921,8.13662517909,0.0,0.0,0.0,0.0,0.0,0.0,0.0,0.0,0.0
29400000000,17,29400000000,imu_link,-0.000244225720265,-0.366786598084,0.000871994382453,0.930304665927,0.0,0.0,0.0,0.0,0.0,0.0,0.0,0.0,0.0,0.00139794147096,-0.000548086964006,0.000630995626923,0.0,0.0,0.0,0.0,0.0,0.0,0.0,0.0,0.0,5.38121808833,-0.0207322653281,8.13682642873,0.0,0.0,0.0,0.0,0.0,0.0,0.0,0.0,0.0
29404000000,18,29404000000,imu_link,-0.000242459554375,-0.366785491806,0.000874119699277,0.93030510056,0.0,0.0,0.0,0.0,0.0,0.0,0.0,0.0,0.0,0.00121184045622,0.000593266982346,0.00066463868153,0.0,0.0,0.0,0.0,0.0,0.0,0.0,0.0,0.0,5.38856939318,-0.0207848290223,8.13838596856,0.0,0.0,0.0,0.0,0.0,0.0,0.0,0.0,0.0
29408000000,19,29408000000,imu_link,-0.0002413050762,-0.366782539236,0.000876093408515,0.930306263089,0.0,0.0,0.0,0.0,0.0,0.0,0.0,0.0,0.0,0.00090040380713,0.0015858509865,0.000706202807826,0.0,0.0,0.0,0.0,0.0,0.0,0.0,0.0,0.0,5.39455662541,-0.0209090579425,8.1349946994,0.0,0.0,0.0,0.0,0.0,0.0,0.0,0.0,0.0
29412000000,20,29412000000,imu_link,-0.000240883161358,-0.366777947899,0.000877864301913,0.930308071697,0.0,0.0,0.0,0.0,0.0,0.0,0.0,0.0,0.0,0.000523250831877,0.00246695916207,0.000746122813213,0.0,0.0,0.0,0.0,0.0,0.0,0.0,0.0,0.0,5.40024370693,-0.021003154378,8.13026660436,0.0,0.0,0.0,0.0,0.0,0.0,0.0,0.0,0.0
29416000000,21,29416000000,imu_link,-0.000241143556981,-0.366771958093,0.00087943420176,0.930310431631,0.0,0.0,0.0,0.0,0.0,0.0,0.0,0.0,0.0,0.000169691599871,0.00321889354974,0.000777684506347,0.0,0.0,0.0,0.0,0.0,0.0,0.0,0.0,0.0,5.40721903474,-0.021122759145,8.12918698194,0.0,0.0,0.0,0.0,0.0,0.0,0.0,0.0,0.0
29420000000,22,29420000000,imu_link,-0.000241835694564,-0.366764780408,0.000880828720696,0.93031325988,0.0,0.0,0.0,0.0,0.0,0.0,0.0,0.0,0.0,-6.27190283441e-05,0.00385753543905,0.000775217881979,0.0,0.0,0.0,0.0,0.0,0.0,0.0,0.0,0.0,5.4138149384,-0.0212129984463,8.12672947636,0.0,0.0,0.0,0.0,0.0,0.0,0.0,0.0,0.0
29424000000,23,29424000000,imu_link,-0.000242472071167,-0.366756658044,0.000882125360173,0.930316460589,0.0,0.0,0.0,0.0,0.0,0.0,0.0,0.0,0.0,-5.42697212844e-05,0.00436524822965,0.000719413212562,0.0,0.0,0.0,0.0,0.0,0.0,0.0,0.0,0.0,5.42110240529,-0.0212817006457,8.12637053522,0.0,0.0,0.0,0.0,0.0,0.0,0.0,0.0,0.0
29428000000,24,29428000000,imu_link,-0.000242626772375,-0.366747647901,0.00088340498295,0.930320011333,0.0,0.0,0.0,0.0,0.0,0.0,0.0,0.0,0.0,0.000167099063037,0.00484218501551,0.00062312216857,0.0,0.0,0.0,0.0,0.0,0.0,0.0,0.0,0.0,5.42798627663,-0.0212299444356,8.1237715082,0.0,0.0,0.0,0.0,0.0,0.0,0.0,0.0,0.0
29432000000,25,29432000000,imu_link,-0.000242111631088,-0.366737775818,0.000884735676258,0.930323901882,0.0,0.0,0.0,0.0,0.0,0.0,0.0,0.0,0.0,0.000488469943448,0.00530513401175,0.000524001029819,0.0,0.0,0.0,0.0,0.0,0.0,0.0,0.0,0.0,5.43296251113,-0.021093012711,8.11561743336,0.0,0.0,0.0,0.0,0.0,0.0,0.0,0.0,0.0
29436000000,26,29436000000,imu_link,-0.000240834399086,-0.366727131103,0.00088614663901,0.930328096994,0.0,0.0,0.0,0.0,0.0,0.0,0.0,0.0,0.0,0.000858063123053,0.00572003368641,0.000421554396647,0.0,0.0,0.0,0.0,0.0,0.0,0.0,0.0,0.0,5.43823335294,-0.0209228021263,8.10885210627,0.0,0.0,0.0,0.0,0.0,0.0,0.0,0.0,0.0
29440000000,27,29440000000,imu_link,-0.000238786862907,-0.366716025214,0.000887657373962,0.930332473848,0.0,0.0,0.0,0.0,0.0,0.0,0.0,0.0,0.0,0.00123490173701,0.00596752659825,0.00032669412459,0.0,0.0,0.0,0.0,0.0,0.0,0.0,0.0,0.0,5.44477066964,-0.0207346780405,8.10697812899,0.0,0.0,0.0,0.0,0.0,0.0,0.0,0.0,0.0
29444000000,28,29444000000,imu_link,-0.000236026926615,-0.366704684856,0.000889280296473,0.930336943036,0.0,0.0,0.0,0.0,0.0,0.0,0.0,0.0,0.0,0.00158697179366,0.00609319439259,0.000248242734474,0.0,0.0,0.0,0.0,0.0,0.0,0.0,0.0,0.0,5.45087920262,-0.020539775901,8.10344870888,0.0,0.0,0.0,0.0,0.0,0.0,0.0,0.0,0.0
29448000000,29,29448000000,imu_link,-0.00023266498549,-0.366693149323,0.00089099613896,0.930341489042,0.0,0.0,0.0,0.0,0.0,0.0,0.0,0.0,0.0,0.00188413840485,0.0061977898383,0.000181076058151,0.0,0.0,0.0,0.0,0.0,0.0,0.0,0.0,0.0,5.4564740665,-0.0203718555813,8.09751722486,0.0,0.0,0.0,0.0,0.0,0.0,0.0,0.0,0.0
29452000000,30,29452000000,imu_link,-0.000228779390876,-0.366681387838,0.000892771410866,0.930346123995,0.0,0.0,0.0,0.0,0.0,0.0,0.0,0.0,0.0,0.00213873387692,0.00631896372891,0.000112697471537,0.0,0.0,0.0,0.0,0.0,0.0,0.0,0.0,0.0,5.46119978619,-0.0202563881917,8.08896973318,0.0,0.0,0.0,0.0,0.0,0.0,0.0,0.0,0.0
29456000000,31,29456000000,imu_link,-0.000224458451757,-0.366669301396,0.000894571815585,0.93035088691,0.0,0.0,0.0,0.0,0.0,0.0,0.0,0.0,0.0,0.00234601197505,0.00649338860378,4.45522667012e-05,0.0,0.0,0.0,0.0,0.0,0.0,0.0,0.0,0.0,5.46666892087,-0.0201960433851,8.08219137893,0.0,0.0,0.0,0.0,0.0,0.0,0.0,0.0,0.0
29460000000,32,29460000000,imu_link,-0.000219773165019,-0.36665676054,0.000896370894117,0.930355828793,0.0,0.0,0.0,0.0,0.0,0.0,0.0,0.0,0.0,0.00251547774294,0.00673741949414,-2.28912377311e-05,0.0,0.0,0.0,0.0,0.0,0.0,0.0,0.0,0.0,5.47242956712,-0.0201231455116,8.0761651117,0.0,0.0,0.0,0.0,0.0,0.0,0.0,0.0,0.0
29464000000,33,29464000000,imu_link,-0.000214867595034,-0.366643642096,0.000898185144027,0.930360998111,0.0,0.0,0.0,0.0,0.0,0.0,0.0,0.0,0.0,0.00262101384625,0.00704769501681,-5.62564825426e-05,0.0,0.0,0.0,0.0,0.0,0.0,0.0,0.0,0.0,5.47817421969,-0.0200504691582,8.07012335717,0.0,0.0,0.0,0.0,0.0,0.0,0.0,0.0,0.0
29468000000,34,29468000000,imu_link,-0.000210104020304,-0.36662996826,0.000900038855118,0.930366385979,0.0,0.0,0.0,0.0,0.0,0.0,0.0,0.0,0.0,0.00256246742076,0.00734617696539,-1.19075630599e-05,0.0,0.0,0.0,0.0,0.0,0.0,0.0,0.0,0.0,5.48509610327,-0.0199450571609,8.06853053637,0.0,0.0,0.0,0.0,0.0,0.0,0.0,0.0,0.0
29472000000,35,29472000000,imu_link,-0.00020588289474,-0.366615912004,0.000901922318444,0.930371924133,0.0,0.0,0.0,0.0,0.0,0.0,0.0,0.0,0.0,0.00231577110044,0.00755186337189,0.000101344279237,0.0,0.0,0.0,0.0,0.0,0.0,0.0,0.0,0.0,5.49109117874,-0.0198676889818,8.0652853817,0.0,0.0,0.0,0.0,0.0,0.0,0.0,0.0,0.0
29476000000,36,29476000000,imu_link,-0.000202522576755,-0.366601889106,0.000903759577979,0.930377448731,0.0,0.0,0.0,0.0,0.0,0.0,0.0,0.0,0.0,0.00190684953746,0.00753425370519,0.000237646481193,0.0,0.0,0.0,0.0,0.0,0.0,0.0,0.0,0.0,5.49734886752,-0.0198753332241,8.06421415077,0.0,0.0,0.0,0.0,0.0,0.0,0.0,0.0,0.0
29480000000,37,29480000000,imu_link,-0.000200270755316,-0.366588163604,0.000905445274814,0.930382855799,0.0,0.0,0.0,0.0,0.0,0.0,0.0,0.0,0.0,0.00136326156831,0.00737488081472,0.00037035268074,0.0,0.0,0.0,0.0,0.0,0.0,0.0,0.0,0.0,5.50408806749,-0.0199324607329,8.06345102676,0.0,0.0,0.0,0.0,0.0,0.0,0.0,0.0,0.0
29484000000,38,29484000000,imu_link,-0.000199250966291,-0.366574787054,0.000906930753696,0.930388125071,0.0,0.0,0.0,0.0,0.0,0.0,0.0,0.0,0.0,0.000753260108149,0.00718787256164,0.000503064697015,0.0,0.0,0.0,0.0,0.0,0.0,0.0,0.0,0.0,5.51004877497,-0.0200437172647,8.05921964185,0.0,0.0,0.0,0.0,0.0,0.0,0.0,0.0,0.0
29488000000,39,29488000000,imu_link,-0.000199427965191,-0.366561636893,0.000908209437293,0.930393304868,0.0,0.0,0.0,0.0,0.0,0.0,0.0,0.0,0.0,0.000158506928723,0.00706672125988,0.000626238916869,0.0,0.0,0.0,0.0,0.0,0.0,0.0,0.0,0.0,5.5155201134,-0.0201776197371,8.05268631806,0.0,0.0,0.0,0.0,0.0,0.0,0.0,0.0,0.0
29492000000,40,29492000000,imu_link,-0.000200530452104,-0.366548359857,0.00090931882958,0.9303985344,0.0,0.0,0.0,0.0,0.0,0.0,0.0,0.0,0.0,-0.000302992273054,0.0071352953796,0.000717099432681,0.0,0.0,0.0,0.0,0.0,0.0,0.0,0.0,0.0,5.52052482057,-0.0203557595995,8.0439855592,0.0,0.0,0.0,0.0,0.0,0.0,0.0,0.0,0.0
29496000000,41,29496000000,imu_link,-0.00020205081453,-0.366534647738,0.0009103398323,0.930403935108,0.0,0.0,0.0,0.0,0.0,0.0,0.0,0.0,0.0,-0.000513372202678,0.00736926724977,0.000752532259866,0.0,0.0,0.0,0.0,0.0,0.0,0.0,0.0,0.0,5.52569769679,-0.020541238932,8.03644335338,0.0,0.0,0.0,0.0,0.0,0.0,0.0,0.0,0.0
29500000000,42,29500000000,imu_link,-0.000203540057287,-0.366520284379,0.000911329937806,0.930409592163,0.0,0.0,0.0,0.0,0.0,0.0,0.0,0.0,0.0,-0.000504235399471,0.00771919389919,0.000732404707484,0.0,0.0,0.0,0.0,0.0,0.0,0.0,0.0,0.0,5.53100342217,-0.0206485619736,8.02984360209,0.0,0.0,0.0,0.0,0.0,0.0,0.0,0.0,0.0
29504000000,43,29504000000,imu_link,-0.000204840552407,-0.366505509082,0.000912311209312,0.930415411277,0.0,0.0,0.0,0.0,0.0,0.0,0.0,0.0,0.0,-0.000417843814857,0.00794044315934,0.000693673247407,0.0,0.0,0.0,0.0,0.0,0.0,0.0,0.0,0.0,5.5362727405,-0.0206231087338,8.02619069731,0.0,0.0,0.0,0.0,0.0,0.0,0.0,0.0,0.0
29508000000,44,29508000000,imu_link,-0.000206037711849,-0.366490767671,0.00091328670618,0.930421216798,0.0,0.0,0.0,0.0,0.0,0.0,0.0,0.0,0.0,-0.00037084632893,0.00792214207781,0.000672053023992,0.0,0.0,0.0,0.0,0.0,0.0,0.0,0.0,0.0,5.54279959473,-0.0205312137155,8.02722019988,0.0,0.0,0.0,0.0,0.0,0.0,0.0,0.0,0.0
29512000000,45,29512000000,imu_link,-0.000207243763471,-0.366476314153,0.000914288461886,0.930426908624,0.0,0.0,0.0,0.0,0.0,0.0,0.0,0.0,0.0,-0.000370314431753,0.00776737810576,0.000685920624276,0.0,0.0,0.0,0.0,0.0,0.0,0.0,0.0,0.0,5.54735908919,-0.0204351219924,8.02142360436,0.0,0.0,0.0,0.0,0.0,0.0,0.0,0.0,0.0
29516000000,46,29516000000,imu_link,-0.000208423237756,-0.366462195586,0.000915371472901,0.93043246819,0.0,0.0,0.0,0.0,0.0,0.0,0.0,0.0,0.0,-0.00034322804947,0.00758729916162,0.000718877458461,0.0,0.0,0.0,0.0,0.0,0.0,0.0,0.0,0.0,5.55259751552,-0.0203746070891,8.01619930601,0.0,0.0,0.0,0.0,0.0,0.0,0.0,0.0,0.0
29520000000,47,29520000000,imu_link,-0.000209351744954,-0.366448428334,0.000916591335946,0.930437889063,0.0,0.0,0.0,0.0,0.0,0.0,0.0,0.0,0.0,-0.00020157378462,0.00739831918501,0.000736585136533,0.0,0.0,0.0,0.0,0.0,0.0,0.0,0.0,0.0,5.55748952384,-0.0203409152515,8.01015665047,0.0,0.0,0.0,0.0,0.0,0.0,0.0,0.0,0.0
29524000000,48,29524000000,imu_link,-0.000209574437612,-0.366435037198,0.000917982478047,0.930443161564,0.0,0.0,0.0,0.0,0.0,0.0,0.0,0.0,0.0,0.000157979078302,0.00719581650845,0.000686973712032,0.0,0.0,0.0,0.0,0.0,0.0,0.0,0.0,0.0,5.56367274612,-0.0203222529211,8.00789567475,0.0,0.0,0.0,0.0,0.0,0.0,0.0,0.0,0.0
29528000000,49,29528000000,imu_link,-0.000208566958509,-0.36642204781,0.000919578186021,0.930448275701,0.0,0.0,0.0,0.0,0.0,0.0,0.0,0.0,0.0,0.000767560588125,0.00697931354389,0.00055678374235,0.0,0.0,0.0,0.0,0.0,0.0,0.0,0.0,0.0,5.56969773721,-0.0202422746687,8.00529517259,0.0,0.0,0.0,0.0,0.0,0.0,0.0,0.0,0.0
29532000000,50,29532000000,imu_link,-0.000205870391652,-0.366409435391,0.000921426515521,0.930453241301,0.0,0.0,0.0,0.0,0.0,0.0,0.0,0.0,0.0,0.00159945921423,0.00677592203836,0.000364878861679,0.0,0.0,0.0,0.0,0.0,0.0,0.0,0.0,0.0,5.57482225361,-0.0200750552014,7.99985867916,0.0,0.0,0.0,0.0,0.0,0.0,0.0,0.0,0.0
29536000000,51,29536000000,imu_link,-0.000201298535949,-0.366397163287,0.000923558157656,0.930458072808,0.0,0.0,0.0,0.0,0.0,0.0,0.0,0.0,0.0,0.00252362712747,0.00659213844886,0.000153148425408,0.0,0.0,0.0,0.0,0.0,0.0,0.0,0.0,0.0,5.57961911398,-0.0198056833598,7.99370476501,0.0,0.0,0.0,0.0,0.0,0.0,0.0,0.0,0.0
29540000000,52,29540000000,imu_link,-0.000194888906895,-0.366385344459,0.000925966206747,0.930462725729,0.0,0.0,0.0,0.0,0.0,0.0,0.0,0.0,0.0,0.00342902272773,0.00634766831262,-5.48996586282e-05,0.0,0.0,0.0,0.0,0.0,0.0,0.0,0.0,0.0,5.58431519332,-0.019485310527,7.98844614398,0.0,0.0,0.0,0.0,0.0,0.0,0.0,0.0,0.0
29544000000,53,29544000000,imu_link,-0.000186902555818,-0.366374551295,0.000928627783152,0.930466974632,0.0,0.0,0.0,0.0,0.0,0.0,0.0,0.0,0.0,0.00420849337461,0.00579572940786,-0.000225707613077,0.0,0.0,0.0,0.0,0.0,0.0,0.0,0.0,0.0,5.59107724909,-0.0191717611192,7.99158739364,0.0,0.0,0.0,0.0,0.0,0.0,0.0,0.0,0.0
29548000000,54,29548000000,imu_link,-0.00017789945904,-0.366365206203,0.000931494281718,0.93047065314,0.0,0.0,0.0,0.0,0.0,0.0,0.0,0.0,0.0,0.00471833099161,0.00501705741382,-0.000316496318702,0.0,0.0,0.0,0.0,0.0,0.0,0.0,0.0,0.0,5.59814097636,-0.0188619723634,7.99468069567,0.0,0.0,0.0,0.0,0.0,0.0,0.0,0.0,0.0
29552000000,55,29552000000,imu_link,-0.000168504434302,-0.36635738813,0.000934473933324,0.930473730165,0.0,0.0,0.0,0.0,0.0,0.0,0.0,0.0,0.0,0.00492063268578,0.00419626067292,-0.000335503599832,0.0,0.0,0.0,0.0,0.0,0.0,0.0,0.0,0.0,5.60358162732,-0.0186098768842,7.99123109171,0.0,0.0,0.0,0.0,0.0,0.0,0.0,0.0,0.0
29556000000,56,29556000000,imu_link,-0.000159371617459,-0.3663506766,0.000937454023146,0.930476371293,0.0,0.0,0.0,0.0,0.0,0.0,0.0,0.0,0.0,0.0047981704355,0.00360173123538,-0.000287158387532,0.0,0.0,0.0,0.0,0.0,0.0,0.0,0.0,0.0,5.60828164348,-0.0184392135908,7.98255605509,0.0,0.0,0.0,0.0,0.0,0.0,0.0,0.0,0.0
29560000000,57,29560000000,imu_link,-0.000150999625688,-0.366344616505,0.000940332720553,0.930478755766,0.0,0.0,0.0,0.0,0.0,0.0,0.0,0.0,0.0,0.00442530717239,0.00325201067709,-0.000194897229217,0.0,0.0,0.0,0.0,0.0,0.0,0.0,0.0,0.0,5.61419871965,-0.0184162632914,7.97696413072,0.0,0.0,0.0,0.0,0.0,0.0,0.0,0.0,0.0
29564000000,58,29564000000,imu_link,-0.000143792273988,-0.36633902113,0.000943047193294,0.930480957131,0.0,0.0,0.0,0.0,0.0,0.0,0.0,0.0,0.0,0.00385315701868,0.00300282432883,-5.79201961642e-05,0.0,0.0,0.0,0.0,0.0,0.0,0.0,0.0,0.0,5.6187511926,-0.0184987266786,7.96976446638,0.0,0.0,0.0,0.0,0.0,0.0,0.0,0.0,0.0
29568000000,59,29568000000,imu_link,-0.000138045968624,-0.366333953814,0.000945535014771,0.93048295051,0.0,0.0,0.0,0.0,0.0,0.0,0.0,0.0,0.0,0.003131639575,0.00271975843301,0.000104311708535,0.0,0.0,0.0,0.0,0.0,0.0,0.0,0.0,0.0,5.624095321,-0.0186493141844,7.96658964324,0.0,0.0,0.0,0.0,0.0,0.0,0.0,0.0,0.0
29572000000,60,29572000000,imu_link,-0.000133666330728,-0.366329346297,0.000947782725472,0.930484762843,0.0,0.0,0.0,0.0,0.0,0.0,0.0,0.0,0.0,0.0024515989465,0.0024733414651,0.000242984421771,0.0,0.0,0.0,0.0,0.0,0.0,0.0,0.0,0.0,5.6271552828,-0.0188750120128,7.9566397189,0.0,0.0,0.0,0.0,0.0,0.0,0.0,0.0,0.0
29576000000,61,29576000000,imu_link,-0.000130219546848,-0.366324972466,0.000949822702612,0.930486483205,0.0,0.0,0.0,0.0,0.0,0.0,0.0,0.0,0.0,0.00197942938534,0.00234823160745,0.000317231832094,0.0,0.0,0.0,0.0,0.0,0.0,0.0,0.0,0.0,5.63165603492,-0.0191333752975,7.9498052225,0.0,0.0,0.0,0.0,0.0,0.0,0.0,0.0,0.0
29580000000,62,29580000000,imu_link,-0.000127367569857,-0.366320631709,0.000951720482432,0.93048819057,0.0,0.0,0.0,0.0,0.0,0.0,0.0,0.0,0.0,0.00167663773117,0.00233075518872,0.000360025817581,0.0,0.0,0.0,0.0,0.0,0.0,0.0,0.0,0.0,5.63553357703,-0.0193009486762,7.9415300887,0.0,0.0,0.0,0.0,0.0,0.0,0.0,0.0,0.0
29584000000,63,29584000000,imu_link,-0.000124958293253,-0.366316241641,0.000953550934637,0.930489917321,0.0,0.0,0.0,0.0,0.0,0.0,0.0,0.0,0.0,0.00145836694317,0.00235746249831,0.000409781100267,0.0,0.0,0.0,0.0,0.0,0.0,0.0,0.0,0.0,5.64073077981,-0.0194067042153,7.93777702213,0.0,0.0,0.0,0.0,0.0,0.0,0.0,0.0,0.0
29588000000,64,29588000000,imu_link,-0.000123086923655,-0.366311738736,0.000955342701266,0.930491688428,0.0,0.0,0.0,0.0,0.0,0.0,0.0,0.0,0.0,0.00120107941165,0.0024183421449,0.00049029076936,0.0,0.0,0.0,0.0,0.0,0.0,0.0,0.0,0.0,5.64660623087,-0.0194574946914,7.93608671712,0.0,0.0,0.0,0.0,0.0,0.0,0.0,0.0,0.0
29592000000,65,29592000000,imu_link,-0.000121813290381,-0.366306915251,0.000957113581389,0.930493585649,0.0,0.0,0.0,0.0,0.0,0.0,0.0,0.0,0.0,0.000919320477927,0.00259087600222,0.000590011814449,0.0,0.0,0.0,0.0,0.0,0.0,0.0,0.0,0.0,5.65050841969,-0.0195342823661,7.92822049763,0.0,0.0,0.0,0.0,0.0,0.0,0.0,0.0,0.0
29596000000,66,29596000000,imu_link,-0.000121171522474,-0.366301323271,0.000958883628123,0.930495785283,0.0,0.0,0.0,0.0,0.0,0.0,0.0,0.0,0.0,0.000625580692196,0.00300410632257,0.000705254493905,0.0,0.0,0.0,0.0,0.0,0.0,0.0,0.0,0.0,5.65510839739,-0.0196064695577,7.92073287584,0.0,0.0,0.0,0.0,0.0,0.0,0.0,0.0,0.0
29600000000,67,29600000000,imu_link,-0.000121057356605,-0.366294579622,0.000960654298282,0.930498438165,0.0,0.0,0.0,0.0,0.0,0.0,0.0,0.0,0.0,0.000380808755333,0.00362318348253,0.000802027672373,0.0,0.0,0.0,0.0,0.0,0.0,0.0,0.0,0.0,5.65919461696,-0.0196909914578,7.91270748169,0.0,0.0,0.0,0.0,0.0,0.0,0.0,0.0,0.0
29604000000,68,29604000000,imu_link,-0.000121258660993,-0.366286659176,0.000962411650422,0.930501554201,0.0,0.0,0.0,0.0,0.0,0.0,0.0,0.0,0.0,0.000232190587502,0.00425566519086,0.000853457761547,0.0,0.0,0.0,0.0,0.0,0.0,0.0,0.0,0.0,5.66390173526,-0.0197753612247,7.90894193442,0.0,0.0,0.0,0.0,0.0,0.0,0.0,0.0,0.0
29608000000,69,29608000000,imu_link,-0.000121611348546,-0.366278030311,0.000964139930114,0.930504949023,0.0,0.0,0.0,0.0,0.0,0.0,0.0,0.0,0.0,0.000156792825264,0.00463639020151,0.00086756539655,0.0,0.0,0.0,0.0,0.0,0.0,0.0,0.0,0.0,5.67007508553,-0.0198044054772,7.91223228794,0.0,0.0,0.0,0.0,0.0,0.0,0.0,0.0,0.0
29612000000,70,29612000000,imu_link,-0.000122082137383,-0.366269340471,0.000965849838152,0.930508367754,0.0,0.0,0.0,0.0,0.0,0.0,0.0,0.0,0.0,9.8512191604e-05,0.00466919576948,0.000880639073481,0.0,0.0,0.0,0.0,0.0,0.0,0.0,0.0,0.0,5.67391501687,-0.0197865859524,7.91056908442,0.0,0.0,0.0,0.0,0.0,0.0,0.0,0.0,0.0
29616000000,71,29616000000,imu_link,-0.00012270038261,-0.36626131279,0.00096754663612,0.930511525749,0.0,0.0,0.0,0.0,0.0,0.0,0.0,0.0,0.0,2.71708924392e-05,0.00431344540217,0.000901629433976,0.0,0.0,0.0,0.0,0.0,0.0,0.0,0.0,0.0,5.67931719674,-0.0197439790123,7.91324283922,0.0,0.0,0.0,0.0,0.0,0.0,0.0,0.0,0.0
29620000000,72,29620000000,imu_link,-0.000123330537963,-0.366254328759,0.00096927659686,0.930514272839,0.0,0.0,0.0,0.0,0.0,0.0,0.0,0.0,0.0,2.71726588457e-05,0.00375263584365,0.000919374469639,0.0,0.0,0.0,0.0,0.0,0.0,0.0,0.0,0.0,5.68385491248,-0.0197252395387,7.91099788521,0.0,0.0,0.0,0.0,0.0,0.0,0.0,0.0,0.0
29624000000,73,29624000000,imu_link,-0.000123710743835,-0.36624831142,0.000971091750494,0.930516639324,0.0,0.0,0.0,0.0,0.0,0.0,0.0,0.0,0.0,0.000158572605606,0.00323304991503,0.000913363377087,0.0,0.0,0.0,0.0,0.0,0.0,0.0,0.0,0.0,5.68771841697,-0.0197000782343,7.90396688336,0.0,0.0,0.0,0.0,0.0,0.0,0.0,0.0,0.0
29628000000,74,29628000000,imu_link,-0.000123742961019,-0.366243044967,0.000973009812068,0.930518710157,0.0,0.0,0.0,0.0,0.0,0.0,0.0,0.0,0.0,0.00033893928971,0.00282937741986,0.000897614123445,0.0,0.0,0.0,0.0,0.0,0.0,0.0,0.0,0.0,5.69215950103,-0.0196207280127,7.89792474346,0.0,0.0,0.0,0.0,0.0,0.0,0.0,0.0,0.0
29632000000,75,29632000000,imu_link,-0.000123486799013,-0.366238437454,0.000975035775175,0.93052052153,0.0,0.0,0.0,0.0,0.0,0.0,0.0,0.0,0.0,0.00049253286878,0.00247514024579,0.000895093343665,0.0,0.0,0.0,0.0,0.0,0.0,0.0,0.0,0.0,5.69511350378,-0.0195002509459,7.88903381854,0.0,0.0,0.0,0.0,0.0,0.0,0.0,0.0,0.0
29636000000,76,29636000000,imu_link,-0.000122917996686,-0.366234493359,0.000977203285443,0.930522071656,0.0,0.0,0.0,0.0,0.0,0.0,0.0,0.0,0.0,0.000663572432428,0.00211847735648,0.00090378556266,0.0,0.0,0.0,0.0,0.0,0.0,0.0,0.0,0.0,5.69866357734,-0.0194222949528,7.88242811719,0.0,0.0,0.0,0.0,0.0,0.0,0.0,0.0,0.0
29640000000,77,29640000000,imu_link,-0.000121823914536,-0.36623118169,0.000979597504979,0.930523372681,0.0,0.0,0.0,0.0,0.0,0.0,0.0,0.0,0.0,0.000949154730219,0.00177834859416,0.000913159599099,0.0,0.0,0.0,0.0,0.0,0.0,0.0,0.0,0.0,5.70366168497,-0.0193928548471,7.87943956788,0.0,0.0,0.0,0.0,0.0,0.0,0.0,0.0,0.0
29644000000,78,29644000000,imu_link,-0.000120034538514,-0.366228218497,0.000982281048197,0.930524536319,0.0,0.0,0.0,0.0,0.0,0.0,0.0,0.0,0.0,0.00132544895508,0.00159070072555,0.000920497741006,0.0,0.0,0.0,0.0,0.0,0.0,0.0,0.0,0.0,5.70746846278,-0.0193209110605,7.87164918523,0.0,0.0,0.0,0.0,0.0,0.0,0.0,0.0,0.0
29648000000,79,29648000000,imu_link,-0.000117609116538,-0.36622536763,0.000985252113347,0.930525655504,0.0,0.0,0.0,0.0,0.0,0.0,0.0,0.0,0.0,0.00167396862556,0.00152996997362,0.000937816949987,0.0,0.0,0.0,0.0,0.0,0.0,0.0,0.0,0.0,5.71165143517,-0.0191957042039,7.86543720756,0.0,0.0,0.0,0.0,0.0,0.0,0.0,0.0,0.0
29652000000,80,29652000000,imu_link,-0.000114721487233,-0.366222604848,0.000988483698817,0.930526739775,0.0,0.0,0.0,0.0,0.0,0.0,0.0,0.0,0.0,0.00193667564245,0.00148235098714,0.000974403365707,0.0,0.0,0.0,0.0,0.0,0.0,0.0,0.0,0.0,5.71481919979,-0.0190533703584,7.85818099057,0.0,0.0,0.0,0.0,0.0,0.0,0.0,0.0,0.0
29656000000,81,29656000000,imu_link,-0.000111626958583,-0.366220086486,0.000991863371775,0.93052772769,0.0,0.0,0.0,0.0,0.0,0.0,0.0,0.0,0.0,0.00205992849255,0.00135087653112,0.0010054510445,0.0,0.0,0.0,0.0,0.0,0.0,0.0,0.0,0.0,5.71903150144,-0.0189338156187,7.85484416089,0.0,0.0,0.0,0.0,0.0,0.0,0.0,0.0,0.0
29660000000,82,29660000000,imu_link,-0.0001087531365,-0.366218043779,0.00099525769613,0.930528528335,0.0,0.0,0.0,0.0,0.0,0.0,0.0,0.0,0.0,0.00195967817596,0.0010953896151,0.00105274772424,0.0,0.0,0.0,0.0,0.0,0.0,0.0,0.0,0.0,5.72365019104,-0.0188253424893,7.85306593373,0.0,0.0,0.0,0.0,0.0,0.0,0.0,0.0,0.0
29664000000,83,29664000000,imu_link,-0.000106480036602,-0.366216558457,0.00099861293332,0.930529109564,0.0,0.0,0.0,0.0,0.0,0.0,0.0,0.0,0.0,0.00167273709593,0.00079618172421,0.00114463839362,0.0,0.0,0.0,0.0,0.0,0.0,0.0,0.0,0.0,5.72822536982,-0.0187930637108,7.85034056479,0.0,0.0,0.0,0.0,0.0,0.0,0.0,0.0,0.0
29668000000,84,29668000000,imu_link,-0.000104849593449,-0.366215543495,0.00100193035091,0.930529505628,0.0,0.0,0.0,0.0,0.0,0.0,0.0,0.0,0.0,0.00136656189653,0.000543757925108,0.00124478545499,0.0,0.0,0.0,0.0,0.0,0.0,0.0,0.0,0.0,5.73237055175,-0.0188650990007,7.84541019459,0.0,0.0,0.0,0.0,0.0,0.0,0.0,0.0,0.0
29672000000,85,29672000000,imu_link,-0.00010388369783,-0.36621489976,0.00100519569298,0.930529755561,0.0,0.0,0.0,0.0,0.0,0.0,0.0,0.0,0.0,0.00104764228852,0.00034461647036,0.00134229411711,0.0,0.0,0.0,0.0,0.0,0.0,0.0,0.0,0.0,5.73550669259,-0.0189383073014,7.83797052946,0.0,0.0,0.0,0.0,0.0,0.0,0.0,0.0,0.0
29676000000,86,29676000000,imu_link,-0.000103543957115,-0.366214625887,0.00100841567941,0.930529859899,0.0,0.0,0.0,0.0,0.0,0.0,0.0,0.0,0.0,0.000747815993908,0.000146190451741,0.00143589932316,0.0,0.0,0.0,0.0,0.0,0.0,0.0,0.0,0.0,5.73899707934,-0.0190137228747,7.83214703285,0.0,0.0,0.0,0.0,0.0,0.0,0.0,0.0,0.0
29680000000,87,29680000000,imu_link,-0.000103709219666,-0.366214833137,0.00101162890807,0.930529774828,0.0,0.0,0.0,0.0,0.0,0.0,0.0,0.0,0.0,0.000511365895,-0.000112086174291,0.00152529555182,0.0,0.0,0.0,0.0,0.0,0.0,0.0,0.0,0.0,5.74316678816,-0.019118371842,7.82879828558,0.0,0.0,0.0,0.0,0.0,0.0,0.0,0.0,0.0
29684000000,88,29684000000,imu_link,-0.000104370087191,-0.366215715364,0.00101483059807,0.930529424063,0.0,0.0,0.0,0.0,0.0,0.0,0.0,0.0,0.0,0.000278310297872,-0.000474528468484,0.00161077535655,0.0,0.0,0.0,0.0,0.0,0.0,0.0,0.0,0.0,5.74771203604,-0.0191980002242,7.82705665513,0.0,0.0,0.0,0.0,0.0,0.0,0.0,0.0,0.0
29688000000,89,29688000000,imu_link,-0.000105517165849,-0.366217602151,0.00101799113006,0.930528677922,0.0,0.0,0.0,0.0,0.0,0.0,0.0,0.0,0.0,4.40266986225e-05,-0.00101406262963,0.00168080326451,0.0,0.0,0.0,0.0,0.0,0.0,0.0,0.0,0.0,5.75177124259,-0.0192631728475,7.82504387549,0.0,0.0,0.0,0.0,0.0,0.0,0.0,0.0,0.0
29692000000,90,29692000000,imu_link,-0.000107197957949,-0.366220820406,0.0010210863968,0.93052740776,0.0,0.0,0.0,0.0,0.0,0.0,0.0,0.0,0.0,-0.000216947132253,-0.00172922500777,0.001748361778,0.0,0.0,0.0,0.0,0.0,0.0,0.0,0.0,0.0,5.75466841988,-0.0193094028898,7.82007853495,0.0,0.0,0.0,0.0,0.0,0.0,0.0,0.0,0.0
29696000000,91,29696000000,imu_link,-0.000109510442647,-0.366225698976,0.00102412200253,0.930525484117,0.0,0.0,0.0,0.0,0.0,0.0,0.0,0.0,0.0,-0.000522658011692,-0.00262104250296,0.00183651780253,0.0,0.0,0.0,0.0,0.0,0.0,0.0,0.0,0.0,5.75859971601,-0.0193513292328,7.81775445718,0.0,0.0,0.0,0.0,0.0,0.0,0.0,0.0,0.0
29700000000,92,29700000000,imu_link,-0.000112611183397,-0.366232164259,0.00102711174217,0.930522935893,0.0,0.0,0.0,0.0,0.0,0.0,0.0,0.0,0.0,-0.000898649546933,-0.00347324421158,0.00195975077623,0.0,0.0,0.0,0.0,0.0,0.0,0.0,0.0,0.0,5.76203034938,-0.0193816198402,7.81156657094,0.0,0.0,0.0,0.0,0.0,0.0,0.0,0.0,0.0
29704000000,93,29704000000,imu_link,-0.000116577930301,-0.36623996243,0.00103005086177,0.930519862939,0.0,0.0,0.0,0.0,0.0,0.0,0.0,0.0,0.0,-0.00131155224298,-0.0041890236938,0.00209497330266,0.0,0.0,0.0,0.0,0.0,0.0,0.0,0.0,0.0,5.76591388229,-0.0194524206795,7.80514261042,0.0,0.0,0.0,0.0,0.0,0.0,0.0,0.0,0.0
29708000000,94,29708000000,imu_link,-0.000121340090371,-0.366248746042,0.00103294341634,0.930516401966,0.0,0.0,0.0,0.0,0.0,0.0,0.0,0.0,0.0,-0.00169068324836,-0.0047181522335,0.00221910690854,0.0,0.0,0.0,0.0,0.0,0.0,0.0,0.0,0.0,5.76920187554,-0.0195449367834,7.79680280841,0.0,0.0,0.0,0.0,0.0,0.0,0.0,0.0,0.0
29712000000,95,29712000000,imu_link,-0.000126658425532,-0.36625818514,0.00103580363689,0.930512682818,0.0,0.0,0.0,0.0,0.0,0.0,0.0,0.0,0.0,-0.00195572362384,-0.00507011126947,0.00230600602001,0.0,0.0,0.0,0.0,0.0,0.0,0.0,0.0,0.0,5.77299069722,-0.0196521039968,7.79019204102,0.0,0.0,0.0,0.0,0.0,0.0,0.0,0.0,0.0
29716000000,96,29716000000,imu_link,-0.000132202417527,-0.366267851577,0.00103867235398,0.930508873995,0.0,0.0,0.0,0.0,0.0,0.0,0.0,0.0,0.0,-0.00205927934896,-0.00519218747365,0.00235131547166,0.0,0.0,0.0,0.0,0.0,0.0,0.0,0.0,0.0,5.77677155463,-0.0197407265702,7.78304855335,0.0,0.0,0.0,0.0,0.0,0.0,0.0,0.0,0.0
29720000000,97,29720000000,imu_link,-0.000137866288546,-0.366277368755,0.0010415725217,0.930505123714,0.0,0.0,0.0,0.0,0.0,0.0,0.0,0.0,0.0,-0.00210921253557,-0.00511196368148,0.00238788139437,0.0,0.0,0.0,0.0,0.0,0.0,0.0,0.0,0.0,5.7804712945,-0.0197369449577,7.77628438996,0.0,0.0,0.0,0.0,0.0,0.0,0.0,0.0,0.0
29724000000,98,29724000000,imu_link,-0.000143741562457,-0.366286581437,0.00104449747057,0.930501493079,0.0,0.0,0.0,0.0,0.0,0.0,0.0,0.0,0.0,-0.00220286306116,-0.00494827521691,0.00243808561287,0.0,0.0,0.0,0.0,0.0,0.0,0.0,0.0,0.0,5.78363470308,-0.0196759687714,7.77005032074,0.0,0.0,0.0,0.0,0.0,0.0,0.0,0.0,0.0
29728000000,99,29728000000,imu_link,-0.000150104175797,-0.366295472555,0.0010474055811,0.930497988819,0.0,0.0,0.0,0.0,0.0,0.0,0.0,0.0,0.0,-0.00243250490302,-0.00477526744649,0.00251946162565,0.0,0.0,0.0,0.0,0.0,0.0,0.0,0.0,0.0,5.78748485388,-0.0196249889955,7.76672852162,0.0,0.0,0.0,0.0,0.0,0.0,0.0,0.0,0.0
29732000000,100,29732000000,imu_link,-0.00015720154206,-0.366304230219,0.0010502366315,0.930494536907,0.0,0.0,0.0,0.0,0.0,0.0,0.0,0.0,0.0,-0.00278838753062,-0.00470319974167,0.00261816041211,0.0,0.0,0.0,0.0,0.0,0.0,0.0,0.0,0.0,5.7902499798,-0.0196294894501,7.76201000003,0.0,0.0,0.0,0.0,0.0,0.0,0.0,0.0,0.0
29736000000,101,29736000000,imu_link,-0.000165197877056,-0.36631305361,0.00105295710886,0.930491058928,0.0,0.0,0.0,0.0,0.0,0.0,0.0,0.0,0.0,-0.00322691852941,-0.00473807254638,0.00273137315072,0.0,0.0,0.0,0.0,0.0,0.0,0.0,0.0,0.0,5.79388569511,-0.0196829019045,7.75924158736,0.0,0.0,0.0,0.0,0.0,0.0,0.0,0.0,0.0
29740000000,102,29740000000,imu_link,-0.000173959772678,-0.366321860918,0.00105556590168,0.930487587092,0.0,0.0,0.0,0.0,0.0,0.0,0.0,0.0,0.0,-0.00360353896383,-0.00472905249472,0.00281962794309,0.0,0.0,0.0,0.0,0.0,0.0,0.0,0.0,0.0,5.79757551699,-0.0198075071727,7.75465788785,0.0,0.0,0.0,0.0,0.0,0.0,0.0,0.0,0.0
29744000000,103,29744000000,imu_link,-0.00018325977678,-0.36633044318,0.00105808852921,0.930484203662,0.0,0.0,0.0,0.0,0.0,0.0,0.0,0.0,0.0,-0.00386954624594,-0.00460786762678,0.00287807343766,0.0,0.0,0.0,0.0,0.0,0.0,0.0,0.0,0.0,5.80102651561,-0.0198815336554,7.74883132014,0.0,0.0,0.0,0.0,0.0,0.0,0.0,0.0,0.0
29748000000,104,29748000000,imu_link,-0.000192763582084,-0.366338594264,0.0010605459752,0.930480989831,0.0,0.0,0.0,0.0,0.0,0.0,0.0,0.0,0.0,-0.00397605848161,-0.00437608641541,0.00288502732078,0.0,0.0,0.0,0.0,0.0,0.0,0.0,0.0,0.0,5.80497805465,-0.0199032043534,7.7446210786,0.0,0.0,0.0,0.0,0.0,0.0,0.0,0.0,0.0
29752000000,105,29752000000,imu_link,-0.000202237221118,-0.366346274594,0.00106294009047,0.930477961238,0.0,0.0,0.0,0.0,0.0,0.0,0.0,0.0,0.0,-0.00397335667569,-0.00412315311358,0.00284998491132,0.0,0.0,0.0,0.0,0.0,0.0,0.0,0.0,0.0,5.8084982339,-0.019878890715,7.74062146812,0.0,0.0,0.0,0.0,0.0,0.0,0.0,0.0,0.0
29756000000,106,29756000000,imu_link,-0.000211222441252,-0.366353856918,0.00106531420907,0.930474971191,0.0,0.0,0.0,0.0,0.0,0.0,0.0,0.0,0.0,-0.00374973203046,-0.00407075334627,0.00275120588655,0.0,0.0,0.0,0.0,0.0,0.0,0.0,0.0,0.0,5.81332949751,-0.0198748255581,7.74274347847,0.0,0.0,0.0,0.0,0.0,0.0,0.0,0.0,0.0
29760000000,107,29760000000,imu_link,-0.000219060293319,-0.366361791435,0.00106775374824,0.930471842503,0.0,0.0,0.0,0.0,0.0,0.0,0.0,0.0,0.0,-0.00320415209864,-0.00426062105729,0.00257150727857,0.0,0.0,0.0,0.0,0.0,0.0,0.0,0.0,0.0,5.81811233065,-0.0198515624662,7.74516323235,0.0,0.0,0.0,0.0,0.0,0.0,0.0,0.0,0.0
29764000000,108,29764000000,imu_link,-0.000225275210037,-0.366370346374,0.00107031595429,0.930468469629,0.0,0.0,0.0,0.0,0.0,0.0,0.0,0.0,0.0,-0.002426992021,-0.00459487366525,0.0023313479809,0.0,0.0,0.0,0.0,0.0,0.0,0.0,0.0,0.0,5.82303237787,-0.0196981563552,7.74631225918,0.0,0.0,0.0,0.0,0.0,0.0,0.0,0.0,0.0
29768000000,109,29768000000,imu_link,-0.000229998680969,-0.36637950291,0.0010729658103,0.930464859999,0.0,0.0,0.0,0.0,0.0,0.0,0.0,0.0,0.0,-0.00171741282507,-0.00491893523199,0.00209897392743,0.0,0.0,0.0,0.0,0.0,0.0,0.0,0.0,0.0,5.82642488457,-0.0193740427405,7.74174386227,0.0,0.0,0.0,0.0,0.0,0.0,0.0,0.0,0.0
29772000000,110,29772000000,imu_link,-0.000233962439375,-0.366389096834,0.00107559968616,0.930461078212,0.0,0.0,0.0,0.0,0.0,0.0,0.0,0.0,0.0,-0.00136715177043,-0.00515436595821,0.00195240995341,0.0,0.0,0.0,0.0,0.0,0.0,0.0,0.0,0.0,5.82911055874,-0.0189758699881,7.73458041666,0.0,0.0,0.0,0.0,0.0,0.0,0.0,0.0,0.0
29776000000,111,29776000000,imu_link,-0.000238326950224,-0.366399037677,0.00107807648595,0.930457159756,0.0,0.0,0.0,0.0,0.0,0.0,0.0,0.0,0.0,-0.00158257208581,-0.00534056574703,0.00195278194884,0.0,0.0,0.0,0.0,0.0,0.0,0.0,0.0,0.0,5.83408469488,-0.0186543648017,7.73401031978,0.0,0.0,0.0,0.0,0.0,0.0,0.0,0.0,0.0
29780000000,112,29780000000,imu_link,-0.00024374136591,-0.366409352198,0.00108031831536,0.930453093995,0.0,0.0,0.0,0.0,0.0,0.0,0.0,0.0,0.0,-0.00211428326323,-0.0055408043346,0.00203584394717,0.0,0.0,0.0,0.0,0.0,0.0,0.0,0.0,0.0,5.83793873347,-0.0185967683843,7.73153780323,0.0,0.0,0.0,0.0,0.0,0.0,0.0,0.0,0.0
29784000000,113,29784000000,imu_link,-0.000250206373438,-0.366420079546,0.00108234173991,0.930448865462,0.0,0.0,0.0,0.0,0.0,0.0,0.0,0.0,0.0,-0.00264330209924,-0.00576208837324,0.00212674715834,0.0,0.0,0.0,0.0,0.0,0.0,0.0,0.0,0.0,5.84056022747,-0.0187444104742,7.72603256031,0.0,0.0,0.0,0.0,0.0,0.0,0.0,0.0,0.0
29788000000,114,29788000000,imu_link,-0.00025726050786,-0.366431220275,0.00108425427526,0.930444473903,0.0,0.0,0.0,0.0,0.0,0.0,0.0,0.0,0.0,-0.00293793844412,-0.00598393865582,0.0021831292628,0.0,0.0,0.0,0.0,0.0,0.0,0.0,0.0,0.0,5.84268184452,-0.0189305564918,7.71895981944,0.0,0.0,0.0,0.0,0.0,0.0,0.0,0.0,0.0
29792000000,115,29792000000,imu_link,-0.000264236588682,-0.366443023775,0.00108622020152,0.930439821069,0.0,0.0,0.0,0.0,0.0,0.0,0.0,0.0,0.0,-0.00289223703878,-0.0063401937242,0.00219372365902,0.0,0.0,0.0,0.0,0.0,0.0,0.0,0.0,0.0,5.84638430402,-0.0190567330535,7.71777260117,0.0,0.0,0.0,0.0,0.0,0.0,0.0,0.0,0.0
29796000000,116,29796000000,imu_link,-0.000270674831432,-0.366455843281,0.00108833790952,0.930434767827,0.0,0.0,0.0,0.0,0.0,0.0,0.0,0.0,0.0,-0.00261481908456,-0.00688653526229,0.00216587527076,0.0,0.0,0.0,0.0,0.0,0.0,0.0,0.0,0.0,5.84916446383,-0.0190522705229,7.71477431436,0.0,0.0,0.0,0.0,0.0,0.0,0.0,0.0,0.0
29800000000,117,29800000000,imu_link,-0.000276184676674,-0.366470108573,0.00109069294669,0.930429144875,0.0,0.0,0.0,0.0,0.0,0.0,0.0,0.0,0.0,-0.00214029094746,-0.00766406354175,0.00210629093251,0.0,0.0,0.0,0.0,0.0,0.0,0.0,0.0,0.0,5.85339786559,-0.0189807501363,7.71568189182,0.0,0.0,0.0,0.0,0.0,0.0,0.0,0.0,0.0
29804000000,118,29804000000,imu_link,-0.000280458625544,-0.366486028319,0.00109332421679,0.930422870007,0.0,0.0,0.0,0.0,0.0,0.0,0.0,0.0,0.0,-0.00151571066523,-0.0085539064442,0.00200846603168,0.0,0.0,0.0,0.0,0.0,0.0,0.0,0.0,0.0,5.85630657057,-0.0188572630058,7.71175738454,0.0,0.0,0.0,0.0,0.0,0.0,0.0,0.0,0.0
29808000000,119,29808000000,imu_link,-0.000283282243334,-0.366503445488,0.0010962518903,0.930416005037,0.0,0.0,0.0,0.0,0.0,0.0,0.0,0.0,0.0,-0.000787587542474,-0.00935949111112,0.00188070584951,0.0,0.0,0.0,0.0,0.0,0.0,0.0,0.0,0.0,5.85960443518,-0.0186919810878,7.70626542688,0.0,0.0,0.0,0.0,0.0,0.0,0.0,0.0,0.0
29812000000,120,29812000000,imu_link,-0.000284736458589,-0.366522090798,0.00109944411954,0.930408655971,0.0,0.0,0.0,0.0,0.0,0.0,0.0,0.0,0.0,-0.000102791973853,-0.0100203314043,0.00175292531301,0.0,0.0,0.0,0.0,0.0,0.0,0.0,0.0,0.0,5.86224271444,-0.0184452666282,7.69861502533,0.0,0.0,0.0,0.0,0.0,0.0,0.0,0.0,0.0
29816000000,121,29816000000,imu_link,-0.000285297511082,-0.366541599447,0.00110283111872,0.930400966382,0.0,0.0,0.0,0.0,0.0,0.0,0.0,0.0,0.0,0.000347881874786,-0.010484883817,0.00167991546816,0.0,0.0,0.0,0.0,0.0,0.0,0.0,0.0,0.0,5.86583909943,-0.0181256048579,7.69287222841,0.0,0.0,0.0,0.0,0.0,0.0,0.0,0.0,0.0
29820000000,122,29820000000,imu_link,-0.000285448169263,-0.366561261203,0.00110632191589,0.930393215988,0.0,0.0,0.0,0.0,0.0,0.0,0.0,0.0,0.0,0.000557727546901,-0.0105674943284,0.00165300073548,0.0,0.0,0.0,0.0,0.0,0.0,0.0,0.0,0.0,5.87020994961,-0.0179160325769,7.68670139831,0.0,0.0,0.0,0.0,0.0,0.0,0.0,0.0,0.0
29824000000,123,29824000000,imu_link,-0.000285574412418,-0.366580490406,0.00110984216198,0.930385635504,0.0,0.0,0.0,0.0,0.0,0.0,0.0,0.0,0.0,0.000574746275585,-0.0103351482898,0.00166219322784,0.0,0.0,0.0,0.0,0.0,0.0,0.0,0.0,0.0,5.87411080413,-0.0178291274644,7.68072639951,0.0,0.0,0.0,0.0,0.0,0.0,0.0,0.0,0.0
29828000000,124,29828000000,imu_link,-0.000285820148187,-0.36659895262,0.00111336053147,0.930378356731,0.0,0.0,0.0,0.0,0.0,0.0,0.0,0.0,0.0,0.000519283903627,-0.00992298362808,0.00168316416086,0.0,0.0,0.0,0.0,0.0,0.0,0.0,0.0,0.0,5.87675899222,-0.0178532554026,7.67377225435,0.0,0.0,0.0,0.0,0.0,0.0,0.0,0.0,0.0
29832000000,125,29832000000,imu_link,-0.0002861047589,-0.366616564029,0.00111688203802,0.930371412769,0.0,0.0,0.0,0.0,0.0,0.0,0.0,0.0,0.0,0.000502296197241,-0.00946580594477,0.00169168445338,0.0,0.0,0.0,0.0,0.0,0.0,0.0,0.0,0.0,5.87852895093,-0.0179260519343,7.66673717243,0.0,0.0,0.0,0.0,0.0,0.0,0.0,0.0,0.0
29836000000,126,29836000000,imu_link,-0.000286370825712,-0.366633433332,0.00112040825975,0.930364760855,0.0,0.0,0.0,0.0,0.0,0.0,0.0,0.0,0.0,0.000512243086639,-0.0090670656242,0.00169042170521,0.0,0.0,0.0,0.0,0.0,0.0,0.0,0.0,0.0,5.88076680806,-0.0179404692213,7.66245239929,0.0,0.0,0.0,0.0,0.0,0.0,0.0,0.0,0.0
29840000000,127,29840000000,imu_link,-0.000286601775045,-0.366649778527,0.00112397282795,0.930358315086,0.0,0.0,0.0,0.0,0.0,0.0,0.0,0.0,0.0,0.000535931791594,-0.00878549490592,0.00170178174329,0.0,0.0,0.0,0.0,0.0,0.0,0.0,0.0,0.0,5.88363810533,-0.0179161701339,7.66039549379,0.0,0.0,0.0,0.0,0.0,0.0,0.0,0.0,0.0
29844000000,128,29844000000,imu_link,-0.000286777615028,-0.366665660538,0.00112757908393,0.930352051487,0.0,0.0,0.0,0.0,0.0,0.0,0.0,0.0,0.0,0.000569496330036,-0.00853667188392,0.0017110351177,0.0,0.0,0.0,0.0,0.0,0.0,0.0,0.0,0.0,5.88559347599,-0.0179088435571,7.65480446535,0.0,0.0,0.0,0.0,0.0,0.0,0.0,0.0,0.0
29848000000,129,29848000000,imu_link,-0.000286947691557,-0.366681150238,0.00113118326012,0.930345942188,0.0,0.0,0.0,0.0,0.0,0.0,0.0,0.0,0.0,0.000572039362549,-0.00832589333126,0.00170898027906,0.0,0.0,0.0,0.0,0.0,0.0,0.0,0.0,0.0,5.88870591953,-0.0178985069859,7.65214211285,0.0,0.0,0.0,0.0,0.0,0.0,0.0,0.0,0.0
29852000000,130,29852000000,imu_link,-0.000287265273633,-0.366696631054,0.00113468537883,0.930339836157,0.0,0.0,0.0,0.0,0.0,0.0,0.0,0.0,0.0,0.000484717984614,-0.00832106308461,0.00168854907238,0.0,0.0,0.0,0.0,0.0,0.0,0.0,0.0,0.0,5.89169776377,-0.0178857442011,7.65141992814,0.0,0.0,0.0,0.0,0.0,0.0,0.0,0.0,0.0
29856000000,131,29856000000,imu_link,-0.000287732467911,-0.366712660176,0.00113805355532,0.930333513806,0.0,0.0,0.0,0.0,0.0,0.0,0.0,0.0,0.0,0.00039022265953,-0.00861567671029,0.0016537182988,0.0,0.0,0.0,0.0,0.0,0.0,0.0,0.0,0.0,5.89482008473,-0.0179118248562,7.65173794483,0.0,0.0,0.0,0.0,0.0,0.0,0.0,0.0,0.0
29860000000,132,29860000000,imu_link,-0.000288325713209,-0.366729619417,0.00114126794181,0.930326824626,0.0,0.0,0.0,0.0,0.0,0.0,0.0,0.0,0.0,0.000302807511433,-0.00911550351808,0.00160536748415,0.0,0.0,0.0,0.0,0.0,0.0,0.0,0.0,0.0,5.89831715998,-0.0179433159665,7.65155615393,0.0,0.0,0.0,0.0,0.0,0.0,0.0,0.0,0.0
29864000000,133,29864000000,imu_link,-0.000288948239259,-0.366747500276,0.00114431907517,0.930319771952,0.0,0.0,0.0,0.0,0.0,0.0,0.0,0.0,0.0,0.000258673985953,-0.00961081799785,0.00153487171236,0.0,0.0,0.0,0.0,0.0,0.0,0.0,0.0,0.0,5.90092023362,-0.0179957296488,7.64627232579,0.0,0.0,0.0,0.0,0.0,0.0,0.0,0.0,0.0
29868000000,134,29868000000,imu_link,-0.000289407988365,-0.366766083756,0.00114720319351,0.930312442126,0.0,0.0,0.0,0.0,0.0,0.0,0.0,0.0,0.0,0.000303323069267,-0.00998854108733,0.00142739107704,0.0,0.0,0.0,0.0,0.0,0.0,0.0,0.0,0.0,5.90417153518,-0.018071424194,7.6414906684,0.0,0.0,0.0,0.0,0.0,0.0,0.0,0.0,0.0
29872000000,135,29872000000,imu_link,-0.000289603966413,-0.366785186445,0.00114993494724,0.930304907427,0.0,0.0,0.0,0.0,0.0,0.0,0.0,0.0,0.0,0.000397749265668,-0.010267753462,0.00130818897019,0.0,0.0,0.0,0.0,0.0,0.0,0.0,0.0,0.0,5.90585683362,-0.0181066319239,7.6333579638,0.0,0.0,0.0,0.0,0.0,0.0,0.0,0.0,0.0
29876000000,136,29876000000,imu_link,-0.000289442903418,-0.366804720577,0.00115254880375,0.930297202412,0.0,0.0,0.0,0.0,0.0,0.0,0.0,0.0,0.0,0.000541933579753,-0.0104998631157,0.00118790556202,0.0,0.0,0.0,0.0,0.0,0.0,0.0,0.0,0.0,5.90787643291,-0.0181264214878,7.62671538035,0.0,0.0,0.0,0.0,0.0,0.0,0.0,0.0,0.0
29880000000,137,29880000000,imu_link,-0.000288915643788,-0.366824563339,0.00115507275867,0.930289375445,0.0,0.0,0.0,0.0,0.0,0.0,0.0,0.0,0.0,0.000695585763227,-0.0106659864779,0.0010789522487,0.0,0.0,0.0,0.0,0.0,0.0,0.0,0.0,0.0,5.9106593372,-0.0180736183568,7.62196632132,0.0,0.0,0.0,0.0,0.0,0.0,0.0,0.0,0.0
29884000000,138,29884000000,imu_link,-0.000288084804109,-0.366844499396,0.00115750593376,0.930281511399,0.0,0.0,0.0,0.0,0.0,0.0,0.0,0.0,0.0,0.00082008503638,-0.0107163447767,0.000981054116941,0.0,0.0,0.0,0.0,0.0,0.0,0.0,0.0,0.0,5.91361192921,-0.0179838647079,7.61714549755,0.0,0.0,0.0,0.0,0.0,0.0,0.0,0.0,0.0
29888000000,139,29888000000,imu_link,-0.000286990082773,-0.366864322882,0.00115987073198,0.930273691412,0.0,0.0,0.0,0.0,0.0,0.0,0.0,0.0,0.0,0.000930356809691,-0.0106560449977,0.000900838203062,0.0,0.0,0.0,0.0,0.0,0.0,0.0,0.0,0.0,5.91558530267,-0.017925395773,7.609859344,0.0,0.0,0.0,0.0,0.0,0.0,0.0,0.0,0.0
29892000000,140,29892000000,imu_link,-0.000285594827663,-0.36688395485,0.00116221213763,0.930265946583,0.0,0.0,0.0,0.0,0.0,0.0,0.0,0.0,0.0,0.00106597704214,-0.0105533478117,0.000834813786453,0.0,0.0,0.0,0.0,0.0,0.0,0.0,0.0,0.0,5.91790455228,-0.0178812060753,7.60458617533,0.0,0.0,0.0,0.0,0.0,0.0,0.0,0.0,0.0
29896000000,141,29896000000,imu_link,-0.000283831358515,-0.366903557521,0.00116458319265,0.930258212898,0.0,0.0,0.0,0.0,0.0,0.0,0.0,0.0,0.0,0.00124270308959,-0.0105378945117,0.000781056486272,0.0,0.0,0.0,0.0,0.0,0.0,0.0,0.0,0.0,5.92074814736,-0.0178488835458,7.60243866032,0.0,0.0,0.0,0.0,0.0,0.0,0.0,0.0,0.0
29900000000,142,29900000000,imu_link,-0.000281702068138,-0.366923216583,0.00116696096737,0.930250456586,0.0,0.0,0.0,0.0,0.0,0.0,0.0,0.0,0.0,0.00141405388297,-0.010568488212,0.00071707662752,0.0,0.0,0.0,0.0,0.0,0.0,0.0,0.0,0.0,5.9236452094,-0.0177937600025,7.59988246531,0.0,0.0,0.0,0.0,0.0,0.0,0.0,0.0,0.0
29904000000,143,29904000000,imu_link,-0.000279229995823,-0.366943023516,0.00116932388086,0.930242641576,0.0,0.0,0.0,0.0,0.0,0.0,0.0,0.0,0.0,0.00157066939806,-0.0106482337275,0.000647290392463,0.0,0.0,0.0,0.0,0.0,0.0,0.0,0.0,0.0,5.9263059636,-0.0177204984781,7.59672734819,0.0,0.0,0.0,0.0,0.0,0.0,0.0,0.0,0.0
29908000000,144,29908000000,imu_link,-0.000276219795413,-0.366962992359,0.00117167335501,0.930234762371,0.0,0.0,0.0,0.0,0.0,0.0,0.0,0.0,0.0,0.00181839488704,-0.0107356324979,0.000542323220315,0.0,0.0,0.0,0.0,0.0,0.0,0.0,0.0,0.0,5.92995602707,-0.0176906397742,7.59526442194,0.0,0.0,0.0,0.0,0.0,0.0,0.0,0.0,0.0
29912000000,145,29912000000,imu_link,-0.000272099722745,-0.366983209683,0.00117408479392,0.930226784874,0.0,0.0,0.0,0.0,0.0,0.0,0.0,0.0,0.0,0.00234582600831,-0.0108698982724,0.000367526350656,0.0,0.0,0.0,0.0,0.0,0.0,0.0,0.0,0.0,5.93289973126,-0.0177450299215,7.59286422897,0.0,0.0,0.0,0.0,0.0,0.0,0.0,0.0,0.0
29916000000,146,29916000000,imu_link,-0.000266428179674,-0.36700395293,0.00117661768909,0.930218599642,0.0,0.0,0.0,0.0,0.0,0.0,0.0,0.0,0.0,0.00308938487382,-0.0111535574041,0.000139385888609,0.0,0.0,0.0,0.0,0.0,0.0,0.0,0.0,0.0,5.9366383411,-0.0177466755276,7.59365333556,0.0,0.0,0.0,0.0,0.0,0.0,0.0,0.0,0.0
29920000000,147,29920000000,imu_link,-0.000259128785341,-0.36702562553,0.00117927285459,0.930210047447,0.0,0.0,0.0,0.0,0.0,0.0,0.0,0.0,0.0,0.00386835485132,-0.0116541208084,-0.000102366881648,0.0,0.0,0.0,0.0,0.0,0.0,0.0,0.0,0.0,5.93975277877,-0.0176065358287,7.59369119662,0.0,0.0,0.0,0.0,0.0,0.0,0.0,0.0,0.0
29924000000,148,29924000000,imu_link,-0.000250525230118,-0.367048658187,0.00118200541425,0.930200958193,0.0,0.0,0.0,0.0,0.0,0.0,0.0,0.0,0.0,0.00448825792792,-0.0123860260259,-0.00030556025392,0.0,0.0,0.0,0.0,0.0,0.0,0.0,0.0,0.0,5.94345538888,-0.0173702464677,7.59525297502,0.0,0.0,0.0,0.0,0.0,0.0,0.0,0.0,0.0
29928000000,149,29928000000,imu_link,-0.00024120954329,-0.367073280391,0.00118476270514,0.930191241078,0.0,0.0,0.0,0.0,0.0,0.0,0.0,0.0,0.0,0.00482299139112,-0.0132409766174,-0.000424579257903,0.0,0.0,0.0,0.0,0.0,0.0,0.0,0.0,0.0,5.94853049311,-0.0171151380567,7.59881992771,0.0,0.0,0.0,0.0,0.0,0.0,0.0,0.0,0.0
29932000000,150,29932000000,imu_link,-0.000231751034945,-0.367099382527,0.00118750064344,0.930180939109,0.0,0.0,0.0,0.0,0.0,0.0,0.0,0.0,0.0,0.00488491792011,-0.014036711111,-0.000459625081635,0.0,0.0,0.0,0.0,0.0,0.0,0.0,0.0,0.0,5.95091896268,-0.0169324826943,7.59336749703,0.0,0.0,0.0,0.0,0.0,0.0,0.0,0.0,0.0
29936000000,151,29936000000,imu_link,-0.000222454720618,-0.367126511871,0.00119021180821,0.930170230759,0.0,0.0,0.0,0.0,0.0,0.0,0.0,0.0,0.0,0.00480391176182,-0.0145889476883,-0.000442184269415,0.0,0.0,0.0,0.0,0.0,0.0,0.0,0.0,0.0,5.95428459664,-0.0168914280142,7.5876506834,0.0,0.0,0.0,0.0,0.0,0.0,0.0,0.0,0.0
29940000000,152,29940000000,imu_link,-0.000213332942453,-0.367154231159,0.00119291643729,0.930159288499,0.0,0.0,0.0,0.0,0.0,0.0,0.0,0.0,0.0,0.00472116078192,-0.0149061543202,-0.00041311191194,0.0,0.0,0.0,0.0,0.0,0.0,0.0,0.0,0.0,5.95661537001,-0.0169420388228,7.5800744484,0.0,0.0,0.0,0.0,0.0,0.0,0.0,0.0,0.0
29944000000,153,29944000000,imu_link,-0.000204352046793,-0.36718234522,0.00119563034605,0.930148189305,0.0,0.0,0.0,0.0,0.0,0.0,0.0,0.0,0.0,0.00465709052803,-0.0151184820598,-0.00038288182322,0.0,0.0,0.0,0.0,0.0,0.0,0.0,0.0,0.0,5.95880031,-0.0170239937781,7.57424236535,0.0,0.0,0.0,0.0,0.0,0.0,0.0,0.0,0.0
29948000000,154,29948000000,imu_link,-0.000195558614971,-0.367210882989,0.00119836591608,0.93013692169,0.0,0.0,0.0,0.0,0.0,0.0,0.0,0.0,0.0,0.00457361226553,-0.0153463480051,-0.000338333625629,0.0,0.0,0.0,0.0,0.0,0.0,0.0,0.0,0.0,5.96190146554,-0.0170887888097,7.57210144717,0.0,0.0,0.0,0.0,0.0,0.0,0.0,0.0,0.0
29952000000,155,29952000000,imu_link,-0.000187035574596,-0.367239762422,0.00120113093694,0.93012551798,0.0,0.0,0.0,0.0,0.0,0.0,0.0,0.0,0.0,0.00445305103545,-0.0155300738729,-0.000274943498465,0.0,0.0,0.0,0.0,0.0,0.0,0.0,0.0,0.0,5.96365149961,-0.017139427228,7.56594996832,0.0,0.0,0.0,0.0,0.0,0.0,0.0,0.0,0.0
29956000000,156,29956000000,imu_link,-0.000178747958991,-0.367268593873,0.00120394624978,0.930114131984,0.0,0.0,0.0,0.0,0.0,0.0,0.0,0.0,0.0,0.0043528288232,-0.0155043699742,-0.00020833205334,0.0,0.0,0.0,0.0,0.0,0.0,0.0,0.0,0.0,5.96527463337,-0.0172541642121,7.55722052666,0.0,0.0,0.0,0.0,0.0,0.0,0.0,0.0,0.0
29960000000,157,29960000000,imu_link,-0.000170523874316,-0.367296870879,0.00120683695735,0.930102963714,0.0,0.0,0.0,0.0,0.0,0.0,0.0,0.0,0.0,0.00433748159332,-0.0152065077709,-0.000161684257303,0.0,0.0,0.0,0.0,0.0,0.0,0.0,0.0,0.0,5.96850611807,-0.017413610907,7.55181422352,0.0,0.0,0.0,0.0,0.0,0.0,0.0,0.0,0.0
29964000000,158,29964000000,imu_link,-0.000162059443333,-0.36732417473,0.00120984760076,0.930092178585,0.0,0.0,0.0,0.0,0.0,0.0,0.0,0.0,0.0,0.00447190091632,-0.0146837329117,-0.000150195360518,0.0,0.0,0.0,0.0,0.0,0.0,0.0,0.0,0.0,5.97110917414,-0.0175854832664,7.54624732008,0.0,0.0,0.0,0.0,0.0,0.0,0.0,0.0,0.0
29968000000,159,29968000000,imu_link,-0.000152986307099,-0.36735046984,0.00121306441941,0.930081790693,0.0,0.0,0.0,0.0,0.0,0.0,0.0,0.0,0.0,0.00479348588818,-0.0141420488814,-0.000166269009073,0.0,0.0,0.0,0.0,0.0,0.0,0.0,0.0,0.0,5.97438060545,-0.0177245601405,7.54497589705,0.0,0.0,0.0,0.0,0.0,0.0,0.0,0.0,0.0
29972000000,160,29972000000,imu_link,-0.000143041102781,-0.367375831161,0.0012165589529,0.930071770458,0.0,0.0,0.0,0.0,0.0,0.0,0.0,0.0,0.0,0.00525063704458,-0.0136408199909,-0.00019744912847,0.0,0.0,0.0,0.0,0.0,0.0,0.0,0.0,0.0,5.97537564416,-0.0177262860856,7.53923249137,0.0,0.0,0.0,0.0,0.0,0.0,0.0,0.0,0.0
29976000000,161,29976000000,imu_link,-0.00013221071462,-0.367400258047,0.00122033638512,0.930062118187,0.0,0.0,0.0,0.0,0.0,0.0,0.0,0.0,0.0,0.00571483909038,-0.0131392419489,-0.000228645635273,0.0,0.0,0.0,0.0,0.0,0.0,0.0,0.0,0.0,5.97694140658,-0.0176184902339,7.53444796431,0.0,0.0,0.0,0.0,0.0,0.0,0.0,0.0,0.0
29980000000,162,29980000000,imu_link,-0.000120646366383,-0.367423695485,0.0012243364503,0.930052855724,0.0,0.0,0.0,0.0,0.0,0.0,0.0,0.0,0.0,0.00609768052227,-0.0126079728295,-0.000260115397964,0.0,0.0,0.0,0.0,0.0,0.0,0.0,0.0,0.0,5.98009086762,-0.0175015384344,7.53215262691,0.0,0.0,0.0,0.0,0.0,0.0,0.0,0.0,0.0
29984000000,163,29984000000,imu_link,-0.000108749066641,-0.367446170431,0.00122845350144,0.930043972569,0.0,0.0,0.0,0.0,0.0,0.0,0.0,0.0,0.0,0.00627461556618,-0.0120909163473,-0.000267055109714,0.0,0.0,0.0,0.0,0.0,0.0,0.0,0.0,0.0,5.98321164418,-0.017357679197,7.53064782177,0.0,0.0,0.0,0.0,0.0,0.0,0.0,0.0,0.0
29988000000,164,29988000000,imu_link,-9.66987231391e-05,-0.367467850904,0.00123262986576,0.930035402458,0.0,0.0,0.0,0.0,0.0,0.0,0.0,0.0,0.0,0.0063571864882,-0.0116640525856,-0.000267739929687,0.0,0.0,0.0,0.0,0.0,0.0,0.0,0.0,0.0,5.98500801729,-0.0173088336311,7.527233641,0.0,0.0,0.0,0.0,0.0,0.0,0.0,0.0,0.0
29992000000,165,29992000000,imu_link,-8.44734236645e-05,-0.367488913718,0.00123684291466,0.930027075616,0.0,0.0,0.0,0.0,0.0,0.0,0.0,0.0,0.0,0.00644567674933,-0.0113322433826,-0.000282946362175,0.0,0.0,0.0,0.0,0.0,0.0,0.0,0.0,0.0,5.98758394887,-0.0173151777046,7.52551707167,0.0,0.0,0.0,0.0,0.0,0.0,0.0,0.0,0.0
29996000000,166,29996000000,imu_link,-7.19596809641e-05,-0.367509410996,0.00124110891263,0.930018971473,0.0,0.0,0.0,0.0,0.0,0.0,0.0,0.0,0.0,0.00658989499876,-0.0110285218781,-0.000311438006904,0.0,0.0,0.0,0.0,0.0,0.0,0.0,0.0,0.0,5.98966460854,-0.0173172406467,7.52153993905,0.0,0.0,0.0,0.0,0.0,0.0,0.0,0.0,0.0
30000000000,167,30000000000,imu_link,-5.90824190711e-05,-0.367529366145,0.001245433278,0.930011080808,0.0,0.0,0.0,0.0,0.0,0.0,0.0,0.0,0.0,0.00677000425477,-0.0107374270385,-0.000351207949649,0.0,0.0,0.0,0.0,0.0,0.0,0.0,0.0,0.0,5.99202826475,-0.0173222947692,7.51801064029,0.0,0.0,0.0,0.0,0.0,0.0,0.0,0.0,0.0
30004000000,168,30004000000,imu_link,-4.60122359057e-05,-0.367549074389,0.0012498419259,0.930003286926,0.0,0.0,0.0,0.0,0.0,0.0,0.0,0.0,0.0,0.0068753584812,-0.0106049520679,-0.000347521191003,0.0,0.0,0.0,0.0,0.0,0.0,0.0,0.0,0.0,5.99640306903,-0.0173658632248,7.52159942,0.0,0.0,0.0,0.0,0.0,0.0,0.0,0.0,0.0
30008000000,169,30008000000,imu_link,-3.32402415494e-05,-0.367568810201,0.00125434214321,0.929995481327,0.0,0.0,0.0,0.0,0.0,0.0,0.0,0.0,0.0,0.00675351082266,-0.0106197402021,-0.000250135068718,0.0,0.0,0.0,0.0,0.0,0.0,0.0,0.0,0.0,6.00047183345,-0.0174986948076,7.52455489231,0.0,0.0,0.0,0.0,0.0,0.0,0.0,0.0,0.0
30012000000,170,30012000000,imu_link,-2.12211046084e-05,-0.36758868439,0.0012589070428,0.929987620246,0.0,0.0,0.0,0.0,0.0,0.0,0.0,0.0,0.0,0.00641523371126,-0.0106938110577,-8.16620054747e-05,0.0,0.0,0.0,0.0,0.0,0.0,0.0,0.0,0.0,6.00323245858,-0.0176429574267,7.52322314296,0.0,0.0,0.0,0.0,0.0,0.0,0.0,0.0,0.0
30016000000,171,30016000000,imu_link,-1.00504610307e-05,-0.367608673296,0.00126354858875,0.929979713038,0.0,0.0,0.0,0.0,0.0,0.0,0.0,0.0,0.0,0.00603470401776,-0.010755098466,0.000109954174239,0.0,0.0,0.0,0.0,0.0,0.0,0.0,0.0,0.0,6.00546034911,-0.0178683128968,7.51949838311,0.0,0.0,0.0,0.0,0.0,0.0,0.0,0.0,0.0
30020000000,172,30020000000,imu_link,4.85796421709e-07,-0.367628713292,0.00126833565446,0.92997178478,0.0,0.0,0.0,0.0,0.0,0.0,0.0,0.0,0.0,0.00576643568396,-0.0107823238562,0.000294235349416,0.0,0.0,0.0,0.0,0.0,0.0,0.0,0.0,0.0,6.00884040898,-0.0181195691007,7.51805074649,0.0,0.0,0.0,0.0,0.0,0.0,0.0,0.0,0.0
30024000000,173,30024000000,imu_link,1.07594027722e-05,-0.367648754626,0.00127333717639,0.92996385506,0.0,0.0,0.0,0.0,0.0,0.0,0.0,0.0,0.0,0.00568372591052,-0.0107830478503,0.00044223443533,0.0,0.0,0.0,0.0,0.0,0.0,0.0,0.0,0.0,6.01196465952,-0.0183365922211,7.51613160708,0.0,0.0,0.0,0.0,0.0,0.0,0.0,0.0,0.0
30028000000,174,30028000000,imu_link,2.08467323645e-05,-0.367668738882,0.00127855751034,0.92995594697,0.0,0.0,0.0,0.0,0.0,0.0,0.0,0.0,0.0,0.00563736979302,-0.0107524119249,0.000578206206385,0.0,0.0,0.0,0.0,0.0,0.0,0.0,0.0,0.0,6.01410024815,-0.018442950118,7.51168522107,0.0,0.0,0.0,0.0,0.0,0.0,0.0,0.0,0.0
30032000000,175,30032000000,imu_link,3.05026815064e-05,-0.367688941269,0.00128393311154,0.929947951798,0.0,0.0,0.0,0.0,0.0,0.0,0.0,0.0,0.0,0.0054651923035,-0.0108695686626,0.000729762551881,0.0,0.0,0.0,0.0,0.0,0.0,0.0,0.0,0.0,6.01658029238,-0.0184705955915,7.51074315283,0.0,0.0,0.0,0.0,0.0,0.0,0.0,0.0,0.0
30036000000,176,30036000000,imu_link,3.92740304431e-05,-0.367709974322,0.00128937803531,0.929939627474,0.0,0.0,0.0,0.0,0.0,0.0,0.0,0.0,0.0,0.00506609255812,-0.0113157512919,0.000924848569704,0.0,0.0,0.0,0.0,0.0,0.0,0.0,0.0,0.0,6.02027051034,-0.0185046035578,7.51525449846,0.0,0.0,0.0,0.0,0.0,0.0,0.0,0.0,0.0
30040000000,177,30040000000,imu_link,4.68064593958e-05,-0.367732616731,0.00129482091977,0.929930666147,0.0,0.0,0.0,0.0,0.0,0.0,0.0,0.0,0.0,0.00448863220208,-0.0121803708819,0.00115212424422,0.0,0.0,0.0,0.0,0.0,0.0,0.0,0.0,0.0,6.0239767807,-0.0186022743425,7.52052773149,0.0,0.0,0.0,0.0,0.0,0.0,0.0,0.0,0.0
30044000000,178,30044000000,imu_link,5.30387001971e-05,-0.367757369324,0.00130023801358,0.929920869685,0.0,0.0,0.0,0.0,0.0,0.0,0.0,0.0,0.0,0.00387800114292,-0.0133142449939,0.00137978333992,0.0,0.0,0.0,0.0,0.0,0.0,0.0,0.0,0.0,6.0262928547,-0.0187929953276,7.52027279728,0.0,0.0,0.0,0.0,0.0,0.0,0.0,0.0,0.0
30048000000,179,30048000000,imu_link,5.83225493101e-05,-0.367784167519,0.00130564111107,0.929910263424,0.0,0.0,0.0,0.0,0.0,0.0,0.0,0.0,0.0,0.00343315449844,-0.0144136572139,0.00154824533796,0.0,0.0,0.0,0.0,0.0,0.0,0.0,0.0,0.0,6.0287387904,-0.0190921995997,7.51600749112,0.0,0.0,0.0,0.0,0.0,0.0,0.0,0.0,0.0
30052000000,180,30052000000,imu_link,6.31427629152e-05,-0.367812635424,0.00131107115764,0.929898995767,0.0,0.0,0.0,0.0,0.0,0.0,0.0,0.0,0.0,0.00322146977803,-0.0153113200637,0.00164651481534,0.0,0.0,0.0,0.0,0.0,0.0,0.0,0.0,0.0,6.03055258544,-0.0193832548729,7.50806048621,0.0,0.0,0.0,0.0,0.0,0.0,0.0,0.0,0.0
30056000000,181,30056000000,imu_link,6.79414138448e-05,-0.367842318651,0.00131654356,0.929887246233,0.0,0.0,0.0,0.0,0.0,0.0,0.0,0.0,0.0,0.00321845224606,-0.0159649880208,0.00167052788481,0.0,0.0,0.0,0.0,0.0,0.0,0.0,0.0,0.0,6.03344391719,-0.0196068365213,7.50249419336,0.0,0.0,0.0,0.0,0.0,0.0,0.0,0.0,0.0
30060000000,182,30060000000,imu_link,7.30573576424e-05,-0.367872855291,0.00132206746614,0.929875157825,0.0,0.0,0.0,0.0,0.0,0.0,0.0,0.0,0.0,0.00337489791219,-0.0164243099065,0.00163636943129,0.0,0.0,0.0,0.0,0.0,0.0,0.0,0.0,0.0,6.03601573292,-0.0197533367654,7.49714080466,0.0,0.0,0.0,0.0,0.0,0.0,0.0,0.0,0.0
30064000000,183,30064000000,imu_link,7.85097308961e-05,-0.367904029593,0.00132762397217,0.929862815828,0.0,0.0,0.0,0.0,0.0,0.0,0.0,0.0,0.0,0.00353690066244,-0.016767648402,0.00158983563367,0.0,0.0,0.0,0.0,0.0,0.0,0.0,0.0,0.0,6.0380233287,-0.0197403180427,7.49192809942,0.0,0.0,0.0,0.0,0.0,0.0,0.0,0.0,0.0
30068000000,184,30068000000,imu_link,8.40709383901e-05,-0.367935538208,0.00133320674615,0.929850340224,0.0,0.0,0.0,0.0,0.0,0.0,0.0,0.0,0.0,0.00359211648638,-0.0169477299597,0.00158212996894,0.0,0.0,0.0,0.0,0.0,0.0,0.0,0.0,0.0,6.04053003224,-0.0196910113126,7.48741990947,0.0,0.0,0.0,0.0,0.0,0.0,0.0,0.0,0.0
30072000000,185,30072000000,imu_link,8.94651393564e-05,-0.367967124315,0.00133879439599,0.929837832662,0.0,0.0,0.0,0.0,0.0,0.0,0.0,0.0,0.0,0.00351531763596,-0.0169895251212,0.00161514525587,0.0,0.0,0.0,0.0,0.0,0.0,0.0,0.0,0.0,6.04179810091,-0.0196721765984,7.48010433601,0.0,0.0,0.0,0.0,0.0,0.0,0.0,0.0,0.0
30076000000,186,30076000000,imu_link,9.44972735372e-05,-0.367998514137,0.00134437560477,0.929825401523,0.0,0.0,0.0,0.0,0.0,0.0,0.0,0.0,0.0,0.00334592886095,-0.0168839664551,0.00167870508123,0.0,0.0,0.0,0.0,0.0,0.0,0.0,0.0,0.0,6.04375679986,-0.019695055236,7.47452568442,0.0,0.0,0.0,0.0,0.0,0.0,0.0,0.0,0.0
30080000000,187,30080000000,imu_link,9.90622765442e-05,-0.368029517785,0.00134996185366,0.929813121992,0.0,0.0,0.0,0.0,0.0,0.0,0.0,0.0,0.0,0.00312993344146,-0.0166762185874,0.0017668799278,0.0,0.0,0.0,0.0,0.0,0.0,0.0,0.0,0.0,6.0461596007,-0.0197577614772,7.47092603695,0.0,0.0,0.0,0.0,0.0,0.0,0.0,0.0,0.0
30084000000,188,30084000000,imu_link,0.00010305678849,-0.368059957172,0.00135553431736,0.929801064654,0.0,0.0,0.0,0.0,0.0,0.0,0.0,0.0,0.0,0.00286254158583,-0.016372619284,0.00186527195636,0.0,0.0,0.0,0.0,0.0,0.0,0.0,0.0,0.0,6.04728669297,-0.0198100390929,7.46439895681,0.0,0.0,0.0,0.0,0.0,0.0,0.0,0.0,0.0
30088000000,189,30088000000,imu_link,0.000106546141422,-0.36808977496,0.00136105907587,0.929789252324,0.0,0.0,0.0,0.0,0.0,0.0,0.0,0.0,0.0,0.00261932238084,-0.0160382084704,0.00193586010088,0.0,0.0,0.0,0.0,0.0,0.0,0.0,0.0,0.0,6.04943846433,-0.0198855339143,7.46126109869,0.0,0.0,0.0,0.0,0.0,0.0,0.0,0.0,0.0
30092000000,190,30092000000,imu_link,0.000109899564314,-0.368119106258,0.00136654557019,0.929777631524,0.0,0.0,0.0,0.0,0.0,0.0,0.0,0.0,0.0,0.00254940777237,-0.0157767017803,0.00194293225086,0.0,0.0,0.0,0.0,0.0,0.0,0.0,0.0,0.0,6.05078278995,-0.0199966406311,7.45747991313,0.0,0.0,0.0,0.0,0.0,0.0,0.0,0.0,0.0
30096000000,191,30096000000,imu_link,0.000113326714958,-0.368148454147,0.00137203274948,0.929766003031,0.0,0.0,0.0,0.0,0.0,0.0,0.0,0.0,0.0,0.00258379814373,-0.0157858803998,0.00192968656076,0.0,0.0,0.0,0.0,0.0,0.0,0.0,0.0,0.0,6.05296156924,-0.0201041316447,7.45847366324,0.0,0.0,0.0,0.0,0.0,0.0,0.0,0.0,0.0
30100000000,192,30100000000,imu_link,0.000116864573956,-0.368178210269,0.00137754399755,0.929754211713,0.0,0.0,0.0,0.0,0.0,0.0,0.0,0.0,0.0,0.00263942418915,-0.0160057078108,0.00192063200466,0.0,0.0,0.0,0.0,0.0,0.0,0.0,0.0,0.0,6.05498825056,-0.0202258551904,7.45826610598,0.0,0.0,0.0,0.0,0.0,0.0,0.0,0.0,0.0
30104000000,193,30104000000,imu_link,0.000120362416799,-0.368208680195,0.00138308095782,0.929742136524,0.0,0.0,0.0,0.0,0.0,0.0,0.0,0.0,0.0,0.00262507986867,-0.0163897678,0.00194018878701,0.0,0.0,0.0,0.0,0.0,0.0,0.0,0.0,0.0,6.05726028523,-0.0202781215009,7.45766560403,0.0,0.0,0.0,0.0,0.0,0.0,0.0,0.0,0.0
30108000000,194,30108000000,imu_link,0.000123743630184,-0.368239988852,0.00138861551232,0.929729727956,0.0,0.0,0.0,0.0,0.0,0.0,0.0,0.0,0.0,0.00256985934372,-0.0168409652387,0.00196082342688,0.0,0.0,0.0,0.0,0.0,0.0,0.0,0.0,0.0,6.05874588676,-0.0202983492532,7.45394351547,0.0,0.0,0.0,0.0,0.0,0.0,0.0,0.0,0.0
30112000000,195,30112000000,imu_link,0.000126770527187,-0.36827207559,0.00139408165754,0.929717010066,0.0,0.0,0.0,0.0,0.0,0.0,0.0,0.0,0.0,0.0023920335005,-0.0172593780296,0.00199452199014,0.0,0.0,0.0,0.0,0.0,0.0,0.0,0.0,0.0,6.0596037797,-0.0202632207892,7.44753153853,0.0,0.0,0.0,0.0,0.0,0.0,0.0,0.0,0.0
30116000000,196,30116000000,imu_link,0.000129112545452,-0.368304611008,0.00139943023876,0.92970411338,0.0,0.0,0.0,0.0,0.0,0.0,0.0,0.0,0.0,0.00205171260979,-0.0175004040642,0.00206613529194,0.0,0.0,0.0,0.0,0.0,0.0,0.0,0.0,0.0,6.06140851844,-0.0202336396105,7.44114300934,0.0,0.0,0.0,0.0,0.0,0.0,0.0,0.0,0.0
30120000000,197,30120000000,imu_link,0.000130562195867,-0.368337178952,0.00140462032636,0.929691202818,0.0,0.0,0.0,0.0,0.0,0.0,0.0,0.0,0.0,0.00160768474971,-0.0175174645397,0.00215680260878,0.0,0.0,0.0,0.0,0.0,0.0,0.0,0.0,0.0,6.06505326011,-0.0202876170708,7.43823397999,0.0,0.0,0.0,0.0,0.0,0.0,0.0,0.0,0.0
30124000000,198,30124000000,imu_link,0.000131162951312,-0.368369242568,0.00140963685946,0.929678491119,0.0,0.0,0.0,0.0,0.0,0.0,0.0,0.0,0.0,0.00118145758195,-0.0172458212501,0.00223229376864,0.0,0.0,0.0,0.0,0.0,0.0,0.0,0.0,0.0,6.0682044087,-0.0204119191151,7.43381290847,0.0,0.0,0.0,0.0,0.0,0.0,0.0,0.0,0.0
30128000000,199,30128000000,imu_link,0.000131165999342,-0.368400282157,0.00141448758017,0.929666184244,0.0,0.0,0.0,0.0,0.0,0.0,0.0,0.0,0.0,0.000873774829162,-0.016694840185,0.0022649536874,0.0,0.0,0.0,0.0,0.0,0.0,0.0,0.0,0.0,6.07098023036,-0.020576867416,7.42911959557,0.0,0.0,0.0,0.0,0.0,0.0,0.0,0.0,0.0
30132000000,200,30132000000,imu_link,0.00013070587623,-0.368430015785,0.00141919396738,0.929654393994,0.0,0.0,0.0,0.0,0.0,0.0,0.0,0.0,0.0,0.000632781056809,-0.0159923060075,0.0022827278682,0.0,0.0,0.0,0.0,0.0,0.0,0.0,0.0,0.0,6.07257454966,-0.0206742491621,7.4231660473,0.0,0.0,0.0,0.0,0.0,0.0,0.0,0.0,0.0
30136000000,201,30136000000,imu_link,0.000129988889828,-0.368458266521,0.00142380899445,0.929643190532,0.0,0.0,0.0,0.0,0.0,0.0,0.0,0.0,0.0,0.000497568011241,-0.0151947458963,0.00228706596544,0.0,0.0,0.0,0.0,0.0,0.0,0.0,0.0,0.0,6.07381234745,-0.0207431927565,7.41732665131,0.0,0.0,0.0,0.0,0.0,0.0,0.0,0.0,0.0
30140000000,202,30140000000,imu_link,0.000129117789753,-0.368484748651,0.00142834960362,0.929632687225,0.0,0.0,0.0,0.0,0.0,0.0,0.0,0.0,0.0,0.000413436274478,-0.0142435655967,0.00228025375229,0.0,0.0,0.0,0.0,0.0,0.0,0.0,0.0,0.0,6.07535738621,-0.0208075535813,7.41155094601,0.0,0.0,0.0,0.0,0.0,0.0,0.0,0.0,0.0
30144000000,203,30144000000,imu_link,0.000128066901645,-0.368509115133,0.00143278906449,0.929623021863,0.0,0.0,0.0,0.0,0.0,0.0,0.0,0.0,0.0,0.000312688901024,-0.013105671405,0.00226562792194,0.0,0.0,0.0,0.0,0.0,0.0,0.0,0.0,0.0,6.07784731513,-0.0208708233405,7.40773027065,0.0,0.0,0.0,0.0,0.0,0.0,0.0,0.0,0.0
30148000000,204,30148000000,imu_link,0.000126703599636,-0.368531424667,0.0014370444296,0.929614171516,0.0,0.0,0.0,0.0,0.0,0.0,0.0,0.0,0.0,0.000134976238866,-0.0119991956915,0.00223690619016,0.0,0.0,0.0,0.0,0.0,0.0,0.0,0.0,0.0,6.07959961282,-0.0209411405701,7.40539186828,0.0,0.0,0.0,0.0,0.0,0.0,0.0,0.0,0.0
30152000000,205,30152000000,imu_link,0.000124805397071,-0.36855204948,0.0014410039368,0.929605988984,0.0,0.0,0.0,0.0,0.0,0.0,0.0,0.0,0.0,-0.000166997595611,-0.0110927045581,0.00219736660235,0.0,0.0,0.0,0.0,0.0,0.0,0.0,0.0,0.0,6.08151106999,-0.0209619373053,7.40568836039,0.0,0.0,0.0,0.0,0.0,0.0,0.0,0.0,0.0
30156000000,206,30156000000,imu_link,0.000122150201663,-0.368571278343,0.00144460573817,0.929598360032,0.0,0.0,0.0,0.0,0.0,0.0,0.0,0.0,0.0,-0.000583795504958,-0.01034132805,0.00217011352478,0.0,0.0,0.0,0.0,0.0,0.0,0.0,0.0,0.0,6.08382720925,-0.020957269736,7.40631172534,0.0,0.0,0.0,0.0,0.0,0.0,0.0,0.0,0.0
30160000000,207,30160000000,imu_link,0.00011871720494,-0.368589106578,0.00144786566492,0.92959128659,0.0,0.0,0.0,0.0,0.0,0.0,0.0,0.0,0.0,-0.00100734175035,-0.00958740413984,0.00215406130684,0.0,0.0,0.0,0.0,0.0,0.0,0.0,0.0,0.0,6.08505943512,-0.0209580945261,7.40233719071,0.0,0.0,0.0,0.0,0.0,0.0,0.0,0.0,0.0
30164000000,208,30164000000,imu_link,0.000114609160914,-0.368605500517,0.00145083605476,0.929584782001,0.0,0.0,0.0,0.0,0.0,0.0,0.0,0.0,0.0,-0.00137345630537,-0.00881544146701,0.00214339640152,0.0,0.0,0.0,0.0,0.0,0.0,0.0,0.0,0.0,6.08761126838,-0.0210118612508,7.40044391009,0.0,0.0,0.0,0.0,0.0,0.0,0.0,0.0,0.0
30168000000,209,30168000000,imu_link,0.000110163892685,-0.368620605924,0.00145360060344,0.929578788375,0.0,0.0,0.0,0.0,0.0,0.0,0.0,0.0,0.0,-0.00156722719714,-0.00812213707915,0.00210942984293,0.0,0.0,0.0,0.0,0.0,0.0,0.0,0.0,0.0,6.09013698936,-0.0210882492419,7.40000134738,0.0,0.0,0.0,0.0,0.0,0.0,0.0,0.0,0.0
30172000000,210,30172000000,imu_link,0.000105857511399,-0.368634957713,0.00145627872773,0.929573093414,0.0,0.0,0.0,0.0,0.0,0.0,0.0,0.0,0.0,-0.00151807164472,-0.00771692188118,0.00204340383176,0.0,0.0,0.0,0.0,0.0,0.0,0.0,0.0,0.0,6.09239313736,-0.0211428099607,7.40173288616,0.0,0.0,0.0,0.0,0.0,0.0,0.0,0.0,0.0
30176000000,211,30176000000,imu_link,0.000102166440992,-0.368649214666,0.00145896090728,0.929567435704,0.0,0.0,0.0,0.0,0.0,0.0,0.0,0.0,0.0,-0.00123126888855,-0.00766642501247,0.00193184396684,0.0,0.0,0.0,0.0,0.0,0.0,0.0,0.0,0.0,6.09619620708,-0.0211202447337,7.40759036244,0.0,0.0,0.0,0.0,0.0,0.0,0.0,0.0,0.0
30180000000,212,30180000000,imu_link,9.93501792511e-05,-0.368663982622,0.00146167755849,0.929561574908,0.0,0.0,0.0,0.0,0.0,0.0,0.0,0.0,0.0,-0.000818680482178,-0.00794200156917,0.00178679132015,0.0,0.0,0.0,0.0,0.0,0.0,0.0,0.0,0.0,6.10019856682,-0.0210054804204,7.41343525011,0.0,0.0,0.0,0.0,0.0,0.0,0.0,0.0,0.0
30184000000,213,30184000000,imu_link,9.74417862451e-05,-0.368679722479,0.00146444619895,0.929555328173,0.0,0.0,0.0,0.0,0.0,0.0,0.0,0.0,0.0,-0.000387828386384,-0.00846552359374,0.00164393600825,0.0,0.0,0.0,0.0,0.0,0.0,0.0,0.0,0.0,6.10346551656,-0.0208198072333,7.41630609806,0.0,0.0,0.0,0.0,0.0,0.0,0.0,0.0,0.0
30188000000,214,30188000000,imu_link,9.66176246635e-05,-0.368696613972,0.00146731427106,0.929548624064,0.0,0.0,0.0,0.0,0.0,0.0,0.0,0.0,0.0,0.000133606409897,-0.00908588032534,0.00149067356355,0.0,0.0,0.0,0.0,0.0,0.0,0.0,0.0,0.0,6.10580100483,-0.0206999625944,7.414961781,0.0,0.0,0.0,0.0,0.0,0.0,0.0,0.0,0.0
30192000000,215,30192000000,imu_link,9.73068020666e-05,-0.368714767331,0.0014703264991,0.92954141867,0.0,0.0,0.0,0.0,0.0,0.0,0.0,0.0,0.0,0.000862640834591,-0.0097658769523,0.00127912077989,0.0,0.0,0.0,0.0,0.0,0.0,0.0,0.0,0.0,6.10922787696,-0.020654294211,7.41582818851,0.0,0.0,0.0,0.0,0.0,0.0,0.0,0.0,0.0
30196000000,216,30196000000,imu_link,0.000100061316332,-0.368734194967,0.00147354075878,0.929533706827,0.0,0.0,0.0,0.0,0.0,0.0,0.0,0.0,0.0,0.00185888277774,-0.0104530003689,0.000992693393985,0.0,0.0,0.0,0.0,0.0,0.0,0.0,0.0,0.0,6.11231889671,-0.0205487557697,7.41530902021,0.0,0.0,0.0,0.0,0.0,0.0,0.0,0.0,0.0
30200000000,217,30200000000,imu_link,0.00010505869667,-0.368754801767,0.00147697417163,0.929525526107,0.0,0.0,0.0,0.0,0.0,0.0,0.0,0.0,0.0,0.0029408519058,-0.011089123198,0.000681442265513,0.0,0.0,0.0,0.0,0.0,0.0,0.0,0.0,0.0,6.11412997043,-0.0202430361716,7.41131014075,0.0,0.0,0.0,0.0,0.0,0.0,0.0,0.0,0.0
30204000000,218,30204000000,imu_link,0.000111896055143,-0.36877652586,0.00148057911764,0.929516901051,0.0,0.0,0.0,0.0,0.0,0.0,0.0,0.0,0.0,0.00382683029908,-0.0116916749382,0.000422300929092,0.0,0.0,0.0,0.0,0.0,0.0,0.0,0.0,0.0,6.11577664875,-0.0197913229473,7.40732772759,0.0,0.0,0.0,0.0,0.0,0.0,0.0,0.0,0.0
30208000000,219,30208000000,imu_link,0.000119766343131,-0.368799441322,0.00148424040144,0.929507802424,0.0,0.0,0.0,0.0,0.0,0.0,0.0,0.0,0.0,0.00431642558493,-0.0123334560068,0.000258441548722,0.0,0.0,0.0,0.0,0.0,0.0,0.0,0.0,0.0,6.12065794075,-0.0193703467185,7.41162114919,0.0,0.0,0.0,0.0,0.0,0.0,0.0,0.0,0.0
30212000000,220,30212000000,imu_link,0.000127875519906,-0.368823590875,0.00148784953986,0.929498213428,0.0,0.0,0.0,0.0,0.0,0.0,0.0,0.0,0.0,0.00441694800727,-0.0129976087572,0.000190593564418,0.0,0.0,0.0,0.0,0.0,0.0,0.0,0.0,0.0,6.12304103693,-0.0190919051122,7.40983681426,0.0,0.0,0.0,0.0,0.0,0.0,0.0,0.0,0.0
30216000000,221,30216000000,imu_link,0.000135524056897,-0.368848686386,0.00149134487234,0.929488248487,0.0,0.0,0.0,0.0,0.0,0.0,0.0,0.0,0.0,0.00418119923879,-0.0135062356589,0.000222989929518,0.0,0.0,0.0,0.0,0.0,0.0,0.0,0.0,0.0,6.12602129716,-0.0189571120884,7.40704438306,0.0,0.0,0.0,0.0,0.0,0.0,0.0,0.0,0.0
30220000000,222,30220000000,imu_link,0.000142480134032,-0.368874413096,0.0014947278565,0.929478032474,0.0,0.0,0.0,0.0,0.0,0.0,0.0,0.0,0.0,0.00383820916791,-0.0138453767664,0.00029871314536,0.0,0.0,0.0,0.0,0.0,0.0,0.0,0.0,0.0,6.1269328198,-0.0189972123963,7.39960602276,0.0,0.0,0.0,0.0,0.0,0.0,0.0,0.0,0.0
30224000000,223,30224000000,imu_link,0.000148778866212,-0.368900479701,0.00149802428861,0.929467680914,0.0,0.0,0.0,0.0,0.0,0.0,0.0,0.0,0.0,0.00351650753471,-0.0140278536132,0.00037985341977,0.0,0.0,0.0,0.0,0.0,0.0,0.0,0.0,0.0,6.12910439729,-0.0191063529652,7.39495394031,0.0,0.0,0.0,0.0,0.0,0.0,0.0,0.0,0.0
30228000000,224,30228000000,imu_link,0.000154560802249,-0.368926656381,0.00150124770743,0.929457284967,0.0,0.0,0.0,0.0,0.0,0.0,0.0,0.0,0.0,0.00326278841263,-0.014086814752,0.000441286275578,0.0,0.0,0.0,0.0,0.0,0.0,0.0,0.0,0.0,6.13140616497,-0.0192034783134,7.39088374637,0.0,0.0,0.0,0.0,0.0,0.0,0.0,0.0,0.0
30232000000,225,30232000000,imu_link,0.000159920691478,-0.368952983799,0.00150440249477,0.929446828466,0.0,0.0,0.0,0.0,0.0,0.0,0.0,0.0,0.0,0.00305388271428,-0.0141677256152,0.000487300525963,0.0,0.0,0.0,0.0,0.0,0.0,0.0,0.0,0.0,6.13327831805,-0.0193117382942,7.38814178048,0.0,0.0,0.0,0.0,0.0,0.0,0.0,0.0,0.0
30236000000,226,30236000000,imu_link,0.000164764695018,-0.368979891907,0.00150746487567,0.929436140771,0.0,0.0,0.0,0.0,0.0,0.0,0.0,0.0,0.0,0.00279667342799,-0.014479855395,0.000539746205152,0.0,0.0,0.0,0.0,0.0,0.0,0.0,0.0,0.0,6.13626870229,-0.0194093944462,7.39104317701,0.0,0.0,0.0,0.0,0.0,0.0,0.0,0.0,0.0
30240000000,227,30240000000,imu_link,0.000169000240544,-0.369007877652,0.00151043970849,0.92942502454,0.0,0.0,0.0,0.0,0.0,0.0,0.0,0.0,0.0,0.00249698330863,-0.0150592617278,0.000611727197525,0.0,0.0,0.0,0.0,0.0,0.0,0.0,0.0,0.0,6.13884379188,-0.0195356673342,7.39336923351,0.0,0.0,0.0,0.0,0.0,0.0,0.0,0.0,0.0
30244000000,228,30244000000,imu_link,0.000172716681324,-0.369037017891,0.00151334411511,0.929413449109,0.0,0.0,0.0,0.0,0.0,0.0,0.0,0.0,0.0,0.00224192183354,-0.0156801074806,0.000675220487293,0.0,0.0,0.0,0.0,0.0,0.0,0.0,0.0,0.0,6.14051855445,-0.0196567020341,7.39052246638,0.0,0.0,0.0,0.0,0.0,0.0,0.0,0.0,0.0
30248000000,229,30248000000,imu_link,0.000176086885664,-0.369066996712,0.0015162025131,0.929401539735,0.0,0.0,0.0,0.0,0.0,0.0,0.0,0.0,0.0,0.00207192829424,-0.0161311627316,0.000718052100159,0.0,0.0,0.0,0.0,0.0,0.0,0.0,0.0,0.0,6.14324109116,-0.0197513770645,7.38729876572,0.0,0.0,0.0,0.0,0.0,0.0,0.0,0.0,0.0
30252000000,230,30252000000,imu_link,0.000179408246576,-0.369097226071,0.00151906326236,0.929389529727,0.0,0.0,0.0,0.0,0.0,0.0,0.0,0.0,0.0,0.00204948352888,-0.0162661212881,0.000728256331816,0.0,0.0,0.0,0.0,0.0,0.0,0.0,0.0,0.0,6.14568132604,-0.019819034458,7.38155498223,0.0,0.0,0.0,0.0,0.0,0.0,0.0,0.0,0.0
30256000000,231,30256000000,imu_link,0.000182946947663,-0.36912722588,0.00152197265562,0.92937760961,0.0,0.0,0.0,0.0,0.0,0.0,0.0,0.0,0.0,0.0021596238417,-0.0161430219252,0.000710662252348,0.0,0.0,0.0,0.0,0.0,0.0,0.0,0.0,0.0,6.14795354391,-0.01987445665,7.37613659614,0.0,0.0,0.0,0.0,0.0,0.0,0.0,0.0,0.0
30260000000,232,30260000000,imu_link,0.00018671008512,-0.369156946894,0.00152494402197,0.929365798943,0.0,0.0,0.0,0.0,0.0,0.0,0.0,0.0,0.0,0.0022755570353,-0.0159934339736,0.000697928875638,0.0,0.0,0.0,0.0,0.0,0.0,0.0,0.0,0.0,6.14928754626,-0.0198344126807,7.37245735598,0.0,0.0,0.0,0.0,0.0,0.0,0.0,0.0,0.0
30264000000,233,30264000000,imu_link,0.000190638190559,-0.369186725688,0.00152802346236,0.929353963987,0.0,0.0,0.0,0.0,0.0,0.0,0.0,0.0,0.0,0.00237212118816,-0.0160248818561,0.000717723406057,0.0,0.0,0.0,0.0,0.0,0.0,0.0,0.0,0.0,6.15190262245,-0.0197860260694,7.37466522461,0.0,0.0,0.0,0.0,0.0,0.0,0.0,0.0,0.0
30268000000,234,30268000000,imu_link,0.000194675887028,-0.36921704658,0.00153124207813,0.929341912276,0.0,0.0,0.0,0.0,0.0,0.0,0.0,0.0,0.0,0.00244834296035,-0.0163168648156,0.000762382502978,0.0,0.0,0.0,0.0,0.0,0.0,0.0,0.0,0.0,6.1555949477,-0.0197276137832,7.37992216775,0.0,0.0,0.0,0.0,0.0,0.0,0.0,0.0,0.0
30272000000,235,30272000000,imu_link,0.000198955460095,-0.369248138373,0.00153466441444,0.929329552705,0.0,0.0,0.0,0.0,0.0,0.0,0.0,0.0,0.0,0.00259778428696,-0.0167320786234,0.000812703780123,0.0,0.0,0.0,0.0,0.0,0.0,0.0,0.0,0.0,6.15689969485,-0.01969573358,7.37793831145,0.0,0.0,0.0,0.0,0.0,0.0,0.0,0.0,0.0
30276000000,236,30276000000,imu_link,0.000203702142661,-0.36928005619,0.00153836617855,0.929316863096,0.0,0.0,0.0,0.0,0.0,0.0,0.0,0.0,0.0,0.0028658217127,-0.0171771665699,0.00085663980059,0.0,0.0,0.0,0.0,0.0,0.0,0.0,0.0,0.0,6.15885441939,-0.0196461199997,7.3758820987,0.0,0.0,0.0,0.0,0.0,0.0,0.0,0.0,0.0
30280000000,237,30280000000,imu_link,0.000209077672659,-0.369312600154,0.0015423911041,0.929303922667,0.0,0.0,0.0,0.0,0.0,0.0,0.0,0.0,0.0,0.0032172334353,-0.0175148734559,0.000890945778629,0.0,0.0,0.0,0.0,0.0,0.0,0.0,0.0,0.0,6.16096963399,-0.019628146019,7.37243022704,0.0,0.0,0.0,0.0,0.0,0.0,0.0,0.0,0.0
30284000000,238,30284000000,imu_link,0.000215008436358,-0.369345521337,0.0015467577648,0.929290830246,0.0,0.0,0.0,0.0,0.0,0.0,0.0,0.0,0.0,0.00353805239309,-0.0177186072504,0.000947362938695,0.0,0.0,0.0,0.0,0.0,0.0,0.0,0.0,0.0,6.16320320355,-0.0196323785571,7.36915418341,0.0,0.0,0.0,0.0,0.0,0.0,0.0,0.0,0.0
30288000000,239,30288000000,imu_link,0.000220918519561,-0.369378604784,0.00155141746486,0.929277671434,0.0,0.0,0.0,0.0,0.0,0.0,0.0,0.0,0.0,0.00358244132707,-0.0178062160988,0.00108741024294,0.0,0.0,0.0,0.0,0.0,0.0,0.0,0.0,0.0,6.16610837942,-0.0195614798224,7.36764980042,0.0,0.0,0.0,0.0,0.0,0.0,0.0,0.0,0.0
30292000000,240,30292000000,imu_link,0.000226125432744,-0.36941166851,0.00155627139746,0.929264518883,0.0,0.0,0.0,0.0,0.0,0.0,0.0,0.0,0.0,0.00329160850693,-0.017795329516,0.00130751917306,0.0,0.0,0.0,0.0,0.0,0.0,0.0,0.0,0.0,6.16890850409,-0.019492609298,7.36625329874,0.0,0.0,0.0,0.0,0.0,0.0,0.0,0.0,0.0
30296000000,241,30296000000,imu_link,0.000230174149133,-0.369444715747,0.00156120494985,0.929251371624,0.0,0.0,0.0,0.0,0.0,0.0,0.0,0.0,0.0,0.00276819138633,-0.0177857802258,0.00155843281984,0.0,0.0,0.0,0.0,0.0,0.0,0.0,0.0,0.0,6.17120557377,-0.019505377075,7.36518706894,0.0,0.0,0.0,0.0,0.0,0.0,0.0,0.0,0.0
30300000000,242,30300000000,imu_link,0.000233005508568,-0.369477752993,0.00156614029566,0.929238227236,0.0,0.0,0.0,0.0,0.0,0.0,0.0,0.0,0.0,0.00220291482792,-0.0177796579281,0.00178413574246,0.0,0.0,0.0,0.0,0.0,0.0,0.0,0.0,0.0,6.1729813962,-0.019646049484,7.36294399938,0.0,0.0,0.0,0.0,0.0,0.0,0.0,0.0,0.0
30304000000,243,30304000000,imu_link,0.00023502223795,-0.36951055312,0.00157101078521,0.929225176059,0.0,0.0,0.0,0.0,0.0,0.0,0.0,0.0,0.0,0.00181261548586,-0.0176516372991,0.00190439551392,0.0,0.0,0.0,0.0,0.0,0.0,0.0,0.0,0.0,6.17719792658,-0.0198844777645,7.36435410402,0.0,0.0,0.0,0.0,0.0,0.0,0.0,0.0,0.0
30308000000,244,30308000000,imu_link,0.00023659095631,-0.369542978833,0.00157576761982,0.929212272722,0.0,0.0,0.0,0.0,0.0,0.0,0.0,0.0,0.0,0.00158374230437,-0.017450027502,0.00193420226738,0.0,0.0,0.0,0.0,0.0,0.0,0.0,0.0,0.0,6.17956650007,-0.0200538783381,7.36270187918,0.0,0.0,0.0,0.0,0.0,0.0,0.0,0.0,0.0
30312000000,245,30312000000,imu_link,0.000237834451892,-0.36957506166,0.0015803787993,0.929199504755,0.0,0.0,0.0,0.0,0.0,0.0,0.0,0.0,0.0,0.00140598303284,-0.0172654688041,0.00192647468231,0.0,0.0,0.0,0.0,0.0,0.0,0.0,0.0,0.0,6.18056374179,-0.0201145315389,7.35913610451,0.0,0.0,0.0,0.0,0.0,0.0,0.0,0.0,0.0
30316000000,246,30316000000,imu_link,0.000238770792971,-0.369606903499,0.00158483963232,0.929186831675,0.0,0.0,0.0,0.0,0.0,0.0,0.0,0.0,0.0,0.00123567611702,-0.0171357471584,0.00191327843761,0.0,0.0,0.0,0.0,0.0,0.0,0.0,0.0,0.0,6.18198119783,-0.0201555678291,7.35690367121,0.0,0.0,0.0,0.0,0.0,0.0,0.0,0.0,0.0
30320000000,247,30320000000,imu_link,0.000239486609313,-0.369638383033,0.00158919100924,0.929174301682,0.0,0.0,0.0,0.0,0.0,0.0,0.0,0.0,0.0,0.00111326392553,-0.016940817676,0.00190302294508,0.0,0.0,0.0,0.0,0.0,0.0,0.0,0.0,0.0,6.18332079759,-0.0201886211563,7.35243382086,0.0,0.0,0.0,0.0,0.0,0.0,0.0,0.0,0.0
30324000000,248,30324000000,imu_link,0.000240222335695,-0.369669160137,0.00159350232871,0.929162049961,0.0,0.0,0.0,0.0,0.0,0.0,0.0,0.0,0.0,0.00111563531683,-0.016563069061,0.00188042779358,0.0,0.0,0.0,0.0,0.0,0.0,0.0,0.0,0.0,6.18522335079,-0.0202887889343,7.34784373956,0.0,0.0,0.0,0.0,0.0,0.0,0.0,0.0,0.0
30328000000,249,30328000000,imu_link,0.000241246219418,-0.369698954215,0.00159783391439,0.929150188064,0.0,0.0,0.0,0.0,0.0,0.0,0.0,0.0,0.0,0.00125399004905,-0.0160345471463,0.00183615297552,0.0,0.0,0.0,0.0,0.0,0.0,0.0,0.0,0.0,6.18650394724,-0.0203955827701,7.34267941581,0.0,0.0,0.0,0.0,0.0,0.0,0.0,0.0,0.0
30332000000,250,30332000000,imu_link,0.000242839504176,-0.36972762399,0.00160219915695,0.929138772222,0.0,0.0,0.0,0.0,0.0,0.0,0.0,0.0,0.0,0.00152558546766,-0.0154302225103,0.00174604366998,0.0,0.0,0.0,0.0,0.0,0.0,0.0,0.0,0.0,6.18725223889,-0.0204763469147,7.33770268264,0.0,0.0,0.0,0.0,0.0,0.0,0.0,0.0,0.0
30336000000,251,30336000000,imu_link,0.000245181174264,-0.369755064281,0.0016065951495,0.929127844366,0.0,0.0,0.0,0.0,0.0,0.0,0.0,0.0,0.0,0.00187987262822,-0.0147694259224,0.00162143959397,0.0,0.0,0.0,0.0,0.0,0.0,0.0,0.0,0.0,6.18864500788,-0.0204122485484,7.33457911395,0.0,0.0,0.0,0.0,0.0,0.0,0.0,0.0,0.0
30340000000,252,30340000000,imu_link,0.000248465745703,-0.369781219471,0.00161106901605,0.929117426619,0.0,0.0,0.0,0.0,0.0,0.0,0.0,0.0,0.0,0.00233327751535,-0.0140788553905,0.00148272846294,0.0,0.0,0.0,0.0,0.0,0.0,0.0,0.0,0.0,6.19025787933,-0.0202851319262,7.33244504396,0.0,0.0,0.0,0.0,0.0,0.0,0.0,0.0,0.0
30344000000,253,30344000000,imu_link,0.00025265711927,-0.369806283419,0.00161567110547,0.929107441858,0.0,0.0,0.0,0.0,0.0,0.0,0.0,0.0,0.0,0.00277907279203,-0.0134925684535,0.00137415196074,0.0,0.0,0.0,0.0,0.0,0.0,0.0,0.0,0.0,6.19178066359,-0.0200963147189,7.33203332393,0.0,0.0,0.0,0.0,0.0,0.0,0.0,0.0,0.0
30348000000,254,30348000000,imu_link,0.000257446049742,-0.369830639436,0.00162043810422,0.929097737612,0.0,0.0,0.0,0.0,0.0,0.0,0.0,0.0,0.0,0.00308769878281,-0.0131122901535,0.00133995501136,0.0,0.0,0.0,0.0,0.0,0.0,0.0,0.0,0.0,6.19544911274,-0.0199217309444,7.33744442269,0.0,0.0,0.0,0.0,0.0,0.0,0.0,0.0,0.0
30352000000,255,30352000000,imu_link,0.000262248604537,-0.36985473496,0.00162528701301,0.929088136129,0.0,0.0,0.0,0.0,0.0,0.0,0.0,0.0,0.0,0.00310937219681,-0.0129722769866,0.00137537009186,0.0,0.0,0.0,0.0,0.0,0.0,0.0,0.0,0.0,6.19840232341,-0.0197393851791,7.34150533366,0.0,0.0,0.0,0.0,0.0,0.0,0.0,0.0,0.0
30356000000,256,30356000000,imu_link,0.000266724103279,-0.369878797651,0.00163013345203,0.929078547041,0.0,0.0,0.0,0.0,0.0,0.0,0.0,0.0,0.0,0.00295700857632,-0.0129544666603,0.00143469001272,0.0,0.0,0.0,0.0,0.0,0.0,0.0,0.0,0.0,6.20047445733,-0.0196788816482,7.34167560747,0.0,0.0,0.0,0.0,0.0,0.0,0.0,0.0,0.0
30360000000,257,30360000000,imu_link,0.000270820599786,-0.369902839077,0.00163494878491,0.929068965815,0.0,0.0,0.0,0.0,0.0,0.0,0.0,0.0,0.0,0.00277521068599,-0.0129428293484,0.00149032318988,0.0,0.0,0.0,0.0,0.0,0.0,0.0,0.0,0.0,6.20214306332,-0.0196964663542,7.33906267741,0.0,0.0,0.0,0.0,0.0,0.0,0.0,0.0,0.0
30364000000,258,30364000000,imu_link,0.000274758108766,-0.369926697788,0.00163974250801,0.929059456664,0.0,0.0,0.0,0.0,0.0,0.0,0.0,0.0,0.0,0.00269749834312,-0.0128444950272,0.00150960601193,0.0,0.0,0.0,0.0,0.0,0.0,0.0,0.0,0.0,6.20475157431,-0.0197588365967,7.33707549622,0.0,0.0,0.0,0.0,0.0,0.0,0.0,0.0,0.0
30368000000,259,30368000000,imu_link,0.000278885384113,-0.369950178113,0.00164458392907,0.929050097293,0.0,0.0,0.0,0.0,0.0,0.0,0.0,0.0,0.0,0.00279476248789,-0.0126411679863,0.00149648852359,0.0,0.0,0.0,0.0,0.0,0.0,0.0,0.0,0.0,6.20742114911,-0.0198164851451,7.33486511119,0.0,0.0,0.0,0.0,0.0,0.0,0.0,0.0,0.0
30372000000,260,30372000000,imu_link,0.000283465286149,-0.369973174001,0.00164952432125,0.929040929796,0.0,0.0,0.0,0.0,0.0,0.0,0.0,0.0,0.0,0.00302369770683,-0.0123810019418,0.00145851309932,0.0,0.0,0.0,0.0,0.0,0.0,0.0,0.0,0.0,6.20852801172,-0.0198818941281,7.33068115208,0.0,0.0,0.0,0.0,0.0,0.0,0.0,0.0,0.0
30376000000,261,30376000000,imu_link,0.000288472044268,-0.369995769959,0.00165456528107,0.929031920555,0.0,0.0,0.0,0.0,0.0,0.0,0.0,0.0,0.0,0.00324089217284,-0.0121662886156,0.00142607896526,0.0,0.0,0.0,0.0,0.0,0.0,0.0,0.0,0.0,6.21000891399,-0.0199512791427,7.32889330205,0.0,0.0,0.0,0.0,0.0,0.0,0.0,0.0,0.0
30380000000,262,30380000000,imu_link,0.000293712127505,-0.370018144655,0.00165967219244,0.929022998557,0.0,0.0,0.0,0.0,0.0,0.0,0.0,0.0,0.0,0.00336164677777,-0.0120475521505,0.00141344577722,0.0,0.0,0.0,0.0,0.0,0.0,0.0,0.0,0.0,6.21197115053,-0.0199656620907,7.32873861993,0.0,0.0,0.0,0.0,0.0,0.0,0.0,0.0,0.0
30384000000,263,30384000000,imu_link,0.000299015465996,-0.370040268593,0.00166479653693,0.929014175706,0.0,0.0,0.0,0.0,0.0,0.0,0.0,0.0,0.0,0.00339444838123,-0.0119127797261,0.00140972176133,0.0,0.0,0.0,0.0,0.0,0.0,0.0,0.0,0.0,6.21457541287,-0.0199498385405,7.32857600029,0.0,0.0,0.0,0.0,0.0,0.0,0.0,0.0,0.0
30388000000,264,30388000000,imu_link,0.000304329094278,-0.370061971084,0.00166987833674,0.929005520138,0.0,0.0,0.0,0.0,0.0,0.0,0.0,0.0,0.0,0.00339168224132,-0.0116860786664,0.00138785338174,0.0,0.0,0.0,0.0,0.0,0.0,0.0,0.0,0.0,6.21763637305,-0.0199289855944,7.3284508341,0.0,0.0,0.0,0.0,0.0,0.0,0.0,0.0,0.0
30392000000,265,30392000000,imu_link,0.000309644041182,-0.370083096289,0.00167485929395,0.928997094079,0.0,0.0,0.0,0.0,0.0,0.0,0.0,0.0,0.0,0.00337408281527,-0.0113754777007,0.00134048826292,0.0,0.0,0.0,0.0,0.0,0.0,0.0,0.0,0.0,6.21906125806,-0.0199206749566,7.32479567686,0.0,0.0,0.0,0.0,0.0,0.0,0.0,0.0,0.0
30396000000,266,30396000000,imu_link,0.000314888559896,-0.370103725101,0.00167968065978,0.928988865479,0.0,0.0,0.0,0.0,0.0,0.0,0.0,0.0,0.0,0.00331222311144,-0.0111083312447,0.00127914822867,0.0,0.0,0.0,0.0,0.0,0.0,0.0,0.0,0.0,6.22141852109,-0.0199159011266,7.32505405943,0.0,0.0,0.0,0.0,0.0,0.0,0.0,0.0,0.0
30400000000,267,30400000000,imu_link,0.000319961936218,-0.370124010519,0.00168431648002,0.928980773504,0.0,0.0,0.0,0.0,0.0,0.0,0.0,0.0,0.0,0.00319865975015,-0.0109234299304,0.00122446474546,0.0,0.0,0.0,0.0,0.0,0.0,0.0,0.0,0.0,6.22305221319,-0.0199051721493,7.32434602743,0.0,0.0,0.0,0.0,0.0,0.0,0.0,0.0,0.0
30404000000,268,30404000000,imu_link,0.000324684523234,-0.370144320339,0.00168874785619,0.928972671736,0.0,0.0,0.0,0.0,0.0,0.0,0.0,0.0,0.0,0.00299786767699,-0.0109363137159,0.00119443236347,0.0,0.0,0.0,0.0,0.0,0.0,0.0,0.0,0.0,6.22630734672,-0.0198884514039,7.32854028321,0.0,0.0,0.0,0.0,0.0,0.0,0.0,0.0,0.0
30408000000,269,30408000000,imu_link,0.000328924305126,-0.370165222138,0.0016929626473,0.928964334087,0.0,0.0,0.0,0.0,0.0,0.0,0.0,0.0,0.0,0.00273306587041,-0.0112545622831,0.00118348062362,0.0,0.0,0.0,0.0,0.0,0.0,0.0,0.0,0.0,6.22981984744,-0.0199070671835,7.33485442668,0.0,0.0,0.0,0.0,0.0,0.0,0.0,0.0,0.0
30412000000,270,30412000000,imu_link,0.000332578984432,-0.370187061737,0.00169691955287,0.928955622825,0.0,0.0,0.0,0.0,0.0,0.0,0.0,0.0,0.0,0.00241283364111,-0.0117588505141,0.00117246019858,0.0,0.0,0.0,0.0,0.0,0.0,0.0,0.0,0.0,6.2315190366,-0.0199238822964,7.33506081569,0.0,0.0,0.0,0.0,0.0,0.0,0.0,0.0,0.0
30416000000,271,30416000000,imu_link,0.000335736055852,-0.37021005878,0.00170064443294,0.928946450269,0.0,0.0,0.0,0.0,0.0,0.0,0.0,0.0,0.0,0.00213785406224,-0.0123814559397,0.0011573773575,0.0,0.0,0.0,0.0,0.0,0.0,0.0,0.0,0.0,6.23332817414,-0.0200401448497,7.33449303355,0.0,0.0,0.0,0.0,0.0,0.0,0.0,0.0,0.0
30420000000,272,30420000000,imu_link,0.000338320570079,-0.370234063521,0.00170414939268,0.928936876016,0.0,0.0,0.0,0.0,0.0,0.0,0.0,0.0,0.0,0.00183041878018,-0.0129234114296,0.00116172420078,0.0,0.0,0.0,0.0,0.0,0.0,0.0,0.0,0.0,6.23567998714,-0.0201583010931,7.33219505413,0.0,0.0,0.0,0.0,0.0,0.0,0.0,0.0,0.0
30424000000,273,30424000000,imu_link,0.000340330936231,-0.370258684565,0.00170746579996,0.928927055931,0.0,0.0,0.0,0.0,0.0,0.0,0.0,0.0,0.0,0.00152835729835,-0.0132547148242,0.00118074584237,0.0,0.0,0.0,0.0,0.0,0.0,0.0,0.0,0.0,6.23789332485,-0.0202936121612,7.32773849451,0.0,0.0,0.0,0.0,0.0,0.0,0.0,0.0,0.0
30428000000,274,30428000000,imu_link,0.000341769585837,-0.37028358168,0.00171062381254,0.928917125527,0.0,0.0,0.0,0.0,0.0,0.0,0.0,0.0,0.0,0.00123327538938,-0.0134029019257,0.00121315995187,0.0,0.0,0.0,0.0,0.0,0.0,0.0,0.0,0.0,6.23992151211,-0.0203579543969,7.32361921965,0.0,0.0,0.0,0.0,0.0,0.0,0.0,0.0,0.0
30432000000,275,30432000000,imu_link,0.000342686355218,-0.370308633698,0.00171362309775,0.928907133071,0.0,0.0,0.0,0.0,0.0,0.0,0.0,0.0,0.0,0.000961374693967,-0.0134859169905,0.00123613904792,0.0,0.0,0.0,0.0,0.0,0.0,0.0,0.0,0.0,6.2410006239,-0.0203827781217,7.31961816593,0.0,0.0,0.0,0.0,0.0,0.0,0.0,0.0,0.0
30436000000,276,30436000000,imu_link,0.000343260137816,-0.370333767686,0.00171644852446,0.92889710759,0.0,0.0,0.0,0.0,0.0,0.0,0.0,0.0,0.0,0.000769818033293,-0.0135298388547,0.00121893767238,0.0,0.0,0.0,0.0,0.0,0.0,0.0,0.0,0.0,6.24314399651,-0.0204141123141,7.31849549186,0.0,0.0,0.0,0.0,0.0,0.0,0.0,0.0,0.0
30440000000,277,30440000000,imu_link,0.000343502109604,-0.370358876686,0.00171907409324,0.928887091766,0.0,0.0,0.0,0.0,0.0,0.0,0.0,0.0,0.0,0.000578721699567,-0.0135161947834,0.00118754174408,0.0,0.0,0.0,0.0,0.0,0.0,0.0,0.0,0.0,6.24407475234,-0.020431070296,7.31414726122,0.0,0.0,0.0,0.0,0.0,0.0,0.0,0.0,0.0
30444000000,278,30444000000,imu_link,0.000343349300955,-0.370383811739,0.00172149872179,0.928877145028,0.0,0.0,0.0,0.0,0.0,0.0,0.0,0.0,0.0,0.000358296124682,-0.0134223080475,0.00116723231527,0.0,0.0,0.0,0.0,0.0,0.0,0.0,0.0,0.0,6.24464348957,-0.0204292501434,7.30894624263,0.0,0.0,0.0,0.0,0.0,0.0,0.0,0.0,0.0
30448000000,279,30448000000,imu_link,0.000342673611447,-0.370408292463,0.00172373038555,0.928867379233,0.0,0.0,0.0,0.0,0.0,0.0,0.0,0.0,0.0,8.00745659206e-05,-0.0131773740375,0.00117421157987,0.0,0.0,0.0,0.0,0.0,0.0,0.0,0.0,0.0,6.24652466031,-0.0204225336574,7.3055290185,0.0,0.0,0.0,0.0,0.0,0.0,0.0,0.0,0.0
30452000000,280,30452000000,imu_link,0.000341366098569,-0.370432191168,0.00172579307943,0.928857845342,0.0,0.0,0.0,0.0,0.0,0.0,0.0,0.0,0.0,-0.00024419752758,-0.0128635996251,0.0012124529916,0.0,0.0,0.0,0.0,0.0,0.0,0.0,0.0,0.0,6.24787277025,-0.0204112855301,7.30210572483,0.0,0.0,0.0,0.0,0.0,0.0,0.0,0.0,0.0
30456000000,281,30456000000,imu_link,0.000339278240441,-0.370455511303,0.00172768490579,0.928848542089,0.0,0.0,0.0,0.0,0.0,0.0,0.0,0.0,0.0,-0.00063779996566,-0.012551533046,0.0012773319057,0.0,0.0,0.0,0.0,0.0,0.0,0.0,0.0,0.0,6.24914844443,-0.0203940439775,7.29965432387,0.0,0.0,0.0,0.0,0.0,0.0,0.0,0.0,0.0
30460000000,282,30460000000,imu_link,0.000336510952965,-0.370478377551,0.00172937706504,0.928839419805,0.0,0.0,0.0,0.0,0.0,0.0,0.0,0.0,0.0,-0.000989965947487,-0.0123066627913,0.00131021750223,0.0,0.0,0.0,0.0,0.0,0.0,0.0,0.0,0.0,6.25097784882,-0.0204303459706,7.29932648384,0.0,0.0,0.0,0.0,0.0,0.0,0.0,0.0,0.0
30464000000,283,30464000000,imu_link,0.000333011703905,-0.370500878331,0.00173080127404,0.9288304434,0.0,0.0,0.0,0.0,0.0,0.0,0.0,0.0,0.0,-0.00137924675149,-0.0121093224784,0.00132117646253,0.0,0.0,0.0,0.0,0.0,0.0,0.0,0.0,0.0,6.25335997057,-0.0204777693641,7.29997729698,0.0,0.0,0.0,0.0,0.0,0.0,0.0,0.0,0.0
30468000000,284,30468000000,imu_link,0.000328752510524,-0.370523110181,0.00173190943276,0.928821574487,0.0,0.0,0.0,0.0,0.0,0.0,0.0,0.0,0.0,-0.00179051008105,-0.0119639091524,0.0013150401168,0.0,0.0,0.0,0.0,0.0,0.0,0.0,0.0,0.0,6.25541820027,-0.0205938187198,7.29986109424,0.0,0.0,0.0,0.0,0.0,0.0,0.0,0.0,0.0
30472000000,285,30472000000,imu_link,0.000323916712467,-0.370545189269,0.0017326795697,0.928812766713,0.0,0.0,0.0,0.0,0.0,0.0,0.0,0.0,0.0,-0.00212079171658,-0.0118811943264,0.00126480378429,0.0,0.0,0.0,0.0,0.0,0.0,0.0,0.0,0.0,6.25676512841,-0.0206578490988,7.2987452093,0.0,0.0,0.0,0.0,0.0,0.0,0.0,0.0,0.0
30476000000,286,30476000000,imu_link,0.000318686464299,-0.370567301046,0.00173310608617,0.928803946039,0.0,0.0,0.0,0.0,0.0,0.0,0.0,0.0,0.0,-0.00236766655488,-0.0118984794609,0.00117832150621,0.0,0.0,0.0,0.0,0.0,0.0,0.0,0.0,0.0,6.25827076478,-0.0206383845638,7.29833567213,0.0,0.0,0.0,0.0,0.0,0.0,0.0,0.0,0.0
30480000000,287,30480000000,imu_link,0.000313026036404,-0.370589600123,0.00173317661705,0.928795050802,0.0,0.0,0.0,0.0,0.0,0.0,0.0,0.0,0.0,-0.00263355160004,-0.0119989607261,0.00109280082797,0.0,0.0,0.0,0.0,0.0,0.0,0.0,0.0,0.0,6.25942392906,-0.0205460762296,7.29688403416,0.0,0.0,0.0,0.0,0.0,0.0,0.0,0.0,0.0
30484000000,288,30484000000,imu_link,0.000306916349724,-0.370612046932,0.00173290776833,0.928786096742,0.0,0.0,0.0,0.0,0.0,0.0,0.0,0.0,0.0,-0.00290519036298,-0.0120781307574,0.00101851318978,0.0,0.0,0.0,0.0,0.0,0.0,0.0,0.0,0.0,6.26073258991,-0.0204711801051,7.29386235163,0.0,0.0,0.0,0.0,0.0,0.0,0.0,0.0,0.0
30488000000,289,30488000000,imu_link,0.000300680161393,-0.370634414541,0.00173232612849,0.928777174243,0.0,0.0,0.0,0.0,0.0,0.0,0.0,0.0,0.0,-0.00302183514666,-0.0120354412594,0.00089665719221,0.0,0.0,0.0,0.0,0.0,0.0,0.0,0.0,0.0,6.26221380347,-0.0204661065911,7.28987978555,0.0,0.0,0.0,0.0,0.0,0.0,0.0,0.0,0.0
30492000000,290,30492000000,imu_link,0.00029482217969,-0.370656359877,0.00173147785905,0.928768419977,0.0,0.0,0.0,0.0,0.0,0.0,0.0,0.0,0.0,-0.00289527089304,-0.0118085329275,0.000702540048145,0.0,0.0,0.0,0.0,0.0,0.0,0.0,0.0,0.0,6.26450713278,-0.0204433952128,7.28679496535,0.0,0.0,0.0,0.0,0.0,0.0,0.0,0.0,0.0
30496000000,291,30496000000,imu_link,0.000289813962225,-0.370677753887,0.00173042712637,0.928759885225,0.0,0.0,0.0,0.0,0.0,0.0,0.0,0.0,0.0,-0.0025377309965,-0.0115125899235,0.000450762745524,0.0,0.0,0.0,0.0,0.0,0.0,0.0,0.0,0.0,6.26622152357,-0.0203350249735,7.28409612884,0.0,0.0,0.0,0.0,0.0,0.0,0.0,0.0,0.0
30500000000,292,30500000000,imu_link,0.000285877148715,-0.370698877779,0.00172926063633,0.928751457574,0.0,0.0,0.0,0.0,0.0,0.0,0.0,0.0,0.0,-0.00206142863898,-0.0113682456167,0.000198302732922,0.0,0.0,0.0,0.0,0.0,0.0,0.0,0.0,0.0,6.26776787993,-0.0201244205707,7.28429956779,0.0,0.0,0.0,0.0,0.0,0.0,0.0,0.0,0.0
30504000000,293,30504000000,imu_link,0.000282980209698,-0.370720066363,0.00172801731649,0.928743003351,0.0,0.0,0.0,0.0,0.0,0.0,0.0,0.0,0.0,-0.00159282866088,-0.0114041226155,-3.00830941417e-05,0.0,0.0,0.0,0.0,0.0,0.0,0.0,0.0,0.0,6.2693735049,-0.0198374672906,7.28492223215,0.0,0.0,0.0,0.0,0.0,0.0,0.0,0.0,0.0
30508000000,294,30508000000,imu_link,0.000281117376989,-0.370741557643,0.00172677610521,0.928734427409,0.0,0.0,0.0,0.0,0.0,0.0,0.0,0.0,0.0,-0.00111247262761,-0.0115681411081,-0.000220637920415,0.0,0.0,0.0,0.0,0.0,0.0,0.0,0.0,0.0,6.27210183585,-0.0196048162069,7.28733613898,0.0,0.0,0.0,0.0,0.0,0.0,0.0,0.0,0.0
30512000000,295,30512000000,imu_link,0.00028033292053,-0.370763352531,0.00172558160103,0.928725729266,0.0,0.0,0.0,0.0,0.0,0.0,0.0,0.0,0.0,-0.000603296876839,-0.0117327037189,-0.000398699938713,0.0,0.0,0.0,0.0,0.0,0.0,0.0,0.0,0.0,6.27288944949,-0.0194097830874,7.28362775404,0.0,0.0,0.0,0.0,0.0,0.0,0.0,0.0,0.0
30516000000,296,30516000000,imu_link,0.000280386500119,-0.370785251928,0.00172443030214,0.928716988472,0.0,0.0,0.0,0.0,0.0,0.0,0.0,0.0,0.0,-0.000206218777593,-0.0117898569839,-0.00053394208644,0.0,0.0,0.0,0.0,0.0,0.0,0.0,0.0,0.0,6.2735612983,-0.0191331056503,7.27831069193,0.0,0.0,0.0,0.0,0.0,0.0,0.0,0.0,0.0
30520000000,297,30520000000,imu_link,0.000280805298091,-0.370807070899,0.00172328908862,0.92870827906,0.0,0.0,0.0,0.0,0.0,0.0,0.0,0.0,0.0,-3.46918235621e-05,-0.0117470067951,-0.000597005990124,0.0,0.0,0.0,0.0,0.0,0.0,0.0,0.0,0.0,6.27547954676,-0.0188243726056,7.27615511944,0.0,0.0,0.0,0.0,0.0,0.0,0.0,0.0,0.0
30524000000,298,30524000000,imu_link,0.000281033787096,-0.370828849483,0.00172210077735,0.928699585324,0.0,0.0,0.0,0.0,0.0,0.0,0.0,0.0,0.0,-0.000131762069305,-0.0117251885247,-0.000583611244795,0.0,0.0,0.0,0.0,0.0,0.0,0.0,0.0,0.0,6.27757999524,-0.018529398546,7.27655127982,0.0,0.0,0.0,0.0,0.0,0.0,0.0,0.0,0.0
30528000000,299,30528000000,imu_link,0.000280678746148,-0.370850557112,0.00172083299703,0.928690919651,0.0,0.0,0.0,0.0,0.0,0.0,0.0,0.0,0.0,-0.000417401638796,-0.0116865463102,-0.000512351946984,0.0,0.0,0.0,0.0,0.0,0.0,0.0,0.0,0.0,6.279905681,-0.0183677976811,7.27668200462,0.0,0.0,0.0,0.0,0.0,0.0,0.0,0.0,0.0
30532000000,300,30532000000,imu_link,0.000279699940084,-0.370871976619,0.00171947382288,0.928682368809,0.0,0.0,0.0,0.0,0.0,0.0,0.0,0.0,0.0,-0.000723759074861,-0.0115309413801,-0.000439267674206,0.0,0.0,0.0,0.0,0.0,0.0,0.0,0.0,0.0,6.28084746041,-0.0183488277431,7.27198429993,0.0,0.0,0.0,0.0,0.0,0.0,0.0,0.0,0.0
30536000000,301,30536000000,imu_link,0.000278343885046,-0.370892910987,0.00171805808432,0.928674011363,0.0,0.0,0.0,0.0,0.0,0.0,0.0,0.0,0.0,-0.000909030340617,-0.011269492663,-0.000395811434818,0.0,0.0,0.0,0.0,0.0,0.0,0.0,0.0,0.0,6.28205213459,-0.0183944668364,7.26815633468,0.0,0.0,0.0,0.0,0.0,0.0,0.0,0.0,0.0
30540000000,302,30540000000,imu_link,0.000276864751614,-0.370913341626,0.00171662841938,0.92866585462,0.0,0.0,0.0,0.0,0.0,0.0,0.0,0.0,0.0,-0.000968358009254,-0.0109982695897,-0.000379696037001,0.0,0.0,0.0,0.0,0.0,0.0,0.0,0.0,0.0,6.28327658999,-0.0183893215048,7.26534916088,0.0,0.0,0.0,0.0,0.0,0.0,0.0,0.0,0.0
30544000000,303,30544000000,imu_link,0.000275408530572,-0.370933755001,0.00171522596067,0.92865770419,0.0,0.0,0.0,0.0,0.0,0.0,0.0,0.0,0.0,-0.00095265950746,-0.0109890977036,-0.000371320347711,0.0,0.0,0.0,0.0,0.0,0.0,0.0,0.0,0.0,6.28536422531,-0.0183403597858,7.26833751008,0.0,0.0,0.0,0.0,0.0,0.0,0.0,0.0,0.0
30548000000,304,30548000000,imu_link,0.000273979561933,-0.370954704212,0.00171384580333,0.928649339143,0.0,0.0,0.0,0.0,0.0,0.0,0.0,0.0,0.0,-0.000936299254802,-0.0112777266814,-0.000365761757238,0.0,0.0,0.0,0.0,0.0,0.0,0.0,0.0,0.0,6.28710180378,-0.0182389883141,7.27110413651,0.0,0.0,0.0,0.0,0.0,0.0,0.0,0.0,0.0
30552000000,305,30552000000,imu_link,0.00027250693911,-0.370976510652,0.00171245299071,0.928640631132,0.0,0.0,0.0,0.0,0.0,0.0,0.0,0.0,0.0,-0.000959603830474,-0.0117393357618,-0.00036312972079,0.0,0.0,0.0,0.0,0.0,0.0,0.0,0.0,0.0,6.28783072903,-0.0181171620347,7.26983782469,0.0,0.0,0.0,0.0,0.0,0.0,0.0,0.0,0.0
30556000000,306,30556000000,imu_link,0.000270878613235,-0.370999296157,0.00171099922779,0.928631531533,0.0,0.0,0.0,0.0,0.0,0.0,0.0,0.0,0.0,-0.00104399043516,-0.0122664458251,-0.000362080413497,0.0,0.0,0.0,0.0,0.0,0.0,0.0,0.0,0.0,6.28867339585,-0.0180448462814,7.26729005771,0.0,0.0,0.0,0.0,0.0,0.0,0.0,0.0,0.0
30560000000,307,30560000000,imu_link,0.000269052118085,-0.37102298544,0.00170946134487,0.928622070397,0.0,0.0,0.0,0.0,0.0,0.0,0.0,0.0,0.0,-0.00115233199588,-0.0127529904316,-0.000363946617171,0.0,0.0,0.0,0.0,0.0,0.0,0.0,0.0,0.0,6.28895079667,-0.0180341017167,7.26195421044,0.0,0.0,0.0,0.0,0.0,0.0,0.0,0.0,0.0
30564000000,308,30564000000,imu_link,0.000267023347127,-0.371047323401,0.00170783819753,0.928612349575,0.0,0.0,0.0,0.0,0.0,0.0,0.0,0.0,0.0,-0.00126258792796,-0.013102192443,-0.000365702117531,0.0,0.0,0.0,0.0,0.0,0.0,0.0,0.0,0.0,6.2901993254,-0.0179664503964,7.25740924452,0.0,0.0,0.0,0.0,0.0,0.0,0.0,0.0,0.0
30568000000,309,30568000000,imu_link,0.00026484310378,-0.37107221356,0.00170614697462,0.928602407516,0.0,0.0,0.0,0.0,0.0,0.0,0.0,0.0,0.0,-0.00134598911817,-0.0133995057224,-0.000368945673153,0.0,0.0,0.0,0.0,0.0,0.0,0.0,0.0,0.0,6.29130958259,-0.0178605684384,7.25409191544,0.0,0.0,0.0,0.0,0.0,0.0,0.0,0.0,0.0
30572000000,310,30572000000,imu_link,0.000262397659121,-0.37109760198,0.00170439591138,0.928592265737,0.0,0.0,0.0,0.0,0.0,0.0,0.0,0.0,0.0,-0.00148062355334,-0.013667685831,-0.000347288831132,0.0,0.0,0.0,0.0,0.0,0.0,0.0,0.0,0.0,6.2922818635,-0.0177308227646,7.25112911073,0.0,0.0,0.0,0.0,0.0,0.0,0.0,0.0,0.0
30576000000,311,30576000000,imu_link,0.000259425641183,-0.371123453524,0.00170259258529,0.928581938291,0.0,0.0,0.0,0.0,0.0,0.0,0.0,0.0,0.0,-0.00173517711544,-0.0139167212915,-0.00027363024617,0.0,0.0,0.0,0.0,0.0,0.0,0.0,0.0,0.0,6.29340769327,-0.0176021802064,7.24863852738,0.0,0.0,0.0,0.0,0.0,0.0,0.0,0.0,0.0
30580000000,312,30580000000,imu_link,0.000255897502652,-0.371149964448,0.00170076012128,0.928571346651,0.0,0.0,0.0,0.0,0.0,0.0,0.0,0.0,0.0,-0.00199931282226,-0.014271419469,-0.000183653578899,0.0,0.0,0.0,0.0,0.0,0.0,0.0,0.0,0.0,6.29454495826,-0.0175675623507,7.24778883602,0.0,0.0,0.0,0.0,0.0,0.0,0.0,0.0,0.0
30584000000,313,30584000000,imu_link,0.0002519594644,-0.37117753588,0.00169896649094,0.928560330236,0.0,0.0,0.0,0.0,0.0,0.0,0.0,0.0,0.0,-0.00218326432107,-0.0148422726987,-8.90596236871e-05,0.0,0.0,0.0,0.0,0.0,0.0,0.0,0.0,0.0,6.29707900552,-0.0175729043268,7.25135814647,0.0,0.0,0.0,0.0,0.0,0.0,0.0,0.0,0.0
30588000000,314,30588000000,imu_link,0.000247893435454,-0.371206493107,0.00169726822727,0.928548758712,0.0,0.0,0.0,0.0,0.0,0.0,0.0,0.0,0.0,-0.00222609615532,-0.01558857095,-2.03829939379e-05,0.0,0.0,0.0,0.0,0.0,0.0,0.0,0.0,0.0,6.29912412191,-0.0175709742751,7.25326782674,0.0,0.0,0.0,0.0,0.0,0.0,0.0,0.0,0.0
30592000000,315,30592000000,imu_link,0.000244142363232,-0.371236835758,0.00169570542533,0.928536631886,0.0,0.0,0.0,0.0,0.0,0.0,0.0,0.0,0.0,-0.00205583457116,-0.0163351040625,-1.53056096187e-05,0.0,0.0,0.0,0.0,0.0,0.0,0.0,0.0,0.0,6.30049748109,-0.0175633324674,7.25112200954,0.0,0.0,0.0,0.0,0.0,0.0,0.0,0.0,0.0
30596000000,316,30596000000,imu_link,0.000241269015638,-0.371268089288,0.00169432315051,0.928524139123,0.0,0.0,0.0,0.0,0.0,0.0,0.0,0.0,0.0,-0.00161555329813,-0.0168266432175,-9.39929883258e-05,0.0,0.0,0.0,0.0,0.0,0.0,0.0,0.0,0.0,6.30300922426,-0.0175031818671,7.24741489059,0.0,0.0,0.0,0.0,0.0,0.0,0.0,0.0,0.0
30600000000,317,30600000000,imu_link,0.000239437833517,-0.371299733756,0.00169312392445,0.928511488197,0.0,0.0,0.0,0.0,0.0,0.0,0.0,0.0,0.0,-0.00109804742575,-0.0170383625237,-0.00020229063659,0.0,0.0,0.0,0.0,0.0,0.0,0.0,0.0,0.0,6.30506332667,-0.0173405617794,7.24239487675,0.0,0.0,0.0,0.0,0.0,0.0,0.0,0.0,0.0
30604000000,318,30604000000,imu_link,0.000238476122357,-0.371331368967,0.00169205637717,0.928498839254,0.0,0.0,0.0,0.0,0.0,0.0,0.0,0.0,0.0,-0.000669936789828,-0.0170344165176,-0.000302577962459,0.0,0.0,0.0,0.0,0.0,0.0,0.0,0.0,0.0,6.30664085676,-0.0171424699603,7.23740149223,0.0,0.0,0.0,0.0,0.0,0.0,0.0,0.0,0.0
30608000000,319,30608000000,imu_link,0.000237949511682,-0.371362882283,0.00169102660002,0.928486237632,0.0,0.0,0.0,0.0,0.0,0.0,0.0,0.0,0.0,-0.00046083154031,-0.016969404661,-0.000365880997995,0.0,0.0,0.0,0.0,0.0,0.0,0.0,0.0,0.0,6.30867089127,-0.0168713148682,7.23607622348,0.0,0.0,0.0,0.0,0.0,0.0,0.0,0.0,0.0
30612000000,320,30612000000,imu_link,0.000237622799258,-0.371394257308,0.00168996554115,0.928473690091,0.0,0.0,0.0,0.0,0.0,0.0,0.0,0.0,0.0,-0.000373728095767,-0.016895335106,-0.000417582897189,0.0,0.0,0.0,0.0,0.0,0.0,0.0,0.0,0.0,6.30881601214,-0.0166551922347,7.23190356799,0.0,0.0,0.0,0.0,0.0,0.0,0.0,0.0,0.0
30616000000,321,30616000000,imu_link,0.000237538189868,-0.371425487818,0.00168888092692,0.928461199112,0.0,0.0,0.0,0.0,0.0,0.0,0.0,0.0,0.0,-0.000265593716442,-0.0168179497934,-0.000473540963745,0.0,0.0,0.0,0.0,0.0,0.0,0.0,0.0,0.0,6.30978148435,-0.0165134140118,7.22976535397,0.0,0.0,0.0,0.0,0.0,0.0,0.0,0.0,0.0
30620000000,322,30620000000,imu_link,0.000238106283526,-0.371456520731,0.00168785332595,0.928448785698,0.0,0.0,0.0,0.0,0.0,0.0,0.0,0.0,0.0,4.81567473199e-05,-0.0167123584092,-0.000568377905834,0.0,0.0,0.0,0.0,0.0,0.0,0.0,0.0,0.0,6.31138988797,-0.016429778349,7.22869805229,0.0,0.0,0.0,0.0,0.0,0.0,0.0,0.0,0.0
30624000000,323,30624000000,imu_link,0.000239837422703,-0.371487442803,0.00168698993819,0.92843641483,0.0,0.0,0.0,0.0,0.0,0.0,0.0,0.0,0.0,0.000618658356291,-0.0166539635955,-0.000708205653171,0.0,0.0,0.0,0.0,0.0,0.0,0.0,0.0,0.0,6.3128565906,-0.0163482660712,7.22800858638,0.0,0.0,0.0,0.0,0.0,0.0,0.0,0.0,0.0
30628000000,324,30628000000,imu_link,0.000242998214438,-0.371518303188,0.00168632471333,0.928424066716,0.0,0.0,0.0,0.0,0.0,0.0,0.0,0.0,0.0,0.00131918592274,-0.0166222831197,-0.000881790403359,0.0,0.0,0.0,0.0,0.0,0.0,0.0,0.0,0.0,6.31316692553,-0.0161665220403,7.22473571171,0.0,0.0,0.0,0.0,0.0,0.0,0.0,0.0,0.0
30632000000,325,30632000000,imu_link,0.000247466108422,-0.371549190077,0.00168584974329,0.9284117061,0.0,0.0,0.0,0.0,0.0,0.0,0.0,0.0,0.0,0.0019612792632,-0.0166379881552,-0.00103626426663,0.0,0.0,0.0,0.0,0.0,0.0,0.0,0.0,0.0,6.3149278096,-0.0158960625385,7.22447550437,0.0,0.0,0.0,0.0,0.0,0.0,0.0,0.0,0.0
30636000000,326,30636000000,imu_link,0.000252848909132,-0.371580108414,0.00168553372646,0.928399331147,0.0,0.0,0.0,0.0,0.0,0.0,0.0,0.0,0.0,0.00241548905275,-0.0166560011636,-0.00113242771094,0.0,0.0,0.0,0.0,0.0,0.0,0.0,0.0,0.0,6.31598502782,-0.0156050221764,7.22229730003,0.0,0.0,0.0,0.0,0.0,0.0,0.0,0.0,0.0
30640000000,327,30640000000,imu_link,0.000258592461642,-0.371610956202,0.00168533032358,0.928386982902,0.0,0.0,0.0,0.0,0.0,0.0,0.0,0.0,0.0,0.00260392855046,-0.0166185805051,-0.00114720787414,0.0,0.0,0.0,0.0,0.0,0.0,0.0,0.0,0.0,6.3175800871,-0.0153308845536,7.22032532902,0.0,0.0,0.0,0.0,0.0,0.0,0.0,0.0,0.0
30644000000,328,30644000000,imu_link,0.000264308561257,-0.371641543004,0.0016852162977,0.928374737755,0.0,0.0,0.0,0.0,0.0,0.0,0.0,0.0,0.0,0.00260799842577,-0.0164782410443,-0.00110073937553,0.0,0.0,0.0,0.0,0.0,0.0,0.0,0.0,0.0,6.31892941601,-0.015170843785,7.21714074548,0.0,0.0,0.0,0.0,0.0,0.0,0.0,0.0,0.0
30648000000,329,30648000000,imu_link,0.000269864589509,-0.371671688545,0.00168516917334,0.928362667987,0.0,0.0,0.0,0.0,0.0,0.0,0.0,0.0,0.0,0.002546475644,-0.0162406809149,-0.00104014604424,0.0,0.0,0.0,0.0,0.0,0.0,0.0,0.0,0.0,6.31977269988,-0.0151711238974,7.21323271132,0.0,0.0,0.0,0.0,0.0,0.0,0.0,0.0,0.0
30652000000,330,30652000000,imu_link,0.000274918028509,-0.371701114289,0.00168515789073,0.928350885333,0.0,0.0,0.0,0.0,0.0,0.0,0.0,0.0,0.0,0.00232041152693,-0.0158527801392,-0.000930448913047,0.0,0.0,0.0,0.0,0.0,0.0,0.0,0.0,0.0,6.32154480478,-0.0152125991195,7.2104686089,0.0,0.0,0.0,0.0,0.0,0.0,0.0,0.0,0.0
30656000000,331,30656000000,imu_link,0.000278954121309,-0.371729420793,0.00168514180487,0.928339550056,0.0,0.0,0.0,0.0,0.0,0.0,0.0,0.0,0.0,0.00184817326931,-0.0152492540362,-0.000744134907902,0.0,0.0,0.0,0.0,0.0,0.0,0.0,0.0,0.0,6.32391565577,-0.0152087555702,7.2083314559,0.0,0.0,0.0,0.0,0.0,0.0,0.0,0.0,0.0
30660000000,332,30660000000,imu_link,0.000281323326849,-0.371756160089,0.00168506770028,0.928328841974,0.0,0.0,0.0,0.0,0.0,0.0,0.0,0.0,0.0,0.00106490395223,-0.0144038345076,-0.000461996978524,0.0,0.0,0.0,0.0,0.0,0.0,0.0,0.0,0.0,6.32647840348,-0.015200340486,7.20653374327,0.0,0.0,0.0,0.0,0.0,0.0,0.0,0.0,0.0
30664000000,333,30664000000,imu_link,0.00028170319042,-0.371781054208,0.00168488087735,0.928318872776,0.0,0.0,0.0,0.0,0.0,0.0,0.0,0.0,0.0,0.000122021013539,-0.0134083659927,-0.000145423832495,0.0,0.0,0.0,0.0,0.0,0.0,0.0,0.0,0.0,6.32715772812,-0.0153219969725,7.20217563675,0.0,0.0,0.0,0.0,0.0,0.0,0.0,0.0,0.0
30668000000,334,30668000000,imu_link,0.00028019358454,-0.371804159367,0.00168455418633,0.928309620141,0.0,0.0,0.0,0.0,0.0,0.0,0.0,0.0,0.0,-0.000779588051906,-0.0124432288774,0.000140033906249,0.0,0.0,0.0,0.0,0.0,0.0,0.0,0.0,0.0,6.32846951526,-0.0155736102442,7.20142216833,0.0,0.0,0.0,0.0,0.0,0.0,0.0,0.0,0.0
30672000000,335,30672000000,imu_link,0.000277211581426,-0.371826206297,0.00168409881622,0.928300791379,0.0,0.0,0.0,0.0,0.0,0.0,0.0,0.0,0.0,-0.00148609808428,-0.0118720261667,0.000353523320049,0.0,0.0,0.0,0.0,0.0,0.0,0.0,0.0,0.0,6.33140306888,-0.0158601371449,7.20930925946,0.0,0.0,0.0,0.0,0.0,0.0,0.0,0.0,0.0
30676000000,336,30676000000,imu_link,0.000273078789675,-0.37184806352,0.0016835191529,0.928292038557,0.0,0.0,0.0,0.0,0.0,0.0,0.0,0.0,0.0,-0.00204319560154,-0.0117689031858,0.000509689030018,0.0,0.0,0.0,0.0,0.0,0.0,0.0,0.0,0.0,6.33406949639,-0.0160444990886,7.21722909164,0.0,0.0,0.0,0.0,0.0,0.0,0.0,0.0,0.0
30680000000,337,30680000000,imu_link,0.000267941776396,-0.371870258497,0.00168284252435,0.92828315028,0.0,0.0,0.0,0.0,0.0,0.0,0.0,0.0,0.0,-0.00252759500971,-0.0119500228553,0.000651552049257,0.0,0.0,0.0,0.0,0.0,0.0,0.0,0.0,0.0,6.33535005679,-0.0161531514066,7.21948898882,0.0,0.0,0.0,0.0,0.0,0.0,0.0,0.0,0.0
30684000000,338,30684000000,imu_link,0.000261787580757,-0.371892748448,0.0016820615806,0.92827414366,0.0,0.0,0.0,0.0,0.0,0.0,0.0,0.0,0.0,-0.00301933983201,-0.01210809459,0.000792404062414,0.0,0.0,0.0,0.0,0.0,0.0,0.0,0.0,0.0,6.33661546262,-0.0162089392463,7.21706636895,0.0,0.0,0.0,0.0,0.0,0.0,0.0,0.0,0.0
30688000000,339,30688000000,imu_link,0.00025463300482,-0.37191523617,0.00168115542543,0.928265137761,0.0,0.0,0.0,0.0,0.0,0.0,0.0,0.0,0.0,-0.00350693424652,-0.0121061012452,0.000920304987861,0.0,0.0,0.0,0.0,0.0,0.0,0.0,0.0,0.0,6.33750673704,-0.0162599181289,7.21164491462,0.0,0.0,0.0,0.0,0.0,0.0,0.0,0.0,0.0
30692000000,340,30692000000,imu_link,0.000246700571133,-0.371937400127,0.00168012223821,0.928256261339,0.0,0.0,0.0,0.0,0.0,0.0,0.0,0.0,0.0,-0.00389133027221,-0.0119311162222,0.00100584379828,0.0,0.0,0.0,0.0,0.0,0.0,0.0,0.0,0.0,6.33831867832,-0.0164055989581,7.2061802758,0.0,0.0,0.0,0.0,0.0,0.0,0.0,0.0,0.0
30696000000,341,30696000000,imu_link,0.000238472332242,-0.371958904645,0.00167900483223,0.928247648706,0.0,0.0,0.0,0.0,0.0,0.0,0.0,0.0,0.0,-0.00404376241335,-0.0115757575494,0.00102146306753,0.0,0.0,0.0,0.0,0.0,0.0,0.0,0.0,0.0,6.34036966031,-0.0166045523795,7.20314843449,0.0,0.0,0.0,0.0,0.0,0.0,0.0,0.0,0.0
30700000000,342,30700000000,imu_link,0.000230602732001,-0.371979320583,0.00167787007988,0.928239471598,0.0,0.0,0.0,0.0,0.0,0.0,0.0,0.0,0.0,-0.00387967380527,-0.0109898260866,0.000946217359838,0.0,0.0,0.0,0.0,0.0,0.0,0.0,0.0,0.0,6.34235517462,-0.0166536455657,7.19989000915,0.0,0.0,0.0,0.0,0.0,0.0,0.0,0.0,0.0
30704000000,343,30704000000,imu_link,0.000223626519947,-0.371998494474,0.00167677990829,0.92823179137,0.0,0.0,0.0,0.0,0.0,0.0,0.0,0.0,0.0,-0.00345575844625,-0.0103216973714,0.000800187151863,0.0,0.0,0.0,0.0,0.0,0.0,0.0,0.0,0.0,6.34431120203,-0.0164905800044,7.19903650249,0.0,0.0,0.0,0.0,0.0,0.0,0.0,0.0,0.0
30708000000,344,30708000000,imu_link,0.00021796465113,-0.372016578523,0.00167578919293,0.928224546931,0.0,0.0,0.0,0.0,0.0,0.0,0.0,0.0,0.0,-0.00282638709122,-0.00973591854541,0.000601392289492,0.0,0.0,0.0,0.0,0.0,0.0,0.0,0.0,0.0,6.34573033713,-0.0162653072234,7.19977963996,0.0,0.0,0.0,0.0,0.0,0.0,0.0,0.0,0.0
30712000000,345,30712000000,imu_link,0.000213681151981,-0.372033846036,0.00167490847865,0.928217628806,0.0,0.0,0.0,0.0,0.0,0.0,0.0,0.0,0.0,-0.00216555908628,-0.00929740034033,0.000395694559175,0.0,0.0,0.0,0.0,0.0,0.0,0.0,0.0,0.0,6.34636214294,-0.0159448692985,7.1997830622,0.0,0.0,0.0,0.0,0.0,0.0,0.0,0.0,0.0
30716000000,346,30716000000,imu_link,0.00021063762281,-0.37205063152,0.00167412416656,0.928210903042,0.0,0.0,0.0,0.0,0.0,0.0,0.0,0.0,0.0,-0.00157176252724,-0.00903893189571,0.000209567667791,0.0,0.0,0.0,0.0,0.0,0.0,0.0,0.0,0.0,6.34771165252,-0.0156289316568,7.20122083526,0.0,0.0,0.0,0.0,0.0,0.0,0.0,0.0,0.0
30720000000,347,30720000000,imu_link,0.000208709909498,-0.372067179793,0.00167342518499,0.928204271596,0.0,0.0,0.0,0.0,0.0,0.0,0.0,0.0,0.0,-0.00103784404135,-0.00891222051043,4.14960934176e-05,0.0,0.0,0.0,0.0,0.0,0.0,0.0,0.0,0.0,6.34907554288,-0.0153439677803,7.20170230984,0.0,0.0,0.0,0.0,0.0,0.0,0.0,0.0,0.0
30724000000,348,30724000000,imu_link,0.000207887311244,-0.372083543977,0.0016728382287,0.92819771315,0.0,0.0,0.0,0.0,0.0,0.0,0.0,0.0,0.0,-0.000503970903806,-0.00881411691412,-0.000112181540877,0.0,0.0,0.0,0.0,0.0,0.0,0.0,0.0,0.0,6.35017355254,-0.0151055770704,7.19997938228,0.0,0.0,0.0,0.0,0.0,0.0,0.0,0.0,0.0
30728000000,349,30728000000,imu_link,0.000208287352479,-0.372099756586,0.00167237657816,0.928191214633,0.0,0.0,0.0,0.0,0.0,0.0,0.0,0.0,0.0,8.68873379244e-05,-0.00873363189003,-0.000281555185804,0.0,0.0,0.0,0.0,0.0,0.0,0.0,0.0,0.0,6.35149707511,-0.0149067016998,7.19855379139,0.0,0.0,0.0,0.0,0.0,0.0,0.0,0.0,0.0
30732000000,350,30732000000,imu_link,0.000210010253765,-0.372116125927,0.00167205405777,0.928184652403,0.0,0.0,0.0,0.0,0.0,0.0,0.0,0.0,0.0,0.000726581602528,-0.00881931523317,-0.000463033850755,0.0,0.0,0.0,0.0,0.0,0.0,0.0,0.0,0.0,6.35357692968,-0.0146876325479,7.20072790453,0.0,0.0,0.0,0.0,0.0,0.0,0.0,0.0,0.0
30736000000,351,30736000000,imu_link,0.000212973627468,-0.372133159597,0.00167187479401,0.928177822944,0.0,0.0,0.0,0.0,0.0,0.0,0.0,0.0,0.0,0.00132840204813,-0.00917836796914,-0.000627056268027,0.0,0.0,0.0,0.0,0.0,0.0,0.0,0.0,0.0,6.35632787102,-0.0144502022587,7.20577675997,0.0,0.0,0.0,0.0,0.0,0.0,0.0,0.0,0.0
30740000000,352,30740000000,imu_link,0.000216920433042,-0.372151253628,0.00167183969686,0.928170567472,0.0,0.0,0.0,0.0,0.0,0.0,0.0,0.0,0.0,0.00181078542989,-0.00975054308546,-0.000742664920777,0.0,0.0,0.0,0.0,0.0,0.0,0.0,0.0,0.0,6.35858166472,-0.0142423649663,7.2091124558,0.0,0.0,0.0,0.0,0.0,0.0,0.0,0.0,0.0
30744000000,353,30744000000,imu_link,0.000221584537927,-0.372170522283,0.00167192392769,0.928162840192,0.0,0.0,0.0,0.0,0.0,0.0,0.0,0.0,0.0,0.00216494679505,-0.0103840473005,-0.000820236682744,0.0,0.0,0.0,0.0,0.0,0.0,0.0,0.0,0.0,6.360556533,-0.0140639392999,7.20955383854,0.0,0.0,0.0,0.0,0.0,0.0,0.0,0.0,0.0
30748000000,354,30748000000,imu_link,0.000226845747727,-0.372190872614,0.0016721128333,0.928154678339,0.0,0.0,0.0,0.0,0.0,0.0,0.0,0.0,0.0,0.00246067443485,-0.0109673883263,-0.000882288353713,0.0,0.0,0.0,0.0,0.0,0.0,0.0,0.0,0.0,6.36101021473,-0.0139157600193,7.20524275465,0.0,0.0,0.0,0.0,0.0,0.0,0.0,0.0,0.0
30752000000,355,30752000000,imu_link,0.000232613674392,-0.372212071969,0.00167239481227,0.928146175161,0.0,0.0,0.0,0.0,0.0,0.0,0.0,0.0,0.0,0.00271247965708,-0.0114253331223,-0.000933011152768,0.0,0.0,0.0,0.0,0.0,0.0,0.0,0.0,0.0,6.3611770783,-0.0137822640776,7.19941647753,0.0,0.0,0.0,0.0,0.0,0.0,0.0,0.0,0.0
30756000000,356,30756000000,imu_link,0.000238860083732,-0.37223402039,0.00167277531302,0.928137370669,0.0,0.0,0.0,0.0,0.0,0.0,0.0,0.0,0.0,0.00295227476483,-0.0118294195881,-0.000975999281668,0.0,0.0,0.0,0.0,0.0,0.0,0.0,0.0,0.0,6.3614707307,-0.0136892559988,7.19512257202,0.0,0.0,0.0,0.0,0.0,0.0,0.0,0.0,0.0
30760000000,357,30760000000,imu_link,0.000245423243334,-0.372256607788,0.00167326524125,0.928128308969,0.0,0.0,0.0,0.0,0.0,0.0,0.0,0.0,0.0,0.00311913124505,-0.0121740716734,-0.000983878584194,0.0,0.0,0.0,0.0,0.0,0.0,0.0,0.0,0.0,6.36248207,-0.0136070143086,7.19203448587,0.0,0.0,0.0,0.0,0.0,0.0,0.0,0.0,0.0
30764000000,358,30764000000,imu_link,0.000252059958715,-0.372279710805,0.00167387250283,0.928119039531,0.0,0.0,0.0,0.0,0.0,0.0,0.0,0.0,0.0,0.00317469901222,-0.0124520645951,-0.000942882120554,0.0,0.0,0.0,0.0,0.0,0.0,0.0,0.0,0.0,6.36439983491,-0.0135379284253,7.19100666224,0.0,0.0,0.0,0.0,0.0,0.0,0.0,0.0,0.0
30768000000,359,30768000000,imu_link,0.000258410722719,-0.372302779507,0.00167457476748,0.928109783051,0.0,0.0,0.0,0.0,0.0,0.0,0.0,0.0,0.0,0.00305971149512,-0.0124334771826,-0.000845583268335,0.0,0.0,0.0,0.0,0.0,0.0,0.0,0.0,0.0,6.36765802949,-0.0134761660221,7.18877934783,0.0,0.0,0.0,0.0,0.0,0.0,0.0,0.0,0.0
30772000000,360,30772000000,imu_link,0.000264074443914,-0.372325201463,0.00167531198976,0.928100785448,0.0,0.0,0.0,0.0,0.0,0.0,0.0,0.0,0.0,0.00274790139576,-0.0120845815745,-0.000701767348602,0.0,0.0,0.0,0.0,0.0,0.0,0.0,0.0,0.0,6.37003625569,-0.0134509293061,7.18461971153,0.0,0.0,0.0,0.0,0.0,0.0,0.0,0.0,0.0
30776000000,361,30776000000,imu_link,0.000268804538765,-0.372346572997,0.00167603358554,0.928092208907,0.0,0.0,0.0,0.0,0.0,0.0,0.0,0.0,0.0,0.00231256695036,-0.0115179669174,-0.000535703924751,0.0,0.0,0.0,0.0,0.0,0.0,0.0,0.0,0.0,6.37039466092,-0.0134794925329,7.17814620193,0.0,0.0,0.0,0.0,0.0,0.0,0.0,0.0,0.0
30780000000,362,30780000000,imu_link,0.000272545279345,-0.372367103209,0.00167671740363,0.928083969685,0.0,0.0,0.0,0.0,0.0,0.0,0.0,0.0,0.0,0.0018470874628,-0.0110639308983,-0.000369438935047,0.0,0.0,0.0,0.0,0.0,0.0,0.0,0.0,0.0,6.37143115949,-0.0135698321443,7.17807767167,0.0,0.0,0.0,0.0,0.0,0.0,0.0,0.0,0.0
30784000000,363,30784000000,imu_link,0.000275351793512,-0.372387338138,0.00167737846519,0.92807584872,0.0,0.0,0.0,0.0,0.0,0.0,0.0,0.0,0.0,0.00140956173018,-0.010904109457,-0.000206200708155,0.0,0.0,0.0,0.0,0.0,0.0,0.0,0.0,0.0,6.37367563493,-0.013763806562,7.18335084381,0.0,0.0,0.0,0.0,0.0,0.0,0.0,0.0,0.0
30788000000,364,30788000000,imu_link,0.000277285006646,-0.372407745804,0.00167797187973,0.928067658303,0.0,0.0,0.0,0.0,0.0,0.0,0.0,0.0,0.0,0.000991586173926,-0.0109964746252,-7.49063361103e-05,0.0,0.0,0.0,0.0,0.0,0.0,0.0,0.0,0.0,6.37527116485,-0.0140074269138,7.18665723051,0.0,0.0,0.0,0.0,0.0,0.0,0.0,0.0,0.0
30792000000,365,30792000000,imu_link,0.000278516479085,-0.372428567616,0.00167848857187,0.928059301515,0.0,0.0,0.0,0.0,0.0,0.0,0.0,0.0,0.0,0.000651344348376,-0.0112190527871,2.03557104776e-05,0.0,0.0,0.0,0.0,0.0,0.0,0.0,0.0,0.0,6.37538411743,-0.0141616101609,7.18490750801,0.0,0.0,0.0,0.0,0.0,0.0,0.0,0.0,0.0
30796000000,366,30796000000,imu_link,0.000279374187011,-0.372449862357,0.00167894810154,0.9280507546,0.0,0.0,0.0,0.0,0.0,0.0,0.0,0.0,0.0,0.000466891635593,-0.0114736047844,6.36563409484e-05,0.0,0.0,0.0,0.0,0.0,0.0,0.0,0.0,0.0,6.37634077673,-0.0142681007079,7.18347075402,0.0,0.0,0.0,0.0,0.0,0.0,0.0,0.0,0.0
30800000000,367,30800000000,imu_link,0.000280241314938,-0.372471469459,0.00167938526453,0.928042081788,0.0,0.0,0.0,0.0,0.0,0.0,0.0,0.0,0.0,0.000466852890153,-0.0116420044364,5.16727190464e-05,0.0,0.0,0.0,0.0,0.0,0.0,0.0,0.0,0.0,6.37816772224,-0.0143331734968,7.18179693926,0.0,0.0,0.0,0.0,0.0,0.0,0.0,0.0,0.0
30804000000,368,30804000000,imu_link,0.000281345432116,-0.37249312613,0.00167985364615,0.928033388366,0.0,0.0,0.0,0.0,0.0,0.0,0.0,0.0,0.0,0.000582596179354,-0.0116690380509,2.2047202433e-05,0.0,0.0,0.0,0.0,0.0,0.0,0.0,0.0,0.0,6.37990227573,-0.0143185398181,7.17905045458,0.0,0.0,0.0,0.0,0.0,0.0,0.0,0.0,0.0
30808000000,369,30808000000,imu_link,0.000282743154879,-0.372514734073,0.0016803978947,0.928024713689,0.0,0.0,0.0,0.0,0.0,0.0,0.0,0.0,0.0,0.000733002317573,-0.0116431724158,2.54509470405e-06,0.0,0.0,0.0,0.0,0.0,0.0,0.0,0.0,0.0,6.38013818353,-0.0142602209749,7.17475745534,0.0,0.0,0.0,0.0,0.0,0.0,0.0,0.0,0.0
30812000000,370,30812000000,imu_link,0.000284418942575,-0.372536549071,0.00168103899508,0.928015955046,0.0,0.0,0.0,0.0,0.0,0.0,0.0,0.0,0.0,0.00087990515233,-0.0117551079568,-4.20628184129e-06,0.0,0.0,0.0,0.0,0.0,0.0,0.0,0.0,0.0,6.38108209317,-0.0141740594103,7.17472487033,0.0,0.0,0.0,0.0,0.0,0.0,0.0,0.0,0.0
30816000000,371,30816000000,imu_link,0.00028639521179,-0.372558901053,0.00168175907381,0.92800697999,0.0,0.0,0.0,0.0,0.0,0.0,0.0,0.0,0.0,0.00103362156594,-0.0120448247306,-2.32716080631e-05,0.0,0.0,0.0,0.0,0.0,0.0,0.0,0.0,0.0,6.38240888669,-0.0141044329365,7.17621331018,0.0,0.0,0.0,0.0,0.0,0.0,0.0,0.0,0.0
30820000000,372,30820000000,imu_link,0.000288883111639,-0.37258177659,0.00168255171167,0.927997793812,0.0,0.0,0.0,0.0,0.0,0.0,0.0,0.0,0.0,0.0012841262237,-0.012327504031,-8.46576959867e-05,0.0,0.0,0.0,0.0,0.0,0.0,0.0,0.0,0.0,6.38349738019,-0.0140681078273,7.17436980396,0.0,0.0,0.0,0.0,0.0,0.0,0.0,0.0,0.0
30824000000,373,30824000000,imu_link,0.000292016887613,-0.372604751789,0.00168342811886,0.9279885666,0.0,0.0,0.0,0.0,0.0,0.0,0.0,0.0,0.0,0.00159933958361,-0.0123819222393,-0.000166060733703,0.0,0.0,0.0,0.0,0.0,0.0,0.0,0.0,0.0,6.3866112351,-0.0139825961723,7.1730041569,0.0,0.0,0.0,0.0,0.0,0.0,0.0,0.0,0.0
30828000000,374,30828000000,imu_link,0.000295759889703,-0.372627437247,0.00168437560751,0.927979454738,0.0,0.0,0.0,0.0,0.0,0.0,0.0,0.0,0.0,0.0018954866993,-0.0122264962537,-0.000246719015325,0.0,0.0,0.0,0.0,0.0,0.0,0.0,0.0,0.0,6.38797264116,-0.0138851681558,7.16854628307,0.0,0.0,0.0,0.0,0.0,0.0,0.0,0.0,0.0
30832000000,375,30832000000,imu_link,0.000299935326139,-0.372649741778,0.00168538402913,0.927970494936,0.0,0.0,0.0,0.0,0.0,0.0,0.0,0.0,0.0,0.00210778276783,-0.0120217747331,-0.000299199586238,0.0,0.0,0.0,0.0,0.0,0.0,0.0,0.0,0.0,6.38880869712,-0.0138188952898,7.16587698747,0.0,0.0,0.0,0.0,0.0,0.0,0.0,0.0,0.0
30836000000,376,30836000000,imu_link,0.000304279598437,-0.372671749514,0.00168642178626,0.927961653577,0.0,0.0,0.0,0.0,0.0,0.0,0.0,0.0,0.0,0.00219181839413,-0.0118621350963,-0.000317190988421,0.0,0.0,0.0,0.0,0.0,0.0,0.0,0.0,0.0,6.38892923069,-0.0137318285246,7.16333916096,0.0,0.0,0.0,0.0,0.0,0.0,0.0,0.0,0.0
30840000000,377,30840000000,imu_link,0.000308840549666,-0.372693479113,0.00168751169642,0.927952923132,0.0,0.0,0.0,0.0,0.0,0.0,0.0,0.0,0.0,0.00230228890039,-0.0117125925288,-0.000333503875171,0.0,0.0,0.0,0.0,0.0,0.0,0.0,0.0,0.0,6.38951936412,-0.0136886782089,7.1611648727,0.0,0.0,0.0,0.0,0.0,0.0,0.0,0.0,0.0
30844000000,378,30844000000,imu_link,0.000313913572683,-0.372714752376,0.00168871639926,0.92794437498,0.0,0.0,0.0,0.0,0.0,0.0,0.0,0.0,0.0,0.00256162628301,-0.0114673081042,-0.000375889962946,0.0,0.0,0.0,0.0,0.0,0.0,0.0,0.0,0.0,6.39025837448,-0.0136847564271,7.15769997143,0.0,0.0,0.0,0.0,0.0,0.0,0.0,0.0,0.0
30848000000,379,30848000000,imu_link,0.000319896008078,-0.372735315736,0.00169009701835,0.927936110754,0.0,0.0,0.0,0.0,0.0,0.0,0.0,0.0,0.0,0.00301690647344,-0.0110857610086,-0.000464096578551,0.0,0.0,0.0,0.0,0.0,0.0,0.0,0.0,0.0,6.39271687564,-0.0136575397714,7.15736412121,0.0,0.0,0.0,0.0,0.0,0.0,0.0,0.0,0.0
30852000000,380,30852000000,imu_link,0.000326919132353,-0.372755153646,0.00169168434473,0.927928136635,0.0,0.0,0.0,0.0,0.0,0.0,0.0,0.0,0.0,0.00353884306171,-0.0106959556917,-0.000562502934485,0.0,0.0,0.0,0.0,0.0,0.0,0.0,0.0,0.0,6.39306209736,-0.0135587477566,7.15438845993,0.0,0.0,0.0,0.0,0.0,0.0,0.0,0.0,0.0
30856000000,381,30856000000,imu_link,0.000334758434655,-0.372774391736,0.00169342147218,0.927920402366,0.0,0.0,0.0,0.0,0.0,0.0,0.0,0.0,0.0,0.00394590804704,-0.0103736234962,-0.000645418828278,0.0,0.0,0.0,0.0,0.0,0.0,0.0,0.0,0.0,6.39418330192,-0.0133704035162,7.15393489355,0.0,0.0,0.0,0.0,0.0,0.0,0.0,0.0,0.0
30860000000,382,30860000000,imu_link,0.000342878561009,-0.372793173031,0.00169520735754,0.92791285089,0.0,0.0,0.0,0.0,0.0,0.0,0.0,0.0,0.0,0.0040856432575,-0.01012784841,-0.000675370337676,0.0,0.0,0.0,0.0,0.0,0.0,0.0,0.0,0.0,6.3958910291,-0.0131592409635,7.15476378939,0.0,0.0,0.0,0.0,0.0,0.0,0.0,0.0,0.0
30864000000,383,30864000000,imu_link,0.000350553528812,-0.372811657395,0.00169692329655,0.927905418496,0.0,0.0,0.0,0.0,0.0,0.0,0.0,0.0,0.0,0.00386630259194,-0.00996752342482,-0.000624998200034,0.0,0.0,0.0,0.0,0.0,0.0,0.0,0.0,0.0,6.3988964844,-0.0129942072285,7.15840124865,0.0,0.0,0.0,0.0,0.0,0.0,0.0,0.0,0.0
30868000000,384,30868000000,imu_link,0.000357227993729,-0.372829889792,0.00169851526068,0.92789808746,0.0,0.0,0.0,0.0,0.0,0.0,0.0,0.0,0.0,0.0033792029449,-0.00983090181578,-0.000496147275126,0.0,0.0,0.0,0.0,0.0,0.0,0.0,0.0,0.0,6.40075724688,-0.0129429679695,7.1589025609,0.0,0.0,0.0,0.0,0.0,0.0,0.0,0.0,0.0
