%time,field.header.seq,field.header.stamp,field.header.frame_id,field.orientation.x,field.orientation.y,field.orientation.z,field.orientation.w,field.orientation_covariance0,field.orientation_covariance1,field.orientation_covariance2,field.orientation_covariance3,field.orientation_covariance4,field.orientation_covariance5,field.orientation_covariance6,field.orientation_covariance7,field.orientation_covariance8,field.angular_velocity.x,field.angular_velocity.y,field.angular_velocity.z,field.angular_velocity_covariance0,field.angular_velocity_covariance1,field.angular_velocity_covariance2,field.angular_velocity_covariance3,field.angular_velocity_covariance4,field.angular_velocity_covariance5,field.angular_velocity_covariance6,field.angular_velocity_covariance7,field.angular_velocity_covariance8,field.linear_acceleration.x,field.linear_acceleration.y,field.linear_acceleration.z,field.linear_acceleration_covariance0,field.linear_acceleration_covariance1,field.linear_acceleration_covariance2,field.linear_acceleration_covariance3,field.linear_acceleration_covariance4,field.linear_acceleration_covariance5,field.linear_acceleration_covariance6,field.linear_acceleration_covariance7,field.linear_acceleration_covariance8
24328000000,0,24328000000,imu_link,0.000459961467563,-0.368212776205,-0.00054837240949,0.929741275389,0.0,0.0,0.0,0.0,0.0,0.0,0.0,0.0,0.0,0.00120357180631,-0.0144237904191,0.000188980562248,0.0,0.0,0.0,0.0,0.0,0.0,0.0,0.0,0.0,6.13768885002,0.000368786630944,7.40254111391,0.0,0.0,0.0,0.0,0.0,0.0,0.0,0.0,0.0
24332000000,1,24332000000,imu_link,0.000461154517431,-0.368240318348,-0.000547236203071,0.929730367264,0.0,0.0,0.0,0.0,0.0,0.0,0.0,0.0,0.0,0.000773857047526,-0.0148112007648,0.000311884204906,0.0,0.0,0.0,0.0,0.0,0.0,0.0,0.0,0.0,6.13889907738,0.000205520370642,7.39685816285,0.0,0.0,0.0,0.0,0.0,0.0,0.0,0.0,0.0
24336000000,2,24336000000,imu_link,0.000461996348039,-0.368268369873,-0.000546118935908,0.929719256585,0.0,0.0,0.0,0.0,0.0,0.0,0.0,0.0,0.0,0.000607286423376,-0.0150853892551,0.000367808580633,0.0,0.0,0.0,0.0,0.0,0.0,0.0,0.0,0.0,6.1424474686,4.18277197355e-05,7.3963953619,0.0,0.0,0.0,0.0,0.0,0.0,0.0,0.0,0.0
24340000000,3,24340000000,imu_link,0.000462869636412,-0.368296680357,-0.000544998805668,0.929708042326,0.0,0.0,0.0,0.0,0.0,0.0,0.0,0.0,0.0,0.000622531696384,-0.0152248322978,0.000363378595103,0.0,0.0,0.0,0.0,0.0,0.0,0.0,0.0,0.0,6.14445908129,-4.93340307504e-05,7.39238121469,0.0,0.0,0.0,0.0,0.0,0.0,0.0,0.0,0.0
24344000000,4,24344000000,imu_link,0.000463691426135,-0.36832522739,-0.000543938230454,0.929696733343,0.0,0.0,0.0,0.0,0.0,0.0,0.0,0.0,0.0,0.000587711764987,-0.0153522644587,0.000345206526169,0.0,0.0,0.0,0.0,0.0,0.0,0.0,0.0,0.0,6.14598740371,-3.2224594012e-05,7.38883967795,0.0,0.0,0.0,0.0,0.0,0.0,0.0,0.0,0.0
24348000000,5,24348000000,imu_link,0.000464435111706,-0.36835403036,-0.00054297204518,0.929685321923,0.0,0.0,0.0,0.0,0.0,0.0,0.0,0.0,0.0,0.000534115435613,-0.0154901440777,0.000315744859063,0.0,0.0,0.0,0.0,0.0,0.0,0.0,0.0,0.0,6.14801323021,-1.1122606114e-05,7.38684071688,0.0,0.0,0.0,0.0,0.0,0.0,0.0,0.0,0.0
24352000000,6,24352000000,imu_link,0.000465124930734,-0.368382949111,-0.000542076764785,0.929673863576,0.0,0.0,0.0,0.0,0.0,0.0,0.0,0.0,0.0,0.000496059250032,-0.0155526383984,0.000292720372241,0.0,0.0,0.0,0.0,0.0,0.0,0.0,0.0,0.0,6.14915990229,1.56803511483e-05,7.38183336005,0.0,0.0,0.0,0.0,0.0,0.0,0.0,0.0,0.0
24356000000,7,24356000000,imu_link,0.000466042956401,-0.368411685591,-0.000541162159675,0.929662476315,0.0,0.0,0.0,0.0,0.0,0.0,0.0,0.0,0.0,0.0006056316371,-0.0154547518505,0.0002596463738,0.0,0.0,0.0,0.0,0.0,0.0,0.0,0.0,0.0,6.15152239508,1.86083701845e-05,7.37822599693,0.0,0.0,0.0,0.0,0.0,0.0,0.0,0.0,0.0
24360000000,8,24360000000,imu_link,0.000467485755814,-0.36844005068,-0.00054015219592,0.929651235006,0.0,0.0,0.0,0.0,0.0,0.0,0.0,0.0,0.0,0.000866993985463,-0.0152550686814,0.000207258610322,0.0,0.0,0.0,0.0,0.0,0.0,0.0,0.0,0.0,6.15347010273,4.42640587992e-05,7.37452215942,0.0,0.0,0.0,0.0,0.0,0.0,0.0,0.0,0.0
24364000000,9,24364000000,imu_link,0.000469514422049,-0.36846808893,-0.000539024646501,0.929640122009,0.0,0.0,0.0,0.0,0.0,0.0,0.0,0.0,0.0,0.00116086326335,-0.0150793220025,0.000153945296408,0.0,0.0,0.0,0.0,0.0,0.0,0.0,0.0,0.0,6.15504295854,0.000139036281771,7.37171510512,0.0,0.0,0.0,0.0,0.0,0.0,0.0,0.0,0.0
24368000000,10,24368000000,imu_link,0.000472100778108,-0.368495929564,-0.000537787052248,0.929629086142,0.0,0.0,0.0,0.0,0.0,0.0,0.0,0.0,0.0,0.00144029131966,-0.0149730799974,0.000102325286202,0.0,0.0,0.0,0.0,0.0,0.0,0.0,0.0,0.0,6.15702586778,0.000298852077181,7.37060960948,0.0,0.0,0.0,0.0,0.0,0.0,0.0,0.0,0.0
24372000000,11,24372000000,imu_link,0.000475197542868,-0.368523829821,-0.00053648027823,0.929618025444,0.0,0.0,0.0,0.0,0.0,0.0,0.0,0.0,0.0,0.00169030483164,-0.0150052152593,4.04466805712e-05,0.0,0.0,0.0,0.0,0.0,0.0,0.0,0.0,0.0,6.15952529271,0.000482918763939,7.37191675698,0.0,0.0,0.0,0.0,0.0,0.0,0.0,0.0,0.0
24376000000,12,24376000000,imu_link,0.000478919410877,-0.36855184846,-0.000535100856086,0.929606916551,0.0,0.0,0.0,0.0,0.0,0.0,0.0,0.0,0.0,0.00199428794411,-0.0150689354168,-4.09533385399e-05,0.0,0.0,0.0,0.0,0.0,0.0,0.0,0.0,0.0,6.16104787312,0.000631373945104,7.36948591508,0.0,0.0,0.0,0.0,0.0,0.0,0.0,0.0,0.0
24380000000,13,24380000000,imu_link,0.000483252156985,-0.368579972296,-0.000533665737845,0.929595764669,0.0,0.0,0.0,0.0,0.0,0.0,0.0,0.0,0.0,0.00228852808703,-0.0151255770846,-0.000127622037515,0.0,0.0,0.0,0.0,0.0,0.0,0.0,0.0,0.0,6.16264577865,0.000817132279052,7.36677843092,0.0,0.0,0.0,0.0,0.0,0.0,0.0,0.0,0.0
24384000000,14,24384000000,imu_link,0.000488175484871,-0.368608053095,-0.000532170495757,0.929584628569,0.0,0.0,0.0,0.0,0.0,0.0,0.0,0.0,0.0,0.0025740941724,-0.015102492437,-0.000208521095997,0.0,0.0,0.0,0.0,0.0,0.0,0.0,0.0,0.0,6.16388297038,0.000924881597026,7.36248034356,0.0,0.0,0.0,0.0,0.0,0.0,0.0,0.0,0.0
24388000000,15,24388000000,imu_link,0.000493483773818,-0.368635948569,-0.000530622190974,0.929573564779,0.0,0.0,0.0,0.0,0.0,0.0,0.0,0.0,0.0,0.00276273382163,-0.0150029125291,-0.000254833832018,0.0,0.0,0.0,0.0,0.0,0.0,0.0,0.0,0.0,6.1655672879,0.000991469718541,7.35945983232,0.0,0.0,0.0,0.0,0.0,0.0,0.0,0.0,0.0
24392000000,16,24392000000,imu_link,0.00049905770654,-0.368663683036,-0.000529002806036,0.92956256374,0.0,0.0,0.0,0.0,0.0,0.0,0.0,0.0,0.0,0.00289924468656,-0.0149164244708,-0.000270782716222,0.0,0.0,0.0,0.0,0.0,0.0,0.0,0.0,0.0,6.16707662709,0.0010528441058,7.35724053422,0.0,0.0,0.0,0.0,0.0,0.0,0.0,0.0,0.0
24396000000,17,24396000000,imu_link,0.000504917283944,-0.368691635305,-0.000527306342382,0.929551475209,0.0,0.0,0.0,0.0,0.0,0.0,0.0,0.0,0.0,0.0030462944908,-0.0150336877994,-0.000287580176242,0.0,0.0,0.0,0.0,0.0,0.0,0.0,0.0,0.0,6.16980804497,0.00108051154032,7.36025239045,0.0,0.0,0.0,0.0,0.0,0.0,0.0,0.0,0.0
24400000000,18,24400000000,imu_link,0.000511063118555,-0.368720369435,-0.000525533170622,0.92954007541,0.0,0.0,0.0,0.0,0.0,0.0,0.0,0.0,0.0,0.00319376543637,-0.0154543634154,-0.000304583107606,0.0,0.0,0.0,0.0,0.0,0.0,0.0,0.0,0.0,6.17302581073,0.00113094804065,7.36564749051,0.0,0.0,0.0,0.0,0.0,0.0,0.0,0.0,0.0
24404000000,19,24404000000,imu_link,0.00051777642965,-0.368750176192,-0.000523646658961,0.929528248769,0.0,0.0,0.0,0.0,0.0,0.0,0.0,0.0,0.0,0.00347879779051,-0.0160314033432,-0.000356364256991,0.0,0.0,0.0,0.0,0.0,0.0,0.0,0.0,0.0,6.17550665026,0.0011537350766,7.36702785941,0.0,0.0,0.0,0.0,0.0,0.0,0.0,0.0,0.0
24408000000,20,24408000000,imu_link,0.000525367110397,-0.368780969479,-0.000521610682925,0.929516029158,0.0,0.0,0.0,0.0,0.0,0.0,0.0,0.0,0.0,0.00391448526853,-0.0165620921691,-0.000448511172234,0.0,0.0,0.0,0.0,0.0,0.0,0.0,0.0,0.0,6.17661690261,0.00118450065183,7.36193556456,0.0,0.0,0.0,0.0,0.0,0.0,0.0,0.0,0.0
24412000000,21,24412000000,imu_link,0.000534084062137,-0.368812253096,-0.000519401615469,0.929503613195,0.0,0.0,0.0,0.0,0.0,0.0,0.0,0.0,0.0,0.00447002460931,-0.0168258434937,-0.000575661610038,0.0,0.0,0.0,0.0,0.0,0.0,0.0,0.0,0.0,6.17929362037,0.00127658576243,7.35700932213,0.0,0.0,0.0,0.0,0.0,0.0,0.0,0.0,0.0
24416000000,22,24416000000,imu_link,0.000543868544777,-0.368843284771,-0.000517031615803,0.929491295368,0.0,0.0,0.0,0.0,0.0,0.0,0.0,0.0,0.0,0.00499574677367,-0.016690336042,-0.000697769106016,0.0,0.0,0.0,0.0,0.0,0.0,0.0,0.0,0.0,6.18187708305,0.00148790319968,7.35036792504,0.0,0.0,0.0,0.0,0.0,0.0,0.0,0.0,0.0
24420000000,23,24420000000,imu_link,0.00055426266898,-0.36887333132,-0.000514539612009,0.929479366895,0.0,0.0,0.0,0.0,0.0,0.0,0.0,0.0,0.0,0.00530121468856,-0.0161605067013,-0.00075366655227,0.0,0.0,0.0,0.0,0.0,0.0,0.0,0.0,0.0,6.18489630163,0.00178189286459,7.3452548625,0.0,0.0,0.0,0.0,0.0,0.0,0.0,0.0,0.0
24424000000,24,24424000000,imu_link,0.000564668811688,-0.368902186068,-0.000511980880815,0.929467910226,0.0,0.0,0.0,0.0,0.0,0.0,0.0,0.0,0.0,0.00531866977823,-0.0155195900948,-0.000725081238753,0.0,0.0,0.0,0.0,0.0,0.0,0.0,0.0,0.0,6.18680554143,0.00204035258116,7.34212728821,0.0,0.0,0.0,0.0,0.0,0.0,0.0,0.0,0.0
24428000000,25,24428000000,imu_link,0.0005745777584,-0.368930103738,-0.000509427967706,0.929456824656,0.0,0.0,0.0,0.0,0.0,0.0,0.0,0.0,0.0,0.00508618810689,-0.0150157772873,-0.000636246327042,0.0,0.0,0.0,0.0,0.0,0.0,0.0,0.0,0.0,6.18930248828,0.00212162580528,7.34406175572,0.0,0.0,0.0,0.0,0.0,0.0,0.0,0.0,0.0
24432000000,26,24432000000,imu_link,0.000583778286382,-0.368957356621,-0.000506866245698,0.92944600235,0.0,0.0,0.0,0.0,0.0,0.0,0.0,0.0,0.0,0.00475834576563,-0.0146584470583,-0.00050159801276,0.0,0.0,0.0,0.0,0.0,0.0,0.0,0.0,0.0,6.19002642863,0.00200307945987,7.342704235,0.0,0.0,0.0,0.0,0.0,0.0,0.0,0.0,0.0
24436000000,27,24436000000,imu_link,0.000592319506369,-0.368983982779,-0.000504264094847,0.929435428272,0.0,0.0,0.0,0.0,0.0,0.0,0.0,0.0,0.0,0.00445917714651,-0.0143215555475,-0.000361301556524,0.0,0.0,0.0,0.0,0.0,0.0,0.0,0.0,0.0,6.19143320781,0.00177752298198,7.34044222533,0.0,0.0,0.0,0.0,0.0,0.0,0.0,0.0,0.0
24440000000,28,24440000000,imu_link,0.000600380507123,-0.369009935359,-0.000501617988519,0.929425120991,0.0,0.0,0.0,0.0,0.0,0.0,0.0,0.0,0.0,0.00424387135108,-0.0139594186684,-0.000252410284041,0.0,0.0,0.0,0.0,0.0,0.0,0.0,0.0,0.0,6.19185932019,0.00157879249222,7.33557709532,0.0,0.0,0.0,0.0,0.0,0.0,0.0,0.0,0.0
24444000000,29,24444000000,imu_link,0.000608207447758,-0.369035343194,-0.000498925396366,0.929415029269,0.0,0.0,0.0,0.0,0.0,0.0,0.0,0.0,0.0,0.00414347620337,-0.0136665415364,-0.0001877319453,0.0,0.0,0.0,0.0,0.0,0.0,0.0,0.0,0.0,6.19421998643,0.0014400401552,7.33640124414,0.0,0.0,0.0,0.0,0.0,0.0,0.0,0.0,0.0
24448000000,30,24448000000,imu_link,0.000616001280021,-0.36906033616,-0.000496184312445,0.929405101459,0.0,0.0,0.0,0.0,0.0,0.0,0.0,0.0,0.0,0.00413688474153,-0.0134434973471,-0.00015917365013,0.0,0.0,0.0,0.0,0.0,0.0,0.0,0.0,0.0,6.19592565931,0.00137193860679,7.33587011502,0.0,0.0,0.0,0.0,0.0,0.0,0.0,0.0,0.0
24452000000,31,24452000000,imu_link,0.000623829012536,-0.369084937766,-0.000493372147796,0.92939532823,0.0,0.0,0.0,0.0,0.0,0.0,0.0,0.0,0.0,0.00416561010908,-0.0132330766793,-0.000132480062049,0.0,0.0,0.0,0.0,0.0,0.0,0.0,0.0,0.0,6.19706734382,0.00133965955264,7.33278585559,0.0,0.0,0.0,0.0,0.0,0.0,0.0,0.0,0.0
24456000000,32,24456000000,imu_link,0.000631694846958,-0.369109065512,-0.000490484573264,0.929385742382,0.0,0.0,0.0,0.0,0.0,0.0,0.0,0.0,0.0,0.0041970569608,-0.0129782623483,-0.000104570265462,0.0,0.0,0.0,0.0,0.0,0.0,0.0,0.0,0.0,6.19833226451,0.00132221354666,7.32907477185,0.0,0.0,0.0,0.0,0.0,0.0,0.0,0.0,0.0
24460000000,33,24460000000,imu_link,0.000639520937874,-0.369132673077,-0.000487536552789,0.9293763624,0.0,0.0,0.0,0.0,0.0,0.0,0.0,0.0,0.0,0.00418955141708,-0.0126985346976,-6.92604330218e-05,0.0,0.0,0.0,0.0,0.0,0.0,0.0,0.0,0.0,6.20067339306,0.00136648052148,7.32805861671,0.0,0.0,0.0,0.0,0.0,0.0,0.0,0.0,0.0
24464000000,34,24464000000,imu_link,0.000647098611664,-0.369155929844,-0.000484579918432,0.929367121167,0.0,0.0,0.0,0.0,0.0,0.0,0.0,0.0,0.0,0.00407557486723,-0.0125099726874,-1.94865739835e-05,0.0,0.0,0.0,0.0,0.0,0.0,0.0,0.0,0.0,6.20224154113,0.00145864273318,7.32695585608,0.0,0.0,0.0,0.0,0.0,0.0,0.0,0.0,0.0
24468000000,35,24468000000,imu_link,0.000653993645979,-0.369179103802,-0.00048169427224,0.929357912528,0.0,0.0,0.0,0.0,0.0,0.0,0.0,0.0,0.0,0.00374523006476,-0.0124656646412,7.3507702511e-05,0.0,0.0,0.0,0.0,0.0,0.0,0.0,0.0,0.0,6.20452272906,0.00156109607806,7.32814331131,0.0,0.0,0.0,0.0,0.0,0.0,0.0,0.0,0.0
24472000000,36,24472000000,imu_link,0.000659865477739,-0.369202397238,-0.000478943610286,0.929348656353,0.0,0.0,0.0,0.0,0.0,0.0,0.0,0.0,0.0,0.00324489700976,-0.0125302494088,0.000199683488609,0.0,0.0,0.0,0.0,0.0,0.0,0.0,0.0,0.0,6.20664223093,0.00158995059763,7.32827694492,0.0,0.0,0.0,0.0,0.0,0.0,0.0,0.0,0.0
24476000000,37,24476000000,imu_link,0.000664614675492,-0.369225907028,-0.000476371739556,0.92933931421,0.0,0.0,0.0,0.0,0.0,0.0,0.0,0.0,0.0,0.0026903129063,-0.0126469806457,0.000323894175684,0.0,0.0,0.0,0.0,0.0,0.0,0.0,0.0,0.0,6.20851657699,0.00145400475234,7.32738121612,0.0,0.0,0.0,0.0,0.0,0.0,0.0,0.0,0.0
24480000000,38,24480000000,imu_link,0.000668722618985,-0.369249581129,-0.000473928128231,0.929329906459,0.0,0.0,0.0,0.0,0.0,0.0,0.0,0.0,0.0,0.00236872410035,-0.0127356387835,0.000382718739436,0.0,0.0,0.0,0.0,0.0,0.0,0.0,0.0,0.0,6.21104894158,0.00113791086332,7.32677580128,0.0,0.0,0.0,0.0,0.0,0.0,0.0,0.0,0.0
24484000000,39,24484000000,imu_link,0.000672817573324,-0.369273219104,-0.000471545075171,0.929320512317,0.0,0.0,0.0,0.0,0.0,0.0,0.0,0.0,0.0,0.00235149482722,-0.0127163629754,0.000356968702593,0.0,0.0,0.0,0.0,0.0,0.0,0.0,0.0,0.0,6.2141690683,0.000933837218935,7.32623837037,0.0,0.0,0.0,0.0,0.0,0.0,0.0,0.0,0.0
24488000000,40,24488000000,imu_link,0.000677306412964,-0.369296778048,-0.000469193903935,0.929311148559,0.0,0.0,0.0,0.0,0.0,0.0,0.0,0.0,0.0,0.00252860226582,-0.0126739478808,0.000269409415164,0.0,0.0,0.0,0.0,0.0,0.0,0.0,0.0,0.0,6.21639188382,0.0008688200737,7.32530233992,0.0,0.0,0.0,0.0,0.0,0.0,0.0,0.0,0.0
24492000000,41,24492000000,imu_link,0.000682170740376,-0.369320209955,-0.000466884205884,0.929301834272,0.0,0.0,0.0,0.0,0.0,0.0,0.0,0.0,0.0,0.00269537023946,-0.0126057110697,0.000180774041049,0.0,0.0,0.0,0.0,0.0,0.0,0.0,0.0,0.0,6.21651710615,0.000946689043155,7.31979225256,0.0,0.0,0.0,0.0,0.0,0.0,0.0,0.0,0.0
24496000000,42,24496000000,imu_link,0.000687259324102,-0.369343406903,-0.000464625557987,0.929292612461,0.0,0.0,0.0,0.0,0.0,0.0,0.0,0.0,0.0,0.00279005782286,-0.012479425773,0.000115583792655,0.0,0.0,0.0,0.0,0.0,0.0,0.0,0.0,0.0,6.21766156542,0.00103199738856,7.31583461118,0.0,0.0,0.0,0.0,0.0,0.0,0.0,0.0,0.0
24500000000,43,24500000000,imu_link,0.000692535316903,-0.369366233849,-0.000462402531686,0.929283536856,0.0,0.0,0.0,0.0,0.0,0.0,0.0,0.0,0.0,0.00287042226014,-0.0122804737485,6.43300180788e-05,0.0,0.0,0.0,0.0,0.0,0.0,0.0,0.0,0.0,6.21860358407,0.00105511640732,7.3109305168,0.0,0.0,0.0,0.0,0.0,0.0,0.0,0.0,0.0
24504000000,44,24504000000,imu_link,0.000698413011607,-0.369388776024,-0.000460135205928,0.929274573333,0.0,0.0,0.0,0.0,0.0,0.0,0.0,0.0,0.0,0.00315807480801,-0.0121273032666,-2.62834803141e-05,0.0,0.0,0.0,0.0,0.0,0.0,0.0,0.0,0.0,6.22103485534,0.00105043518612,7.311178099,0.0,0.0,0.0,0.0,0.0,0.0,0.0,0.0,0.0
24508000000,45,24508000000,imu_link,0.000705294456024,-0.369411391434,-0.000457776138324,0.929265579304,0.0,0.0,0.0,0.0,0.0,0.0,0.0,0.0,0.0,0.00364142605732,-0.0121667026474,-0.000169025180835,0.0,0.0,0.0,0.0,0.0,0.0,0.0,0.0,0.0,6.22519676298,0.00113581309539,7.31751943631,0.0,0.0,0.0,0.0,0.0,0.0,0.0,0.0,0.0
24512000000,46,24512000000,imu_link,0.000713186377064,-0.369434454058,-0.000455358916759,0.929256406041,0.0,0.0,0.0,0.0,0.0,0.0,0.0,0.0,0.0,0.00412183356616,-0.0124073464436,-0.00032852904767,0.0,0.0,0.0,0.0,0.0,0.0,0.0,0.0,0.0,6.22685831032,0.00135908098802,7.31851796207,0.0,0.0,0.0,0.0,0.0,0.0,0.0,0.0,0.0
24516000000,47,24516000000,imu_link,0.000721728693772,-0.369458139873,-0.00045293873738,0.929246983765,0.0,0.0,0.0,0.0,0.0,0.0,0.0,0.0,0.0,0.00442480277987,-0.0127427462449,-0.000447128517188,0.0,0.0,0.0,0.0,0.0,0.0,0.0,0.0,0.0,6.22856465904,0.00164970751984,7.31794351319,0.0,0.0,0.0,0.0,0.0,0.0,0.0,0.0,0.0
24520000000,48,24520000000,imu_link,0.000730561186676,-0.369482403063,-0.000450520732355,0.9292373309,0.0,0.0,0.0,0.0,0.0,0.0,0.0,0.0,0.0,0.00455943776046,-0.0130535402483,-0.000501586619486,0.0,0.0,0.0,0.0,0.0,0.0,0.0,0.0,0.0,6.23037177091,0.00182414725714,7.31588262122,0.0,0.0,0.0,0.0,0.0,0.0,0.0,0.0,0.0
24524000000,49,24524000000,imu_link,0.000739300131535,-0.369507052151,-0.000448084546344,0.929227523842,0.0,0.0,0.0,0.0,0.0,0.0,0.0,0.0,0.0,0.00451947562091,-0.013261335591,-0.00047575098807,0.0,0.0,0.0,0.0,0.0,0.0,0.0,0.0,0.0,6.23256378494,0.00189897364176,7.31389930879,0.0,0.0,0.0,0.0,0.0,0.0,0.0,0.0,0.0
24528000000,50,24528000000,imu_link,0.000747617002833,-0.369531932743,-0.000445627574178,0.929217624224,0.0,0.0,0.0,0.0,0.0,0.0,0.0,0.0,0.0,0.00432730083302,-0.0133860829316,-0.00038804903819,0.0,0.0,0.0,0.0,0.0,0.0,0.0,0.0,0.0,6.23464312078,0.00188349167413,7.3116343561,0.0,0.0,0.0,0.0,0.0,0.0,0.0,0.0,0.0
24532000000,51,24532000000,imu_link,0.00075511558955,-0.369557039572,-0.000443176905548,0.929207634438,0.0,0.0,0.0,0.0,0.0,0.0,0.0,0.0,0.0,0.00394603804076,-0.0135080398153,-0.000239722095997,0.0,0.0,0.0,0.0,0.0,0.0,0.0,0.0,0.0,6.23612898613,0.00185928414583,7.30927583576,0.0,0.0,0.0,0.0,0.0,0.0,0.0,0.0,0.0
24536000000,52,24536000000,imu_link,0.000761452335642,-0.369582267465,-0.000440778787216,0.929197596574,0.0,0.0,0.0,0.0,0.0,0.0,0.0,0.0,0.0,0.00339657726366,-0.0135734474793,-4.94189189418e-05,0.0,0.0,0.0,0.0,0.0,0.0,0.0,0.0,0.0,6.23792595492,0.00180490133201,7.30689548012,0.0,0.0,0.0,0.0,0.0,0.0,0.0,0.0,0.0
24540000000,53,24540000000,imu_link,0.000766402178603,-0.36960757457,-0.000438515545175,0.929187527441,0.0,0.0,0.0,0.0,0.0,0.0,0.0,0.0,0.0,0.00272732915467,-0.0136163842634,0.000144228386772,0.0,0.0,0.0,0.0,0.0,0.0,0.0,0.0,0.0,6.23978725005,0.00170881211838,7.30517309,0.0,0.0,0.0,0.0,0.0,0.0,0.0,0.0,0.0
24544000000,54,24544000000,imu_link,0.000769959843982,-0.369632779849,-0.00043641543657,0.929177499063,0.0,0.0,0.0,0.0,0.0,0.0,0.0,0.0,0.0,0.0020503465122,-0.0135619130126,0.000325687215532,0.0,0.0,0.0,0.0,0.0,0.0,0.0,0.0,0.0,6.24098724996,0.00153292442862,7.30052937641,0.0,0.0,0.0,0.0,0.0,0.0,0.0,0.0,0.0
24548000000,55,24548000000,imu_link,0.000772427890563,-0.369657618253,-0.000434445151027,0.929167616676,0.0,0.0,0.0,0.0,0.0,0.0,0.0,0.0,0.0,0.0015199921887,-0.0133647730239,0.000466642911384,0.0,0.0,0.0,0.0,0.0,0.0,0.0,0.0,0.0,6.24280175912,0.00129884257641,7.29660823167,0.0,0.0,0.0,0.0,0.0,0.0,0.0,0.0,0.0
24552000000,56,24552000000,imu_link,0.000774184673141,-0.369681702795,-0.000432532188941,0.929158034014,0.0,0.0,0.0,0.0,0.0,0.0,0.0,0.0,0.0,0.00117867590918,-0.0129593200166,0.000571247394849,0.0,0.0,0.0,0.0,0.0,0.0,0.0,0.0,0.0,6.24394292356,0.00114132403787,7.29067014184,0.0,0.0,0.0,0.0,0.0,0.0,0.0,0.0,0.0
24556000000,57,24556000000,imu_link,0.000775536789639,-0.369704721791,-0.000430615442493,0.929148874938,0.0,0.0,0.0,0.0,0.0,0.0,0.0,0.0,0.0,0.000990981635469,-0.0123860794101,0.000647483495513,0.0,0.0,0.0,0.0,0.0,0.0,0.0,0.0,0.0,6.24495119234,0.00107247609749,7.28531184496,0.0,0.0,0.0,0.0,0.0,0.0,0.0,0.0,0.0
24560000000,58,24560000000,imu_link,0.000776488580259,-0.369726726487,-0.000428705424184,0.929140119141,0.0,0.0,0.0,0.0,0.0,0.0,0.0,0.0,0.0,0.000803381988357,-0.0118404035627,0.000718052473997,0.0,0.0,0.0,0.0,0.0,0.0,0.0,0.0,0.0,6.24554011296,0.00109817548519,7.28201334749,0.0,0.0,0.0,0.0,0.0,0.0,0.0,0.0,0.0
24564000000,59,24564000000,imu_link,0.000776946785278,-0.369748466436,-0.000426849111804,0.929131468481,0.0,0.0,0.0,0.0,0.0,0.0,0.0,0.0,0.0,0.000564051069027,-0.0116981003821,0.000784267950326,0.0,0.0,0.0,0.0,0.0,0.0,0.0,0.0,0.0,6.24808245775,0.001155626985,7.28824423081,0.0,0.0,0.0,0.0,0.0,0.0,0.0,0.0,0.0
24568000000,60,24568000000,imu_link,0.00077705622526,-0.369770919703,-0.000425040665961,0.929122533612,0.0,0.0,0.0,0.0,0.0,0.0,0.0,0.0,0.0,0.000393440141674,-0.0120821195957,0.00082672491507,0.0,0.0,0.0,0.0,0.0,0.0,0.0,0.0,0.0,6.25148476982,0.0010942385858,7.29833714183,0.0,0.0,0.0,0.0,0.0,0.0,0.0,0.0,0.0
24572000000,61,24572000000,imu_link,0.000777043696613,-0.369794737409,-0.000423250987289,0.929113055148,0.0,0.0,0.0,0.0,0.0,0.0,0.0,0.0,0.0,0.000333809637196,-0.0128165214173,0.000840971237975,0.0,0.0,0.0,0.0,0.0,0.0,0.0,0.0,0.0,6.25292149332,0.00100077484092,7.30118682153,0.0,0.0,0.0,0.0,0.0,0.0,0.0,0.0,0.0
24576000000,62,24576000000,imu_link,0.000777506474184,-0.369820010056,-0.000421433123756,0.929102996465,0.0,0.0,0.0,0.0,0.0,0.0,0.0,0.0,0.0,0.00056036087982,-0.0135995931565,0.000766624317295,0.0,0.0,0.0,0.0,0.0,0.0,0.0,0.0,0.0,6.25420024708,0.000920925449272,7.29943763267,0.0,0.0,0.0,0.0,0.0,0.0,0.0,0.0,0.0
24580000000,63,24580000000,imu_link,0.000778798368098,-0.369846287249,-0.000419591006038,0.929092536417,0.0,0.0,0.0,0.0,0.0,0.0,0.0,0.0,0.0,0.000950380667811,-0.0141402882593,0.000624885674414,0.0,0.0,0.0,0.0,0.0,0.0,0.0,0.0,0.0,6.25632064074,0.000987864070783,7.29508143175,0.0,0.0,0.0,0.0,0.0,0.0,0.0,0.0,0.0
24584000000,64,24584000000,imu_link,0.000780804411141,-0.369873076133,-0.000417749087454,0.929081871194,0.0,0.0,0.0,0.0,0.0,0.0,0.0,0.0,0.0,0.00128228640102,-0.0144157845329,0.000492886672564,0.0,0.0,0.0,0.0,0.0,0.0,0.0,0.0,0.0,6.25801284609,0.00118909547869,7.289539866,0.0,0.0,0.0,0.0,0.0,0.0,0.0,0.0,0.0
24588000000,65,24588000000,imu_link,0.000783092627982,-0.36990023525,-0.00041593218154,0.929071057416,0.0,0.0,0.0,0.0,0.0,0.0,0.0,0.0,0.0,0.00140887725375,-0.0146151973204,0.000429196529056,0.0,0.0,0.0,0.0,0.0,0.0,0.0,0.0,0.0,6.25906115714,0.00141575905196,7.28579832693,0.0,0.0,0.0,0.0,0.0,0.0,0.0,0.0,0.0
24592000000,66,24592000000,imu_link,0.000785043432984,-0.369927884593,-0.000414184283103,0.929060047768,0.0,0.0,0.0,0.0,0.0,0.0,0.0,0.0,0.0,0.00123955316745,-0.0148792474437,0.000459695674724,0.0,0.0,0.0,0.0,0.0,0.0,0.0,0.0,0.0,6.26047552543,0.00158272777614,7.28427612385,0.0,0.0,0.0,0.0,0.0,0.0,0.0,0.0,0.0
24596000000,67,24596000000,imu_link,0.000786256855387,-0.369956131547,-0.000412533015141,0.929048799767,0.0,0.0,0.0,0.0,0.0,0.0,0.0,0.0,0.0,0.000879360977673,-0.0152011333676,0.00055138232501,0.0,0.0,0.0,0.0,0.0,0.0,0.0,0.0,0.0,6.26178408293,0.001675547729,7.28258359461,0.0,0.0,0.0,0.0,0.0,0.0,0.0,0.0,0.0
24600000000,68,24600000000,imu_link,0.000786671356544,-0.369984950365,-0.000410972689329,0.92903732366,0.0,0.0,0.0,0.0,0.0,0.0,0.0,0.0,0.0,0.000491627892463,-0.015509173337,0.000657098149679,0.0,0.0,0.0,0.0,0.0,0.0,0.0,0.0,0.0,6.26250615891,0.00168179521809,7.27856719016,0.0,0.0,0.0,0.0,0.0,0.0,0.0,0.0,0.0
24604000000,69,24604000000,imu_link,0.000786385283503,-0.370014107107,-0.000409502945724,0.929025712479,0.0,0.0,0.0,0.0,0.0,0.0,0.0,0.0,0.0,0.000149563645598,-0.0156913124572,0.000744727140533,0.0,0.0,0.0,0.0,0.0,0.0,0.0,0.0,0.0,6.26323780062,0.00166244449686,7.27293899964,0.0,0.0,0.0,0.0,0.0,0.0,0.0,0.0,0.0
24608000000,70,24608000000,imu_link,0.000785442936728,-0.370043228419,-0.000408139286438,0.929014114857,0.0,0.0,0.0,0.0,0.0,0.0,0.0,0.0,0.0,-0.000174922874452,-0.0156725227641,0.000816853726294,0.0,0.0,0.0,0.0,0.0,0.0,0.0,0.0,0.0,6.26515573288,0.00167838679462,7.26870400607,0.0,0.0,0.0,0.0,0.0,0.0,0.0,0.0,0.0
24612000000,71,24612000000,imu_link,0.000783766922617,-0.370071997613,-0.000406895755956,0.929002657008,0.0,0.0,0.0,0.0,0.0,0.0,0.0,0.0,0.0,-0.000538069703514,-0.0154832970448,0.000896687602422,0.0,0.0,0.0,0.0,0.0,0.0,0.0,0.0,0.0,6.26685281766,0.00168146318833,7.26478991446,0.0,0.0,0.0,0.0,0.0,0.0,0.0,0.0,0.0
24616000000,72,24616000000,imu_link,0.000781353570477,-0.370100338507,-0.000405765868531,0.928991369324,0.0,0.0,0.0,0.0,0.0,0.0,0.0,0.0,0.0,-0.000901746075738,-0.0152530589322,0.000980201106246,0.0,0.0,0.0,0.0,0.0,0.0,0.0,0.0,0.0,6.26708347322,0.00161220124711,7.26016497441,0.0,0.0,0.0,0.0,0.0,0.0,0.0,0.0,0.0
24620000000,73,24620000000,imu_link,0.000778357076235,-0.37012866541,-0.000404736053658,0.928980086649,0.0,0.0,0.0,0.0,0.0,0.0,0.0,0.0,0.0,-0.00119113630428,-0.0152457906434,0.00104162393326,0.0,0.0,0.0,0.0,0.0,0.0,0.0,0.0,0.0,6.26922796131,0.00149710283358,7.2631120665,0.0,0.0,0.0,0.0,0.0,0.0,0.0,0.0,0.0
24624000000,74,24624000000,imu_link,0.000775224968054,-0.370157565406,-0.000403734224893,0.928968574709,0.0,0.0,0.0,0.0,0.0,0.0,0.0,0.0,0.0,-0.00125910165861,-0.015554454094,0.00105389860731,0.0,0.0,0.0,0.0,0.0,0.0,0.0,0.0,0.0,6.27218904825,0.00137527576831,7.26927330921,0.0,0.0,0.0,0.0,0.0,0.0,0.0,0.0,0.0
24628000000,75,24628000000,imu_link,0.000772137834217,-0.370187328513,-0.000402743202551,0.928956717727,0.0,0.0,0.0,0.0,0.0,0.0,0.0,0.0,0.0,-0.00123990384544,-0.0160192101628,0.0010408202962,0.0,0.0,0.0,0.0,0.0,0.0,0.0,0.0,0.0,6.2746434157,0.00139234193561,7.27204324934,0.0,0.0,0.0,0.0,0.0,0.0,0.0,0.0,0.0
24632000000,76,24632000000,imu_link,0.00076899410325,-0.370217994644,-0.000401804872018,0.928944499765,0.0,0.0,0.0,0.0,0.0,0.0,0.0,0.0,0.0,-0.0012756237008,-0.0165054924128,0.00102709780008,0.0,0.0,0.0,0.0,0.0,0.0,0.0,0.0,0.0,6.27527228944,0.00149701431674,7.26892407191,0.0,0.0,0.0,0.0,0.0,0.0,0.0,0.0,0.0
24636000000,77,24636000000,imu_link,0.000765517315308,-0.370249225634,-0.000400968416105,0.92893205571,0.0,0.0,0.0,0.0,0.0,0.0,0.0,0.0,0.0,-0.00144897691894,-0.0168098116793,0.00104160347308,0.0,0.0,0.0,0.0,0.0,0.0,0.0,0.0,0.0,6.27693547743,0.00159025532588,7.26448305825,0.0,0.0,0.0,0.0,0.0,0.0,0.0,0.0,0.0
24640000000,78,24640000000,imu_link,0.000761307447975,-0.370280730462,-0.00040027425524,0.928919501808,0.0,0.0,0.0,0.0,0.0,0.0,0.0,0.0,0.0,-0.00181571276248,-0.0169575369819,0.0011113060868,0.0,0.0,0.0,0.0,0.0,0.0,0.0,0.0,0.0,6.27882519505,0.00169225720884,7.26122732379,0.0,0.0,0.0,0.0,0.0,0.0,0.0,0.0,0.0
24644000000,79,24644000000,imu_link,0.000756290131885,-0.370312583131,-0.000399732514061,0.928906808574,0.0,0.0,0.0,0.0,0.0,0.0,0.0,0.0,0.0,-0.00221883659445,-0.0171451104856,0.00119010915681,0.0,0.0,0.0,0.0,0.0,0.0,0.0,0.0,0.0,6.27997811663,0.00171879320663,7.25962862897,0.0,0.0,0.0,0.0,0.0,0.0,0.0,0.0,0.0
24648000000,80,24648000000,imu_link,0.000750842574568,-0.370344968589,-0.000399301475939,0.928893901925,0.0,0.0,0.0,0.0,0.0,0.0,0.0,0.0,0.0,-0.00243897377673,-0.017432209386,0.00121851343247,0.0,0.0,0.0,0.0,0.0,0.0,0.0,0.0,0.0,6.28203855968,0.00169756811552,7.26092881343,0.0,0.0,0.0,0.0,0.0,0.0,0.0,0.0,0.0
24652000000,81,24652000000,imu_link,0.00074534708502,-0.370377850984,-0.000398919501656,0.928880795808,0.0,0.0,0.0,0.0,0.0,0.0,0.0,0.0,0.0,-0.0024701469295,-0.0176999738928,0.001204748349,0.0,0.0,0.0,0.0,0.0,0.0,0.0,0.0,0.0,6.28339734935,0.00171811451592,7.25884356809,0.0,0.0,0.0,0.0,0.0,0.0,0.0,0.0,0.0
24656000000,82,24656000000,imu_link,0.000739941293837,-0.37041096327,-0.00039854464927,0.92886759656,0.0,0.0,0.0,0.0,0.0,0.0,0.0,0.0,0.0,-0.0024297257199,-0.0178239766052,0.00118489660652,0.0,0.0,0.0,0.0,0.0,0.0,0.0,0.0,0.0,6.28467522927,0.00183622432397,7.25449994734,0.0,0.0,0.0,0.0,0.0,0.0,0.0,0.0,0.0
24660000000,83,24660000000,imu_link,0.000734644318536,-0.370443724256,-0.000398177679352,0.928854535927,0.0,0.0,0.0,0.0,0.0,0.0,0.0,0.0,0.0,-0.00238076911071,-0.0176351297035,0.00116098007618,0.0,0.0,0.0,0.0,0.0,0.0,0.0,0.0,0.0,6.28753717241,0.00193440867862,7.25107576141,0.0,0.0,0.0,0.0,0.0,0.0,0.0,0.0,0.0
24664000000,84,24664000000,imu_link,0.000729411614809,-0.370475739308,-0.000397830695364,0.928841771387,0.0,0.0,0.0,0.0,0.0,0.0,0.0,0.0,0.0,-0.00235487873928,-0.0172338491271,0.00113957851479,0.0,0.0,0.0,0.0,0.0,0.0,0.0,0.0,0.0,6.28911323609,0.00202119256055,7.24653434846,0.0,0.0,0.0,0.0,0.0,0.0,0.0,0.0,0.0
24668000000,85,24668000000,imu_link,0.000724239127586,-0.370506872373,-0.000397509647009,0.928829357303,0.0,0.0,0.0,0.0,0.0,0.0,0.0,0.0,0.0,-0.00233202045211,-0.0167593161493,0.00111612713421,0.0,0.0,0.0,0.0,0.0,0.0,0.0,0.0,0.0,6.29055204975,0.0020950975542,7.24414887356,0.0,0.0,0.0,0.0,0.0,0.0,0.0,0.0,0.0
24672000000,86,24672000000,imu_link,0.000719243514854,-0.370537224809,-0.000397196922164,0.92881725326,0.0,0.0,0.0,0.0,0.0,0.0,0.0,0.0,0.0,-0.00225168672696,-0.0163393121997,0.0010792739073,0.0,0.0,0.0,0.0,0.0,0.0,0.0,0.0,0.0,6.29066829447,0.00216078721415,7.24092944478,0.0,0.0,0.0,0.0,0.0,0.0,0.0,0.0,0.0
24676000000,87,24676000000,imu_link,0.000714591823494,-0.370567020672,-0.000396852128171,0.928805369847,0.0,0.0,0.0,0.0,0.0,0.0,0.0,0.0,0.0,-0.00208621514631,-0.016039878627,0.00103029292191,0.0,0.0,0.0,0.0,0.0,0.0,0.0,0.0,0.0,6.29138372071,0.00225038247461,7.23994354853,0.0,0.0,0.0,0.0,0.0,0.0,0.0,0.0,0.0
24680000000,88,24680000000,imu_link,0.000710429551214,-0.370596430453,-0.000396440893042,0.928793639007,0.0,0.0,0.0,0.0,0.0,0.0,0.0,0.0,0.0,-0.00184674828679,-0.0158321915584,0.000970359407532,0.0,0.0,0.0,0.0,0.0,0.0,0.0,0.0,0.0,6.29228397165,0.00233735212601,7.238660169,0.0,0.0,0.0,0.0,0.0,0.0,0.0,0.0,0.0
24684000000,89,24684000000,imu_link,0.000706997617278,-0.370625320455,-0.00039593490491,0.928782113968,0.0,0.0,0.0,0.0,0.0,0.0,0.0,0.0,0.0,-0.00149020005404,-0.0155524949933,0.000878888170362,0.0,0.0,0.0,0.0,0.0,0.0,0.0,0.0,0.0,6.29425297632,0.00241952865759,7.23692209749,0.0,0.0,0.0,0.0,0.0,0.0,0.0,0.0,0.0
24688000000,90,24688000000,imu_link,0.000704418819777,-0.37065342286,-0.000395329032571,0.928770901585,0.0,0.0,0.0,0.0,0.0,0.0,0.0,0.0,0.0,-0.00107576775721,-0.0151285984778,0.000766960001197,0.0,0.0,0.0,0.0,0.0,0.0,0.0,0.0,0.0,6.29617411222,0.00261941798294,7.23446577704,0.0,0.0,0.0,0.0,0.0,0.0,0.0,0.0,0.0
24692000000,91,24692000000,imu_link,0.00070258466907,-0.37068050748,-0.000394639705771,0.928760093893,0.0,0.0,0.0,0.0,0.0,0.0,0.0,0.0,0.0,-0.000714841995211,-0.0145807771904,0.000667433616169,0.0,0.0,0.0,0.0,0.0,0.0,0.0,0.0,0.0,6.2962546796,0.00294647323078,7.22849194412,0.0,0.0,0.0,0.0,0.0,0.0,0.0,0.0,0.0
24696000000,92,24696000000,imu_link,0.000701279965072,-0.370706529161,-0.000393890289752,0.928749709176,0.0,0.0,0.0,0.0,0.0,0.0,0.0,0.0,0.0,-0.000458198883278,-0.0140086496912,0.000596920122946,0.0,0.0,0.0,0.0,0.0,0.0,0.0,0.0,0.0,6.29762979029,0.00323638207135,7.2270265544,0.0,0.0,0.0,0.0,0.0,0.0,0.0,0.0,0.0
24700000000,93,24700000000,imu_link,0.000700382747911,-0.370731622173,-0.000393078977711,0.928739694034,0.0,0.0,0.0,0.0,0.0,0.0,0.0,0.0,0.0,-0.000257812096731,-0.0135087955141,0.000549881220809,0.0,0.0,0.0,0.0,0.0,0.0,0.0,0.0,0.0,6.29857583884,0.00346355401847,7.22607443057,0.0,0.0,0.0,0.0,0.0,0.0,0.0,0.0,0.0
24704000000,94,24704000000,imu_link,0.000699916589347,-0.370756010071,-0.000392170233035,0.928729959308,0.0,0.0,0.0,0.0,0.0,0.0,0.0,0.0,0.0,-3.98175853926e-05,-0.0131292629536,0.000515030659747,0.0,0.0,0.0,0.0,0.0,0.0,0.0,0.0,0.0,6.30001397927,0.00358456504357,7.22687140835,0.0,0.0,0.0,0.0,0.0,0.0,0.0,0.0,0.0
24708000000,95,24708000000,imu_link,0.000699962261977,-0.370779920881,-0.000391105473772,0.92872041399,0.0,0.0,0.0,0.0,0.0,0.0,0.0,0.0,0.0,0.000226620735207,-0.0128724533153,0.000492466304246,0.0,0.0,0.0,0.0,0.0,0.0,0.0,0.0,0.0,6.30244615126,0.00365766460937,7.22946520955,0.0,0.0,0.0,0.0,0.0,0.0,0.0,0.0,0.0
24712000000,96,24712000000,imu_link,0.000700587919408,-0.37080352815,-0.000389833803286,0.9287109888,0.0,0.0,0.0,0.0,0.0,0.0,0.0,0.0,0.0,0.000534200460184,-0.0127090442675,0.000480941540898,0.0,0.0,0.0,0.0,0.0,0.0,0.0,0.0,0.0,6.30463934396,0.00372241692717,7.23096867182,0.0,0.0,0.0,0.0,0.0,0.0,0.0,0.0,0.0
24716000000,97,24716000000,imu_link,0.000701871439247,-0.370826850521,-0.00038836147323,0.928701676258,0.0,0.0,0.0,0.0,0.0,0.0,0.0,0.0,0.0,0.00087679013062,-0.0125556670477,0.000452072222617,0.0,0.0,0.0,0.0,0.0,0.0,0.0,0.0,0.0,6.30598895004,0.00380150685884,7.22948420998,0.0,0.0,0.0,0.0,0.0,0.0,0.0,0.0,0.0
24720000000,98,24720000000,imu_link,0.000703995979259,-0.370850037544,-0.000386719278593,0.928692416514,0.0,0.0,0.0,0.0,0.0,0.0,0.0,0.0,0.0,0.00129876891662,-0.0124828057323,0.000374975306341,0.0,0.0,0.0,0.0,0.0,0.0,0.0,0.0,0.0,6.30816171815,0.00388470954137,7.23082739983,0.0,0.0,0.0,0.0,0.0,0.0,0.0,0.0,0.0
24724000000,99,24724000000,imu_link,0.000707262967714,-0.370873439988,-0.000384868109825,0.92868306928,0.0,0.0,0.0,0.0,0.0,0.0,0.0,0.0,0.0,0.00186808200139,-0.0125987635942,0.000260232037993,0.0,0.0,0.0,0.0,0.0,0.0,0.0,0.0,0.0,6.31131487483,0.00397935263825,7.23569691683,0.0,0.0,0.0,0.0,0.0,0.0,0.0,0.0,0.0
24728000000,100,24728000000,imu_link,0.000711822442783,-0.370897500001,-0.000382807332462,0.928673457821,0.0,0.0,0.0,0.0,0.0,0.0,0.0,0.0,0.0,0.00250732632687,-0.0129527749022,0.00011806922756,0.0,0.0,0.0,0.0,0.0,0.0,0.0,0.0,0.0,6.314071074,0.00411610924435,7.23996775413,0.0,0.0,0.0,0.0,0.0,0.0,0.0,0.0,0.0
24732000000,101,24732000000,imu_link,0.00071759486928,-0.370922431069,-0.000380610546068,0.928663496818,0.0,0.0,0.0,0.0,0.0,0.0,0.0,0.0,0.0,0.00309605805943,-0.0134217792959,-4.34739954602e-05,0.0,0.0,0.0,0.0,0.0,0.0,0.0,0.0,0.0,6.31642507297,0.00436446349565,7.24165070641,0.0,0.0,0.0,0.0,0.0,0.0,0.0,0.0,0.0
24736000000,102,24736000000,imu_link,0.000724442125204,-0.37094818567,-0.000378325010088,0.92865320524,0.0,0.0,0.0,0.0,0.0,0.0,0.0,0.0,0.0,0.00361187042585,-0.013865244239,-0.000201371346337,0.0,0.0,0.0,0.0,0.0,0.0,0.0,0.0,0.0,6.31719116652,0.00462428866033,7.23791229374,0.0,0.0,0.0,0.0,0.0,0.0,0.0,0.0,0.0
24740000000,103,24740000000,imu_link,0.000732056865741,-0.370974542491,-0.000376009997846,0.928642671609,0.0,0.0,0.0,0.0,0.0,0.0,0.0,0.0,0.0,0.00397390262586,-0.0141896100048,-0.000329860896044,0.0,0.0,0.0,0.0,0.0,0.0,0.0,0.0,0.0,6.31900645949,0.004887968304,7.23501521472,0.0,0.0,0.0,0.0,0.0,0.0,0.0,0.0,0.0
24744000000,104,24744000000,imu_link,0.000740080031673,-0.371001193213,-0.000373692102518,0.928632019301,0.0,0.0,0.0,0.0,0.0,0.0,0.0,0.0,0.0,0.00416417672078,-0.0143480094016,-0.000404194666004,0.0,0.0,0.0,0.0,0.0,0.0,0.0,0.0,0.0,6.32105433786,0.00509997855223,7.23210812646,0.0,0.0,0.0,0.0,0.0,0.0,0.0,0.0,0.0
24748000000,105,24748000000,imu_link,0.000748261173313,-0.37102800683,-0.000371339994865,0.928621300832,0.0,0.0,0.0,0.0,0.0,0.0,0.0,0.0,0.0,0.00424392869658,-0.0144358751317,-0.00041756600775,0.0,0.0,0.0,0.0,0.0,0.0,0.0,0.0,0.0,6.32340948153,0.00522489218156,7.2315476287,0.0,0.0,0.0,0.0,0.0,0.0,0.0,0.0,0.0
24752000000,106,24752000000,imu_link,0.000756552234434,-0.371054881528,-0.000368925626578,0.928610556916,0.0,0.0,0.0,0.0,0.0,0.0,0.0,0.0,0.0,0.0043065365632,-0.0144689129184,-0.000409031207621,0.0,0.0,0.0,0.0,0.0,0.0,0.0,0.0,0.0,6.3241485582,0.00520270141273,7.22812520278,0.0,0.0,0.0,0.0,0.0,0.0,0.0,0.0,0.0
24756000000,107,24756000000,imu_link,0.000764760939536,-0.37108197125,-0.000366478442262,0.928599726173,0.0,0.0,0.0,0.0,0.0,0.0,0.0,0.0,0.0,0.00427445901109,-0.0145848608828,-0.000378449929537,0.0,0.0,0.0,0.0,0.0,0.0,0.0,0.0,0.0,6.32526138085,0.00515286116358,7.22744950947,0.0,0.0,0.0,0.0,0.0,0.0,0.0,0.0,0.0
24760000000,108,24760000000,imu_link,0.000772687861291,-0.371109334548,-0.000364040112947,0.928588785329,0.0,0.0,0.0,0.0,0.0,0.0,0.0,0.0,0.0,0.00414207630589,-0.0147323656872,-0.000330194508787,0.0,0.0,0.0,0.0,0.0,0.0,0.0,0.0,0.0,6.32584055331,0.00510905449877,7.22510864047,0.0,0.0,0.0,0.0,0.0,0.0,0.0,0.0,0.0
24764000000,109,24764000000,imu_link,0.00078023850866,-0.371136891046,-0.000361618980547,0.928577766568,0.0,0.0,0.0,0.0,0.0,0.0,0.0,0.0,0.0,0.00396424852038,-0.0148366000471,-0.000268299013374,0.0,0.0,0.0,0.0,0.0,0.0,0.0,0.0,0.0,6.32638889299,0.00505289607254,7.22159463137,0.0,0.0,0.0,0.0,0.0,0.0,0.0,0.0,0.0
24768000000,110,24768000000,imu_link,0.000787298530563,-0.371164514481,-0.000359229407291,0.928566720438,0.0,0.0,0.0,0.0,0.0,0.0,0.0,0.0,0.0,0.0037306229688,-0.0148728585635,-0.000191885802364,0.0,0.0,0.0,0.0,0.0,0.0,0.0,0.0,0.0,6.32770282472,0.00501244884472,7.21933129004,0.0,0.0,0.0,0.0,0.0,0.0,0.0,0.0,0.0
24772000000,111,24772000000,imu_link,0.000793817499842,-0.371191855798,-0.000356883339407,0.928555786519,0.0,0.0,0.0,0.0,0.0,0.0,0.0,0.0,0.0,0.00347125256862,-0.0147211651901,-0.000111765757072,0.0,0.0,0.0,0.0,0.0,0.0,0.0,0.0,0.0,6.3282363766,0.0049379394148,7.21329908411,0.0,0.0,0.0,0.0,0.0,0.0,0.0,0.0,0.0
24776000000,112,24776000000,imu_link,0.000799885381153,-0.371218673046,-0.000354572710402,0.928545061504,0.0,0.0,0.0,0.0,0.0,0.0,0.0,0.0,0.0,0.0032550686543,-0.0144391748953,-4.46698847714e-05,0.0,0.0,0.0,0.0,0.0,0.0,0.0,0.0,0.0,6.3300046138,0.00480634772494,7.21055128757,0.0,0.0,0.0,0.0,0.0,0.0,0.0,0.0,0.0
24780000000,113,24780000000,imu_link,0.000805507030574,-0.371245011375,-0.000352296292335,0.928534527401,0.0,0.0,0.0,0.0,0.0,0.0,0.0,0.0,0.0,0.00304138431613,-0.0141814834755,2.21140272396e-05,0.0,0.0,0.0,0.0,0.0,0.0,0.0,0.0,0.0,6.33035797317,0.0047700952394,7.20733026885,0.0,0.0,0.0,0.0,0.0,0.0,0.0,0.0,0.0
24784000000,114,24784000000,imu_link,0.000810599956294,-0.371271093386,-0.000350054903751,0.928524095328,0.0,0.0,0.0,0.0,0.0,0.0,0.0,0.0,0.0,0.00278932670612,-0.0140436512757,0.000103908742728,0.0,0.0,0.0,0.0,0.0,0.0,0.0,0.0,0.0,6.33327321775,0.00478375000152,7.21084268804,0.0,0.0,0.0,0.0,0.0,0.0,0.0,0.0,0.0
24788000000,115,24788000000,imu_link,0.00081524074976,-0.371297011434,-0.000347823701636,0.928513728332,0.0,0.0,0.0,0.0,0.0,0.0,0.0,0.0,0.0,0.00257747281598,-0.0139555328267,0.000183056306423,0.0,0.0,0.0,0.0,0.0,0.0,0.0,0.0,0.0,6.33444153746,0.00475959413723,7.20969229721,0.0,0.0,0.0,0.0,0.0,0.0,0.0,0.0,0.0
24792000000,116,24792000000,imu_link,0.000819618084412,-0.371322718534,-0.000345599925359,0.928503445059,0.0,0.0,0.0,0.0,0.0,0.0,0.0,0.0,0.0,0.00245371084326,-0.0138421039439,0.00022844811828,0.0,0.0,0.0,0.0,0.0,0.0,0.0,0.0,0.0,6.33578827951,0.00473669248803,7.20770886153,0.0,0.0,0.0,0.0,0.0,0.0,0.0,0.0,0.0
24796000000,117,24796000000,imu_link,0.000823864225502,-0.371347978065,-0.000343386249093,0.928493340052,0.0,0.0,0.0,0.0,0.0,0.0,0.0,0.0,0.0,0.00239077843003,-0.0136012490596,0.000247964132466,0.0,0.0,0.0,0.0,0.0,0.0,0.0,0.0,0.0,6.33684833543,0.00468213808549,7.20388241419,0.0,0.0,0.0,0.0,0.0,0.0,0.0,0.0,0.0
24800000000,118,24800000000,imu_link,0.00082825135354,-0.371372553194,-0.00034118609655,0.928483507837,0.0,0.0,0.0,0.0,0.0,0.0,0.0,0.0,0.0,0.00245349026869,-0.0132328490492,0.000215273090135,0.0,0.0,0.0,0.0,0.0,0.0,0.0,0.0,0.0,6.33845861646,0.00459607560553,7.20124946162,0.0,0.0,0.0,0.0,0.0,0.0,0.0,0.0,0.0
24804000000,119,24804000000,imu_link,0.000833042596512,-0.371396359039,-0.00033898507193,0.9284739822,0.0,0.0,0.0,0.0,0.0,0.0,0.0,0.0,0.0,0.00264100103097,-0.0128187187228,0.000140373066174,0.0,0.0,0.0,0.0,0.0,0.0,0.0,0.0,0.0,6.33971477229,0.00453130735235,7.19935525016,0.0,0.0,0.0,0.0,0.0,0.0,0.0,0.0,0.0
24808000000,120,24808000000,imu_link,0.000838210390007,-0.371419440305,-0.000336795582532,0.928464745338,0.0,0.0,0.0,0.0,0.0,0.0,0.0,0.0,0.0,0.00281342455061,-0.0124286580159,6.48403858418e-05,0.0,0.0,0.0,0.0,0.0,0.0,0.0,0.0,0.0,6.3407006162,0.00457251669344,7.19795849637,0.0,0.0,0.0,0.0,0.0,0.0,0.0,0.0,0.0
24812000000,121,24812000000,imu_link,0.00084391359844,-0.371441862486,-0.000334623674909,0.92845577096,0.0,0.0,0.0,0.0,0.0,0.0,0.0,0.0,0.0,0.00305849539467,-0.0120738606433,-4.29854257279e-05,0.0,0.0,0.0,0.0,0.0,0.0,0.0,0.0,0.0,6.34159485656,0.0045897315683,7.19668799193,0.0,0.0,0.0,0.0,0.0,0.0,0.0,0.0,0.0
24816000000,122,24816000000,imu_link,0.0008502769431,-0.371463670145,-0.000332473988696,0.928447041168,0.0,0.0,0.0,0.0,0.0,0.0,0.0,0.0,0.0,0.00336061603701,-0.0117430566815,-0.000176120719164,0.0,0.0,0.0,0.0,0.0,0.0,0.0,0.0,0.0,6.34255893689,0.00465312987044,7.19536467748,0.0,0.0,0.0,0.0,0.0,0.0,0.0,0.0,0.0
24820000000,123,24820000000,imu_link,0.000857323014579,-0.37148487487,-0.000330347549086,0.928438551338,0.0,0.0,0.0,0.0,0.0,0.0,0.0,0.0,0.0,0.00367303400321,-0.0114184883615,-0.000313932883087,0.0,0.0,0.0,0.0,0.0,0.0,0.0,0.0,0.0,6.34365755674,0.00472407264334,7.19329883033,0.0,0.0,0.0,0.0,0.0,0.0,0.0,0.0,0.0
24824000000,124,24824000000,imu_link,0.000865000756841,-0.371505450255,-0.000328243171881,0.928430312119,0.0,0.0,0.0,0.0,0.0,0.0,0.0,0.0,0.0,0.00396195845468,-0.0110796929718,-0.000441731127301,0.0,0.0,0.0,0.0,0.0,0.0,0.0,0.0,0.0,6.34536527476,0.0048721831365,7.19253962891,0.0,0.0,0.0,0.0,0.0,0.0,0.0,0.0,0.0
24828000000,125,24828000000,imu_link,0.000873196524243,-0.371525666838,-0.000326162765672,0.928422215388,0.0,0.0,0.0,0.0,0.0,0.0,0.0,0.0,0.0,0.00419786038406,-0.0108865893488,-0.000549215204784,0.0,0.0,0.0,0.0,0.0,0.0,0.0,0.0,0.0,6.34731615131,0.00504988674581,7.19466773954,0.0,0.0,0.0,0.0,0.0,0.0,0.0,0.0,0.0
24832000000,126,24832000000,imu_link,0.000881905306439,-0.371546149605,-0.000324074342178,0.92841401106,0.0,0.0,0.0,0.0,0.0,0.0,0.0,0.0,0.0,0.00443758725008,-0.0110300548477,-0.000640693906133,0.0,0.0,0.0,0.0,0.0,0.0,0.0,0.0,0.0,6.35018533411,0.005190503905,7.20150244784,0.0,0.0,0.0,0.0,0.0,0.0,0.0,0.0,0.0
24836000000,127,24836000000,imu_link,0.000891137369385,-0.371567461778,-0.000321942066463,0.928405473689,0.0,0.0,0.0,0.0,0.0,0.0,0.0,0.0,0.0,0.00468892565308,-0.0114768375091,-0.000717237107958,0.0,0.0,0.0,0.0,0.0,0.0,0.0,0.0,0.0,6.35160102245,0.00531882073538,7.20465559809,0.0,0.0,0.0,0.0,0.0,0.0,0.0,0.0,0.0
24840000000,128,24840000000,imu_link,0.000900643023926,-0.371589839846,-0.000319771215212,0.928396508778,0.0,0.0,0.0,0.0,0.0,0.0,0.0,0.0,0.0,0.00482345640383,-0.0120509976334,-0.000749752998012,0.0,0.0,0.0,0.0,0.0,0.0,0.0,0.0,0.0,6.35337175675,0.00546961155033,7.20576112858,0.0,0.0,0.0,0.0,0.0,0.0,0.0,0.0,0.0
24844000000,129,24844000000,imu_link,0.000909950541628,-0.37161286067,-0.000317596066082,0.928387286055,0.0,0.0,0.0,0.0,0.0,0.0,0.0,0.0,0.0,0.00473249901905,-0.0123972937032,-0.0007106968858,0.0,0.0,0.0,0.0,0.0,0.0,0.0,0.0,0.0,6.35526396707,0.00555956188593,7.20191822764,0.0,0.0,0.0,0.0,0.0,0.0,0.0,0.0,0.0
24848000000,130,24848000000,imu_link,0.000918648657507,-0.371635861767,-0.000315453902303,0.928378071059,0.0,0.0,0.0,0.0,0.0,0.0,0.0,0.0,0.0,0.00444348302817,-0.012386812576,-0.00061278544705,0.0,0.0,0.0,0.0,0.0,0.0,0.0,0.0,0.0,6.35843640269,0.00551433882694,7.19855775863,0.0,0.0,0.0,0.0,0.0,0.0,0.0,0.0,0.0
24852000000,131,24852000000,imu_link,0.000926658773292,-0.371658329347,-0.000313363741703,0.92836906957,0.0,0.0,0.0,0.0,0.0,0.0,0.0,0.0,0.0,0.00411427558575,-0.0120996193232,-0.000509293379108,0.0,0.0,0.0,0.0,0.0,0.0,0.0,0.0,0.0,6.36036040729,0.00540395917458,7.19413570725,0.0,0.0,0.0,0.0,0.0,0.0,0.0,0.0,0.0
24856000000,132,24856000000,imu_link,0.000934216004741,-0.371680017152,-0.000311284296827,0.928360380021,0.0,0.0,0.0,0.0,0.0,0.0,0.0,0.0,0.0,0.00390179567898,-0.0116797674235,-0.00043042075306,0.0,0.0,0.0,0.0,0.0,0.0,0.0,0.0,0.0,6.3611403374,0.00526320255065,7.18991408623,0.0,0.0,0.0,0.0,0.0,0.0,0.0,0.0,0.0
24860000000,133,24860000000,imu_link,0.000941580742374,-0.371700852335,-0.000309156344755,0.928352031409,0.0,0.0,0.0,0.0,0.0,0.0,0.0,0.0,0.0,0.0038211664825,-0.0112206453488,-0.000372476822807,0.0,0.0,0.0,0.0,0.0,0.0,0.0,0.0,0.0,6.3621188168,0.00517169989047,7.18762565782,0.0,0.0,0.0,0.0,0.0,0.0,0.0,0.0,0.0
24864000000,134,24864000000,imu_link,0.000949191876896,-0.371720887676,-0.000306892262472,0.928344002252,0.0,0.0,0.0,0.0,0.0,0.0,0.0,0.0,0.0,0.00396056383175,-0.0107899046343,-0.000355408587839,0.0,0.0,0.0,0.0,0.0,0.0,0.0,0.0,0.0,6.36442560108,0.00507737173411,7.18895281734,0.0,0.0,0.0,0.0,0.0,0.0,0.0,0.0,0.0
24868000000,135,24868000000,imu_link,0.000957234512413,-0.371740444542,-0.000304437413456,0.928336163742,0.0,0.0,0.0,0.0,0.0,0.0,0.0,0.0,0.0,0.00419614660104,-0.0105322188606,-0.000347256806848,0.0,0.0,0.0,0.0,0.0,0.0,0.0,0.0,0.0,6.36689813231,0.00507318538148,7.19246200529,0.0,0.0,0.0,0.0,0.0,0.0,0.0,0.0,0.0
24872000000,136,24872000000,imu_link,0.000965688434272,-0.371759876397,-0.000301811444577,0.928328374368,0.0,0.0,0.0,0.0,0.0,0.0,0.0,0.0,0.0,0.00441881613493,-0.0104649161751,-0.000344326664588,0.0,0.0,0.0,0.0,0.0,0.0,0.0,0.0,0.0,6.36756273739,0.00515715714107,7.19289103191,0.0,0.0,0.0,0.0,0.0,0.0,0.0,0.0,0.0
24876000000,137,24876000000,imu_link,0.000974359774463,-0.371779748261,-0.000299095269891,0.928320408021,0.0,0.0,0.0,0.0,0.0,0.0,0.0,0.0,0.0,0.00453665323801,-0.0107019716741,-0.000342684316482,0.0,0.0,0.0,0.0,0.0,0.0,0.0,0.0,0.0,6.3689904148,0.0052742522062,7.19650868447,0.0,0.0,0.0,0.0,0.0,0.0,0.0,0.0,0.0
24880000000,138,24880000000,imu_link,0.000982952018319,-0.371800492985,-0.000296348502886,0.928312091594,0.0,0.0,0.0,0.0,0.0,0.0,0.0,0.0,0.0,0.00450592775587,-0.0111721917899,-0.000313408484883,0.0,0.0,0.0,0.0,0.0,0.0,0.0,0.0,0.0,6.3704293494,0.00539012231763,7.19899503288,0.0,0.0,0.0,0.0,0.0,0.0,0.0,0.0,0.0
24884000000,139,24884000000,imu_link,0.000991225244041,-0.371822416082,-0.000293616902441,0.928303302892,0.0,0.0,0.0,0.0,0.0,0.0,0.0,0.0,0.0,0.00435544080909,-0.0118069912719,-0.00026063342314,0.0,0.0,0.0,0.0,0.0,0.0,0.0,0.0,0.0,6.37214499024,0.00545456110751,7.20077795112,0.0,0.0,0.0,0.0,0.0,0.0,0.0,0.0,0.0
24888000000,140,24888000000,imu_link,0.000999242593233,-0.371845562508,-0.000290902138652,0.928294023752,0.0,0.0,0.0,0.0,0.0,0.0,0.0,0.0,0.0,0.00423396783437,-0.0124660254466,-0.00022034357339,0.0,0.0,0.0,0.0,0.0,0.0,0.0,0.0,0.0,6.37330887903,0.00537692761757,7.19956009393,0.0,0.0,0.0,0.0,0.0,0.0,0.0,0.0,0.0
24892000000,141,24892000000,imu_link,0.00100710191474,-0.371869929365,-0.000288189274252,0.928284255133,0.0,0.0,0.0,0.0,0.0,0.0,0.0,0.0,0.0,0.00416068868294,-0.0131235142587,-0.000191305663347,0.0,0.0,0.0,0.0,0.0,0.0,0.0,0.0,0.0,6.37361176204,0.00526243756636,7.1962900629,0.0,0.0,0.0,0.0,0.0,0.0,0.0,0.0,0.0
24896000000,142,24896000000,imu_link,0.00101482415558,-0.371895489077,-0.00028546570491,0.928274007955,0.0,0.0,0.0,0.0,0.0,0.0,0.0,0.0,0.0,0.00409946706076,-0.0137661636786,-0.000160317255485,0.0,0.0,0.0,0.0,0.0,0.0,0.0,0.0,0.0,6.37401013018,0.00519090976871,7.19296550898,0.0,0.0,0.0,0.0,0.0,0.0,0.0,0.0,0.0
24900000000,143,24900000000,imu_link,0.00102219914123,-0.371922033281,-0.000282732543807,0.928263365824,0.0,0.0,0.0,0.0,0.0,0.0,0.0,0.0,0.0,0.00394041756263,-0.0142965880585,-9.08508734388e-05,0.0,0.0,0.0,0.0,0.0,0.0,0.0,0.0,0.0,6.37573682342,0.0051955423594,7.19072440171,0.0,0.0,0.0,0.0,0.0,0.0,0.0,0.0,0.0
24904000000,144,24904000000,imu_link,0.00102888910935,-0.371949305689,-0.000280014120435,0.928252431711,0.0,0.0,0.0,0.0,0.0,0.0,0.0,0.0,0.0,0.00361999075924,-0.0146889724426,3.00263421033e-05,0.0,0.0,0.0,0.0,0.0,0.0,0.0,0.0,0.0,6.37773461956,0.00521095067727,7.1889890825,0.0,0.0,0.0,0.0,0.0,0.0,0.0,0.0,0.0
24908000000,145,24908000000,imu_link,0.00103479837088,-0.371977097035,-0.000277337297305,0.928241289514,0.0,0.0,0.0,0.0,0.0,0.0,0.0,0.0,0.0,0.00325008746939,-0.0149686538599,0.000156148049749,0.0,0.0,0.0,0.0,0.0,0.0,0.0,0.0,0.0,6.37910666338,0.00515153464536,7.18623277946,0.0,0.0,0.0,0.0,0.0,0.0,0.0,0.0,0.0
24912000000,146,24912000000,imu_link,0.00104009814363,-0.372005318707,-0.000274686181059,0.92822997452,0.0,0.0,0.0,0.0,0.0,0.0,0.0,0.0,0.0,0.00296257904384,-0.0152006133753,0.000257773574199,0.0,0.0,0.0,0.0,0.0,0.0,0.0,0.0,0.0,6.37909859873,0.00499905858216,7.18100324865,0.0,0.0,0.0,0.0,0.0,0.0,0.0,0.0,0.0
24920000000,147,24920000000,imu_link,0.00104924739297,-0.372062281208,-0.000269516005399,0.928207134935,0.0,0.0,0.0,0.0,0.0,0.0,0.0,0.0,0.0,0.00247393010434,-0.0153466095577,0.000398759183784,0.0,0.0,0.0,0.0,0.0,0.0,0.0,0.0,0.0,6.38077047865,0.00497510775307,7.17534788731,0.0,0.0,0.0,0.0,0.0,0.0,0.0,0.0,0.0
24924000000,148,24924000000,imu_link,0.0010526962083,-0.372090606639,-0.000267074260167,0.928195777276,0.0,0.0,0.0,0.0,0.0,0.0,0.0,0.0,0.0,0.00206462372466,-0.0152570661311,0.000504965281134,0.0,0.0,0.0,0.0,0.0,0.0,0.0,0.0,0.0,6.38274136099,0.00500419462483,7.17183636494,0.0,0.0,0.0,0.0,0.0,0.0,0.0,0.0,0.0
24928000000,149,24928000000,imu_link,0.00105507867215,-0.372118891658,-0.000264779592369,0.928184435967,0.0,0.0,0.0,0.0,0.0,0.0,0.0,0.0,0.0,0.00154235518643,-0.0152354888504,0.000635077551068,0.0,0.0,0.0,0.0,0.0,0.0,0.0,0.0,0.0,6.38408974772,0.00501478470835,7.17199419721,0.0,0.0,0.0,0.0,0.0,0.0,0.0,0.0,0.0
24932000000,150,24932000000,imu_link,0.00105613615429,-0.372147366634,-0.000262693203905,0.928173018933,0.0,0.0,0.0,0.0,0.0,0.0,0.0,0.0,0.0,0.000888754241282,-0.0153380212597,0.000785032281783,0.0,0.0,0.0,0.0,0.0,0.0,0.0,0.0,0.0,6.38571846409,0.00497515551981,7.17362609241,0.0,0.0,0.0,0.0,0.0,0.0,0.0,0.0,0.0
24936000000,151,24936000000,imu_link,0.00105587695894,-0.372176273564,-0.000260839044585,0.928161429107,0.0,0.0,0.0,0.0,0.0,0.0,0.0,0.0,0.0,0.000234638233431,-0.0155709329156,0.000922462303538,0.0,0.0,0.0,0.0,0.0,0.0,0.0,0.0,0.0,6.38755535218,0.00479248913547,7.1757115203,0.0,0.0,0.0,0.0,0.0,0.0,0.0,0.0,0.0
24940000000,152,24940000000,imu_link,0.00105450737912,-0.37220554991,-0.000259227455382,0.928149691284,0.0,0.0,0.0,0.0,0.0,0.0,0.0,0.0,0.0,-0.000325682890551,-0.0157701850581,0.00101669529307,0.0,0.0,0.0,0.0,0.0,0.0,0.0,0.0,0.0,6.38903041124,0.00453920243451,7.17456466635,0.0,0.0,0.0,0.0,0.0,0.0,0.0,0.0,0.0
24944000000,153,24944000000,imu_link,0.00105233196863,-0.372234942408,-0.0002578694153,0.928137906645,0.0,0.0,0.0,0.0,0.0,0.0,0.0,0.0,0.0,-0.000746795094321,-0.015833038869,0.00104905202302,0.0,0.0,0.0,0.0,0.0,0.0,0.0,0.0,0.0,6.39075109532,0.00435163871042,7.17252999738,0.0,0.0,0.0,0.0,0.0,0.0,0.0,0.0,0.0
24948000000,154,24948000000,imu_link,0.0010496400331,-0.372264006077,-0.000256766357155,0.928126253322,0.0,0.0,0.0,0.0,0.0,0.0,0.0,0.0,0.0,-0.00103406641605,-0.0156562001402,0.00102670106997,0.0,0.0,0.0,0.0,0.0,0.0,0.0,0.0,0.0,6.39271043979,0.00424713392364,7.16944083805,0.0,0.0,0.0,0.0,0.0,0.0,0.0,0.0,0.0
24952000000,155,24952000000,imu_link,0.00104646003488,-0.372292265395,-0.000255917393615,0.928114922062,0.0,0.0,0.0,0.0,0.0,0.0,0.0,0.0,0.0,-0.00130812573825,-0.0152231804002,0.000999248425257,0.0,0.0,0.0,0.0,0.0,0.0,0.0,0.0,0.0,6.39414352518,0.00424467736307,7.1652070123,0.0,0.0,0.0,0.0,0.0,0.0,0.0,0.0,0.0
24956000000,156,24956000000,imu_link,0.00104281618195,-0.372319439503,-0.000255309912069,0.928104025592,0.0,0.0,0.0,0.0,0.0,0.0,0.0,0.0,0.0,-0.00156869827638,-0.0146388315174,0.000973019486454,0.0,0.0,0.0,0.0,0.0,0.0,0.0,0.0,0.0,6.39400802678,0.00423031697403,7.15914900322,0.0,0.0,0.0,0.0,0.0,0.0,0.0,0.0,0.0
24960000000,157,24960000000,imu_link,0.00103883282038,-0.372345398613,-0.000254919785366,0.928093615954,0.0,0.0,0.0,0.0,0.0,0.0,0.0,0.0,0.0,-0.0017671195989,-0.0139845377741,0.000934787003671,0.0,0.0,0.0,0.0,0.0,0.0,0.0,0.0,0.0,6.39505173798,0.00426564932105,7.15697916922,0.0,0.0,0.0,0.0,0.0,0.0,0.0,0.0,0.0
24964000000,158,24964000000,imu_link,0.00103461675782,-0.372370233008,-0.000254713591407,0.928083656929,0.0,0.0,0.0,0.0,0.0,0.0,0.0,0.0,0.0,-0.00190972441708,-0.0133788502802,0.00089222941191,0.0,0.0,0.0,0.0,0.0,0.0,0.0,0.0,0.0,6.39671523296,0.00436116089659,7.15794937785,0.0,0.0,0.0,0.0,0.0,0.0,0.0,0.0,0.0
24968000000,159,24968000000,imu_link,0.00103009359271,-0.372394150896,-0.00025464744595,0.92807406517,0.0,0.0,0.0,0.0,0.0,0.0,0.0,0.0,0.0,-0.00207861450532,-0.0128852852645,0.000883991629929,0.0,0.0,0.0,0.0,0.0,0.0,0.0,0.0,0.0,6.39844245376,0.00449870076816,7.15980455487,0.0,0.0,0.0,0.0,0.0,0.0,0.0,0.0,0.0
24972000000,160,24972000000,imu_link,0.00102501331392,-0.372417383334,-0.000254693346376,0.928064748318,0.0,0.0,0.0,0.0,0.0,0.0,0.0,0.0,0.0,-0.00235822736783,-0.0125161526925,0.000935413093625,0.0,0.0,0.0,0.0,0.0,0.0,0.0,0.0,0.0,6.39937629653,0.00464408581327,7.16036266784,0.0,0.0,0.0,0.0,0.0,0.0,0.0,0.0,0.0
24976000000,161,24976000000,imu_link,0.0010193033453,-0.372440238868,-0.000254854325025,0.928055582679,0.0,0.0,0.0,0.0,0.0,0.0,0.0,0.0,0.0,-0.00267197789063,-0.0123132391753,0.000999092880852,0.0,0.0,0.0,0.0,0.0,0.0,0.0,0.0,0.0,6.40062246932,0.0047294872991,7.16180348632,0.0,0.0,0.0,0.0,0.0,0.0,0.0,0.0,0.0
24980000000,162,24980000000,imu_link,0.00101308427195,-0.372463094577,-0.000255110597397,0.928046416812,0.0,0.0,0.0,0.0,0.0,0.0,0.0,0.0,0.0,-0.00292596210822,-0.0123134760799,0.00104967955025,0.0,0.0,0.0,0.0,0.0,0.0,0.0,0.0,0.0,6.40176795055,0.00471653378513,7.16365884559,0.0,0.0,0.0,0.0,0.0,0.0,0.0,0.0,0.0
24984000000,163,24984000000,imu_link,0.00100669632714,-0.372486323851,-0.000255416055625,0.928037100481,0.0,0.0,0.0,0.0,0.0,0.0,0.0,0.0,0.0,-0.00301335847293,-0.0125148866913,0.00105847539796,0.0,0.0,0.0,0.0,0.0,0.0,0.0,0.0,0.0,6.40413780501,0.00466235525964,7.16770248356,0.0,0.0,0.0,0.0,0.0,0.0,0.0,0.0,0.0
24988000000,164,24988000000,imu_link,0.00100050907054,-0.372510102267,-0.000255765952823,0.928027562777,0.0,0.0,0.0,0.0,0.0,0.0,0.0,0.0,0.0,-0.0029283303185,-0.0128109243476,0.0010007262229,0.0,0.0,0.0,0.0,0.0,0.0,0.0,0.0,0.0,6.40551335967,0.0046601001964,7.16841816448,0.0,0.0,0.0,0.0,0.0,0.0,0.0,0.0,0.0
24992000000,165,24992000000,imu_link,0.000994805219404,-0.372534347657,-0.000256156813153,0.928017836338,0.0,0.0,0.0,0.0,0.0,0.0,0.0,0.0,0.0,-0.00271149897784,-0.0130627182482,0.000891891525821,0.0,0.0,0.0,0.0,0.0,0.0,0.0,0.0,0.0,6.40640983799,0.00474442351403,7.16597990599,0.0,0.0,0.0,0.0,0.0,0.0,0.0,0.0,0.0
24996000000,166,24996000000,imu_link,0.000989659205532,-0.372558723899,-0.000256575141607,0.928008055995,0.0,0.0,0.0,0.0,0.0,0.0,0.0,0.0,0.0,-0.0024577303507,-0.0131334177388,0.000775297482841,0.0,0.0,0.0,0.0,0.0,0.0,0.0,0.0,0.0,6.40693484503,0.0048965983554,7.16057529805,0.0,0.0,0.0,0.0,0.0,0.0,0.0,0.0,0.0
25000000000,167,25000000000,imu_link,0.000984983599037,-0.372582830531,-0.000257022703388,0.927998382617,0.0,0.0,0.0,0.0,0.0,0.0,0.0,0.0,0.0,-0.00224499251589,-0.012988346502,0.000673986227032,0.0,0.0,0.0,0.0,0.0,0.0,0.0,0.0,0.0,6.40801275235,0.00508180489564,7.15575188933,0.0,0.0,0.0,0.0,0.0,0.0,0.0,0.0,0.0
25004000000,168,25004000000,imu_link,0.000980771645292,-0.372606362205,-0.00025747498223,0.927988938855,0.0,0.0,0.0,0.0,0.0,0.0,0.0,0.0,0.0,-0.00203092373554,-0.0126787333362,0.00058516933306,0.0,0.0,0.0,0.0,0.0,0.0,0.0,0.0,0.0,6.40958340881,0.00524916950968,7.15261064216,0.0,0.0,0.0,0.0,0.0,0.0,0.0,0.0,0.0
25008000000,169,25008000000,imu_link,0.000977150031819,-0.372629273715,-0.000257909965829,0.927979742791,0.0,0.0,0.0,0.0,0.0,0.0,0.0,0.0,0.0,-0.00175398826105,-0.0123447494264,0.000482939728277,0.0,0.0,0.0,0.0,0.0,0.0,0.0,0.0,0.0,6.41059000757,0.00544327976799,7.15104122541,0.0,0.0,0.0,0.0,0.0,0.0,0.0,0.0,0.0
25012000000,170,25012000000,imu_link,0.000974386744432,-0.372651956314,-0.000258271380566,0.927970637101,0.0,0.0,0.0,0.0,0.0,0.0,0.0,0.0,0.0,-0.00134210036786,-0.0122215528131,0.000357056036208,0.0,0.0,0.0,0.0,0.0,0.0,0.0,0.0,0.0,6.41199720503,0.00566776929658,7.15378910054,0.0,0.0,0.0,0.0,0.0,0.0,0.0,0.0,0.0
25016000000,171,25016000000,imu_link,0.000972446580662,-0.372674774591,-0.00025858397602,0.927961475421,0.0,0.0,0.0,0.0,0.0,0.0,0.0,0.0,0.0,-0.000951041995694,-0.0122948069831,0.000226397023869,0.0,0.0,0.0,0.0,0.0,0.0,0.0,0.0,0.0,6.41266361206,0.00594768128576,7.15508356969,0.0,0.0,0.0,0.0,0.0,0.0,0.0,0.0,0.0
25020000000,172,25020000000,imu_link,0.000970900574146,-0.372698009694,-0.000258926349418,0.927952145253,0.0,0.0,0.0,0.0,0.0,0.0,0.0,0.0,0.0,-0.000773573550378,-0.0125195657216,0.000139315285575,0.0,0.0,0.0,0.0,0.0,0.0,0.0,0.0,0.0,6.41374121378,0.00627409861519,7.15631126952,0.0,0.0,0.0,0.0,0.0,0.0,0.0,0.0,0.0
25024000000,173,25024000000,imu_link,0.000969210047682,-0.37272162108,-0.000259388565003,0.927942663384,0.0,0.0,0.0,0.0,0.0,0.0,0.0,0.0,0.0,-0.000862837463211,-0.012722498472,0.000110805554209,0.0,0.0,0.0,0.0,0.0,0.0,0.0,0.0,0.0,6.41603803551,0.00654740557517,7.157315517,0.0,0.0,0.0,0.0,0.0,0.0,0.0,0.0,0.0
25028000000,174,25028000000,imu_link,0.000967051530743,-0.372745380554,-0.000260003241183,0.927933121774,0.0,0.0,0.0,0.0,0.0,0.0,0.0,0.0,0.0,-0.00110833615003,-0.0128024745065,0.000127347307974,0.0,0.0,0.0,0.0,0.0,0.0,0.0,0.0,0.0,6.41765089591,0.00665588474767,7.15522502084,0.0,0.0,0.0,0.0,0.0,0.0,0.0,0.0,0.0
25032000000,175,25032000000,imu_link,0.000964357698476,-0.372769193257,-0.000260774490203,0.927923558581,0.0,0.0,0.0,0.0,0.0,0.0,0.0,0.0,0.0,-0.00138586810771,-0.0128313391369,0.00015449383642,0.0,0.0,0.0,0.0,0.0,0.0,0.0,0.0,0.0,6.41750710002,0.0066293434102,7.15058386181,0.0,0.0,0.0,0.0,0.0,0.0,0.0,0.0,0.0
25036000000,176,25036000000,imu_link,0.000961151136371,-0.372793037128,-0.000261723259321,0.927913982629,0.0,0.0,0.0,0.0,0.0,0.0,0.0,0.0,0.0,-0.00165683195116,-0.0128483305276,0.00016770960507,0.0,0.0,0.0,0.0,0.0,0.0,0.0,0.0,0.0,6.41818111378,0.00660807888908,7.14817616374,0.0,0.0,0.0,0.0,0.0,0.0,0.0,0.0,0.0
25040000000,177,25040000000,imu_link,0.000957522544447,-0.372817003765,-0.000262842799075,0.927904357015,0.0,0.0,0.0,0.0,0.0,0.0,0.0,0.0,0.0,-0.00188442675709,-0.0129146824288,0.000167196762842,0.0,0.0,0.0,0.0,0.0,0.0,0.0,0.0,0.0,6.41912673266,0.00659198651345,7.14726109273,0.0,0.0,0.0,0.0,0.0,0.0,0.0,0.0,0.0
25044000000,178,25044000000,imu_link,0.000953503983092,-0.372841094218,-0.0002641162087,0.927894681273,0.0,0.0,0.0,0.0,0.0,0.0,0.0,0.0,0.0,-0.0020939963048,-0.0129815963678,0.000168554808199,0.0,0.0,0.0,0.0,0.0,0.0,0.0,0.0,0.0,6.42013018606,0.00660171630257,7.14590181886,0.0,0.0,0.0,0.0,0.0,0.0,0.0,0.0,0.0
25048000000,179,25048000000,imu_link,0.000949242211728,-0.37286543822,-0.000265488444273,0.927884903119,0.0,0.0,0.0,0.0,0.0,0.0,0.0,0.0,0.0,-0.00222517382036,-0.0131184009517,0.000168151471522,0.0,0.0,0.0,0.0,0.0,0.0,0.0,0.0,0.0,6.42174089653,0.00658725441544,7.14645101372,0.0,0.0,0.0,0.0,0.0,0.0,0.0,0.0,0.0
25052000000,180,25052000000,imu_link,0.000944971329467,-0.372889935596,-0.000266895437322,0.927875062563,0.0,0.0,0.0,0.0,0.0,0.0,0.0,0.0,0.0,-0.00223583070678,-0.0132012093246,0.000153789083727,0.0,0.0,0.0,0.0,0.0,0.0,0.0,0.0,0.0,6.42359970871,0.00664632985201,7.14561967968,0.0,0.0,0.0,0.0,0.0,0.0,0.0,0.0,0.0
25056000000,181,25056000000,imu_link,0.00094096829581,-0.372914232064,-0.000268324651252,0.927865301703,0.0,0.0,0.0,0.0,0.0,0.0,0.0,0.0,0.0,-0.00211577312335,-0.0130931157466,9.34566667685e-05,0.0,0.0,0.0,0.0,0.0,0.0,0.0,0.0,0.0,6.42593418608,0.0067903604034,7.14381269857,0.0,0.0,0.0,0.0,0.0,0.0,0.0,0.0,0.0
25060000000,182,25060000000,imu_link,0.000937484669339,-0.372937998257,-0.00026975107781,0.927855752697,0.0,0.0,0.0,0.0,0.0,0.0,0.0,0.0,0.0,-0.00187445426262,-0.0128075316725,-2.31840855298e-06,0.0,0.0,0.0,0.0,0.0,0.0,0.0,0.0,0.0,6.42727531428,0.00694091218109,7.14044798884,0.0,0.0,0.0,0.0,0.0,0.0,0.0,0.0,0.0
25064000000,183,25064000000,imu_link,0.000934628863815,-0.372961072316,-0.000271134451763,0.927846480562,0.0,0.0,0.0,0.0,0.0,0.0,0.0,0.0,0.0,-0.00157538578082,-0.012434698399,-9.97013388035e-05,0.0,0.0,0.0,0.0,0.0,0.0,0.0,0.0,0.0,6.428020727,0.00713652612639,7.13746261254,0.0,0.0,0.0,0.0,0.0,0.0,0.0,0.0,0.0
25068000000,184,25068000000,imu_link,0.000932664061412,-0.37298340876,-0.000272407009085,0.927837503403,0.0,0.0,0.0,0.0,0.0,0.0,0.0,0.0,0.0,-0.00114160142328,-0.0120373221643,-0.000214750376255,0.0,0.0,0.0,0.0,0.0,0.0,0.0,0.0,0.0,6.43035344115,0.00731656556805,7.1387588186,0.0,0.0,0.0,0.0,0.0,0.0,0.0,0.0,0.0
25072000000,185,25072000000,imu_link,0.000931779853704,-0.373005091721,-0.000273542452119,0.927828787283,0.0,0.0,0.0,0.0,0.0,0.0,0.0,0.0,0.0,-0.000614933341885,-0.0116852660794,-0.000352931619564,0.0,0.0,0.0,0.0,0.0,0.0,0.0,0.0,0.0,6.43131841264,0.00751085314928,7.13829539992,0.0,0.0,0.0,0.0,0.0,0.0,0.0,0.0,0.0
25076000000,186,25076000000,imu_link,0.00093199601855,-0.373026453502,-0.000274515296705,0.927820198644,0.0,0.0,0.0,0.0,0.0,0.0,0.0,0.0,0.0,-7.42329713187e-05,-0.0115122645277,-0.0004828543405,0.0,0.0,0.0,0.0,0.0,0.0,0.0,0.0,0.0,6.43275399853,0.00771529439524,7.14077942967,0.0,0.0,0.0,0.0,0.0,0.0,0.0,0.0,0.0
25080000000,187,25080000000,imu_link,0.000932956255852,-0.373048007862,-0.000275312495565,0.927811531307,0.0,0.0,0.0,0.0,0.0,0.0,0.0,0.0,0.0,0.000303773113647,-0.0116160979423,-0.000540070929555,0.0,0.0,0.0,0.0,0.0,0.0,0.0,0.0,0.0,6.43549747219,0.00797442115966,7.14764003274,0.0,0.0,0.0,0.0,0.0,0.0,0.0,0.0,0.0
25084000000,188,25084000000,imu_link,0.000934490238471,-0.373070173032,-0.000275927037867,0.927802617255,0.0,0.0,0.0,0.0,0.0,0.0,0.0,0.0,0.0,0.000604205874558,-0.0119453102805,-0.000562101805382,0.0,0.0,0.0,0.0,0.0,0.0,0.0,0.0,0.0,6.43660281154,0.00815895743246,7.15009707335,0.0,0.0,0.0,0.0,0.0,0.0,0.0,0.0,0.0
25088000000,189,25088000000,imu_link,0.000936431775784,-0.373093113944,-0.000276383429245,0.927793390274,0.0,0.0,0.0,0.0,0.0,0.0,0.0,0.0,0.0,0.000823024966658,-0.0123634201497,-0.000564439346035,0.0,0.0,0.0,0.0,0.0,0.0,0.0,0.0,0.0,6.43759016412,0.00832417727751,7.15029160982,0.0,0.0,0.0,0.0,0.0,0.0,0.0,0.0,0.0
25092000000,190,25092000000,imu_link,0.000938401020738,-0.373117094093,-0.000276723499498,0.927783744697,0.0,0.0,0.0,0.0,0.0,0.0,0.0,0.0,0.0,0.000857917361485,-0.0129235480616,-0.000515218384757,0.0,0.0,0.0,0.0,0.0,0.0,0.0,0.0,0.0,6.43940894666,0.00847846212564,7.15281227993,0.0,0.0,0.0,0.0,0.0,0.0,0.0,0.0,0.0
25096000000,191,25096000000,imu_link,0.000940207610001,-0.373142337809,-0.00027698087158,0.92777359039,0.0,0.0,0.0,0.0,0.0,0.0,0.0,0.0,0.0,0.00079830428499,-0.013604598325,-0.000445988088015,0.0,0.0,0.0,0.0,0.0,0.0,0.0,0.0,0.0,6.43986157903,0.00858813186276,7.15175460504,0.0,0.0,0.0,0.0,0.0,0.0,0.0,0.0,0.0
25100000000,192,25100000000,imu_link,0.000941961989558,-0.373168805619,-0.000277168958996,0.927762942997,0.0,0.0,0.0,0.0,0.0,0.0,0.0,0.0,0.0,0.000787412740285,-0.0142644097347,-0.000403599857665,0.0,0.0,0.0,0.0,0.0,0.0,0.0,0.0,0.0,6.44035464568,0.0086380317742,7.1488674308,0.0,0.0,0.0,0.0,0.0,0.0,0.0,0.0,0.0
25104000000,193,25104000000,imu_link,0.000944087399926,-0.373196068407,-0.000277274351108,0.927751974584,0.0,0.0,0.0,0.0,0.0,0.0,0.0,0.0,0.0,0.000975218078783,-0.0146929919938,-0.000434137669372,0.0,0.0,0.0,0.0,0.0,0.0,0.0,0.0,0.0,6.44225560674,0.00865218513381,7.14529170036,0.0,0.0,0.0,0.0,0.0,0.0,0.0,0.0,0.0
25108000000,194,25108000000,imu_link,0.000947039453808,-0.373223628895,-0.000277272051733,0.927740884661,0.0,0.0,0.0,0.0,0.0,0.0,0.0,0.0,0.0,0.00137887180455,-0.0148535959754,-0.000538308547698,0.0,0.0,0.0,0.0,0.0,0.0,0.0,0.0,0.0,6.44494640378,0.00871325874351,7.143155054,0.0,0.0,0.0,0.0,0.0,0.0,0.0,0.0,0.0
25112000000,195,25112000000,imu_link,0.000950743877326,-0.373251302615,-0.000277192899598,0.927729747473,0.0,0.0,0.0,0.0,0.0,0.0,0.0,0.0,0.0,0.0017422535531,-0.0149148008348,-0.000643012820985,0.0,0.0,0.0,0.0,0.0,0.0,0.0,0.0,0.0,6.44484008787,0.00892449584693,7.13810580239,0.0,0.0,0.0,0.0,0.0,0.0,0.0,0.0,0.0
25116000000,196,25116000000,imu_link,0.000954620369645,-0.373279339976,-0.00027714265764,0.92771846281,0.0,0.0,0.0,0.0,0.0,0.0,0.0,0.0,0.0,0.00181679534982,-0.0151109933181,-0.00068838326456,0.0,0.0,0.0,0.0,0.0,0.0,0.0,0.0,0.0,6.4472964494,0.00920551120179,7.14182875561,0.0,0.0,0.0,0.0,0.0,0.0,0.0,0.0,0.0
25120000000,197,25120000000,imu_link,0.00095785298112,-0.373307960679,-0.000277206433621,0.927706943042,0.0,0.0,0.0,0.0,0.0,0.0,0.0,0.0,0.0,0.00149703805854,-0.0154256055021,-0.00062085197318,0.0,0.0,0.0,0.0,0.0,0.0,0.0,0.0,0.0,6.4489483748,0.00939790746505,7.14400253033,0.0,0.0,0.0,0.0,0.0,0.0,0.0,0.0,0.0
25124000000,198,25124000000,imu_link,0.0009597942967,-0.373336920401,-0.000277416032758,0.927695287096,0.0,0.0,0.0,0.0,0.0,0.0,0.0,0.0,0.0,0.000870959710053,-0.0156085276224,-0.000447323541213,0.0,0.0,0.0,0.0,0.0,0.0,0.0,0.0,0.0,6.4510968116,0.00939489470059,7.14332041086,0.0,0.0,0.0,0.0,0.0,0.0,0.0,0.0,0.0
25128000000,199,25128000000,imu_link,0.000960352447348,-0.373365613966,-0.000277758797333,0.92768373861,0.0,0.0,0.0,0.0,0.0,0.0,0.0,0.0,0.0,0.000204435640585,-0.01546526744,-0.000251011570498,0.0,0.0,0.0,0.0,0.0,0.0,0.0,0.0,0.0,6.4522269423,0.00922424943346,7.13714606465,0.0,0.0,0.0,0.0,0.0,0.0,0.0,0.0,0.0
25132000000,200,25132000000,imu_link,0.000959762995233,-0.373393501275,-0.000278208767746,0.92767251477,0.0,0.0,0.0,0.0,0.0,0.0,0.0,0.0,0.0,-0.000348151916793,-0.0150308976963,-8.68424789651e-05,0.0,0.0,0.0,0.0,0.0,0.0,0.0,0.0,0.0,6.45248457742,0.00899916122735,7.13025200617,0.0,0.0,0.0,0.0,0.0,0.0,0.0,0.0,0.0
25136000000,201,25136000000,imu_link,0.000958481626926,-0.37342043446,-0.000278722551818,0.927661674725,0.0,0.0,0.0,0.0,0.0,0.0,0.0,0.0,0.0,-0.000681318436122,-0.0145168136474,1.23324574424e-05,0.0,0.0,0.0,0.0,0.0,0.0,0.0,0.0,0.0,6.45309010513,0.00878793565101,7.12757262284,0.0,0.0,0.0,0.0,0.0,0.0,0.0,0.0,0.0
25140000000,202,25140000000,imu_link,0.000956969216782,-0.373446487703,-0.000279223799043,0.927651188252,0.0,0.0,0.0,0.0,0.0,0.0,0.0,0.0,0.0,-0.000786434083298,-0.0140426800375,6.09128753187e-05,0.0,0.0,0.0,0.0,0.0,0.0,0.0,0.0,0.0,6.4533083262,0.00864321196504,7.12568885506,0.0,0.0,0.0,0.0,0.0,0.0,0.0,0.0,0.0
25144000000,203,25144000000,imu_link,0.000955682460753,-0.373471925884,-0.000279637794923,0.927640948347,0.0,0.0,0.0,0.0,0.0,0.0,0.0,0.0,0.0,-0.000665681923357,-0.0137112855674,5.89875403107e-05,0.0,0.0,0.0,0.0,0.0,0.0,0.0,0.0,0.0,6.45336067876,0.00862525481457,7.12524501671,0.0,0.0,0.0,0.0,0.0,0.0,0.0,0.0,0.0
25148000000,204,25148000000,imu_link,0.000954836775546,-0.373496894406,-0.000279962390559,0.927630896303,0.0,0.0,0.0,0.0,0.0,0.0,0.0,0.0,0.0,-0.000444565440487,-0.0134582631415,1.78912637102e-05,0.0,0.0,0.0,0.0,0.0,0.0,0.0,0.0,0.0,6.45353551002,0.00875533905202,7.12401961774,0.0,0.0,0.0,0.0,0.0,0.0,0.0,0.0,0.0
25152000000,205,25152000000,imu_link,0.000954580068208,-0.373521337475,-0.000280151776995,0.927621054495,0.0,0.0,0.0,0.0,0.0,0.0,0.0,0.0,0.0,-0.000146312221993,-0.0131751414066,-2.96087559027e-05,0.0,0.0,0.0,0.0,0.0,0.0,0.0,0.0,0.0,6.45313707251,0.00890365517612,7.1199644432,0.0,0.0,0.0,0.0,0.0,0.0,0.0,0.0,0.0
25156000000,206,25156000000,imu_link,0.000954796814347,-0.373545042971,-0.000280173816633,0.927611508519,0.0,0.0,0.0,0.0,0.0,0.0,0.0,0.0,0.0,0.000104289771427,-0.0127776517132,-4.07246342799e-05,0.0,0.0,0.0,0.0,0.0,0.0,0.0,0.0,0.0,6.45427610955,0.00910020666107,7.1177477595,0.0,0.0,0.0,0.0,0.0,0.0,0.0,0.0,0.0
25160000000,207,25160000000,imu_link,0.000955071685701,-0.373567978281,-0.000280033210336,0.927602272002,0.0,0.0,0.0,0.0,0.0,0.0,0.0,0.0,0.0,0.000161370743813,-0.0123625507418,2.35309590506e-05,0.0,0.0,0.0,0.0,0.0,0.0,0.0,0.0,0.0,6.45485588519,0.0093324234383,7.11568356118,0.0,0.0,0.0,0.0,0.0,0.0,0.0,0.0,0.0
25164000000,208,25164000000,imu_link,0.000954946665822,-0.373590328496,-0.000279804623499,0.927593270911,0.0,0.0,0.0,0.0,0.0,0.0,0.0,0.0,0.0,-7.86025617272e-06,-0.0120472234511,0.000138783273475,0.0,0.0,0.0,0.0,0.0,0.0,0.0,0.0,0.0,6.45676347958,0.00945963225091,7.11802711546,0.0,0.0,0.0,0.0,0.0,0.0,0.0,0.0,0.0
25168000000,209,25168000000,imu_link,0.00095423228753,-0.373612294954,-0.000279547452103,0.927584424381,0.0,0.0,0.0,0.0,0.0,0.0,0.0,0.0,0.0,-0.000275990734667,-0.0118404351832,0.000261968386394,0.0,0.0,0.0,0.0,0.0,0.0,0.0,0.0,0.0,6.45730000998,0.00941518675551,7.11784888422,0.0,0.0,0.0,0.0,0.0,0.0,0.0,0.0,0.0
25172000000,210,25172000000,imu_link,0.000952844171639,-0.37363404098,-0.00027930512646,0.927575666724,0.0,0.0,0.0,0.0,0.0,0.0,0.0,0.0,0.0,-0.000591311477407,-0.0117217002806,0.000380848617975,0.0,0.0,0.0,0.0,0.0,0.0,0.0,0.0,0.0,6.45737595737,0.00935625564177,7.11631793442,0.0,0.0,0.0,0.0,0.0,0.0,0.0,0.0,0.0
25176000000,211,25176000000,imu_link,0.000950855928698,-0.373655646695,-0.000279058844114,0.927566965611,0.0,0.0,0.0,0.0,0.0,0.0,0.0,0.0,0.0,-0.000868950455929,-0.0116461438641,0.000494738684767,0.0,0.0,0.0,0.0,0.0,0.0,0.0,0.0,0.0,6.45803728528,0.00927301834143,7.11520402991,0.0,0.0,0.0,0.0,0.0,0.0,0.0,0.0,0.0
25180000000,212,25180000000,imu_link,0.000948444694485,-0.373677050753,-0.000278816344695,0.92755834558,0.0,0.0,0.0,0.0,0.0,0.0,0.0,0.0,0.0,-0.00106590026324,-0.0115375315058,0.000571926204807,0.0,0.0,0.0,0.0,0.0,0.0,0.0,0.0,0.0,6.45887929938,0.00918995178082,7.11332913904,0.0,0.0,0.0,0.0,0.0,0.0,0.0,0.0,0.0
25184000000,213,25184000000,imu_link,0.000945946405554,-0.373698195957,-0.000278577276453,0.927549829345,0.0,0.0,0.0,0.0,0.0,0.0,0.0,0.0,0.0,-0.00110700081367,-0.0113981010782,0.000586491787106,0.0,0.0,0.0,0.0,0.0,0.0,0.0,0.0,0.0,6.4602040978,0.00910353392335,7.11237000733,0.0,0.0,0.0,0.0,0.0,0.0,0.0,0.0,0.0
25188000000,214,25188000000,imu_link,0.000943941433707,-0.373719243943,-0.00027828198944,0.927541351229,0.0,0.0,0.0,0.0,0.0,0.0,0.0,0.0,0.0,-0.000867739868086,-0.0113457955199,0.000520348118593,0.0,0.0,0.0,0.0,0.0,0.0,0.0,0.0,0.0,6.46256562309,0.00906951600502,7.11533388682,0.0,0.0,0.0,0.0,0.0,0.0,0.0,0.0,0.0
25192000000,215,25192000000,imu_link,0.000942904481939,-0.373740406739,-0.000277882610073,0.92753282534,0.0,0.0,0.0,0.0,0.0,0.0,0.0,0.0,0.0,-0.000399311362295,-0.0114077843616,0.000387786773139,0.0,0.0,0.0,0.0,0.0,0.0,0.0,0.0,0.0,6.46336166962,0.00919065027943,7.11573467151,0.0,0.0,0.0,0.0,0.0,0.0,0.0,0.0,0.0
25196000000,216,25196000000,imu_link,0.000943069344529,-0.373761831877,-0.000277346349904,0.927524191992,0.0,0.0,0.0,0.0,0.0,0.0,0.0,0.0,0.0,0.000183715826489,-0.0115492992142,0.00022679295054,0.0,0.0,0.0,0.0,0.0,0.0,0.0,0.0,0.0,6.46354776008,0.00938905550237,7.11416434777,0.0,0.0,0.0,0.0,0.0,0.0,0.0,0.0,0.0
25200000000,217,25200000000,imu_link,0.000944431386334,-0.373783624621,-0.000276647961252,0.927515408756,0.0,0.0,0.0,0.0,0.0,0.0,0.0,0.0,0.0,0.000769342542959,-0.0117475497185,7.84045997982e-05,0.0,0.0,0.0,0.0,0.0,0.0,0.0,0.0,0.0,6.46430902081,0.00964581341179,7.11347598318,0.0,0.0,0.0,0.0,0.0,0.0,0.0,0.0,0.0
25204000000,218,25204000000,imu_link,0.000946720731093,-0.373805998678,-0.000275797855206,0.927506389739,0.0,0.0,0.0,0.0,0.0,0.0,0.0,0.0,0.0,0.00122793292002,-0.0120610037385,-2.42987278828e-05,0.0,0.0,0.0,0.0,0.0,0.0,0.0,0.0,0.0,6.46584606408,0.0099392420229,7.11530626909,0.0,0.0,0.0,0.0,0.0,0.0,0.0,0.0,0.0
25208000000,219,25208000000,imu_link,0.000949571574547,-0.373829082556,-0.000274835986786,0.927497083453,0.0,0.0,0.0,0.0,0.0,0.0,0.0,0.0,0.0,0.00150945232205,-0.0124437465649,-7.71179733562e-05,0.0,0.0,0.0,0.0,0.0,0.0,0.0,0.0,0.0,6.46567721186,0.0101763695632,7.11289750321,0.0,0.0,0.0,0.0,0.0,0.0,0.0,0.0,0.0
25212000000,220,25212000000,imu_link,0.000952689910826,-0.373852950326,-0.000273794404436,0.927487460266,0.0,0.0,0.0,0.0,0.0,0.0,0.0,0.0,0.0,0.00164865960337,-0.012866434213,-8.98204204139e-05,0.0,0.0,0.0,0.0,0.0,0.0,0.0,0.0,0.0,6.46566284837,0.0103137953896,7.11044690128,0.0,0.0,0.0,0.0,0.0,0.0,0.0,0.0,0.0
25216000000,221,25216000000,imu_link,0.000955915775606,-0.373877556213,-0.000272670575538,0.927477538723,0.0,0.0,0.0,0.0,0.0,0.0,0.0,0.0,0.0,0.00171414249507,-0.0132644477646,-7.14682688725e-05,0.0,0.0,0.0,0.0,0.0,0.0,0.0,0.0,0.0,6.46559295985,0.0103509967128,7.1068989097,0.0,0.0,0.0,0.0,0.0,0.0,0.0,0.0,0.0
25220000000,222,25220000000,imu_link,0.000959089476954,-0.373902952523,-0.000271429450916,0.927467297843,0.0,0.0,0.0,0.0,0.0,0.0,0.0,0.0,0.0,0.00171213980082,-0.0136906452164,-6.9880738391e-06,0.0,0.0,0.0,0.0,0.0,0.0,0.0,0.0,0.0,6.46684904222,0.0103735948569,7.10698195864,0.0,0.0,0.0,0.0,0.0,0.0,0.0,0.0,0.0
25224000000,223,25224000000,imu_link,0.000961991994762,-0.373929209136,-0.00027008131249,0.9274567096,0.0,0.0,0.0,0.0,0.0,0.0,0.0,0.0,0.0,0.0016066725889,-0.0141545220087,9.37014026576e-05,0.0,0.0,0.0,0.0,0.0,0.0,0.0,0.0,0.0,6.46917692466,0.0103995514676,7.1090596207,0.0,0.0,0.0,0.0,0.0,0.0,0.0,0.0,0.0
25228000000,224,25228000000,imu_link,0.000964654037815,-0.373956320906,-0.000268618151923,0.927445775957,0.0,0.0,0.0,0.0,0.0,0.0,0.0,0.0,0.0,0.00151694431274,-0.0146156377218,0.000192365382609,0.0,0.0,0.0,0.0,0.0,0.0,0.0,0.0,0.0,6.47026346084,0.0103518582687,7.10793983663,0.0,0.0,0.0,0.0,0.0,0.0,0.0,0.0,0.0
25232000000,225,25232000000,imu_link,0.000967175941101,-0.373984135857,-0.000267040026185,0.927434558008,0.0,0.0,0.0,0.0,0.0,0.0,0.0,0.0,0.0,0.00147368584329,-0.0149948409185,0.000272181417504,0.0,0.0,0.0,0.0,0.0,0.0,0.0,0.0,0.0,6.47133015835,0.0103144346031,7.10511091023,0.0,0.0,0.0,0.0,0.0,0.0,0.0,0.0,0.0
25236000000,226,25236000000,imu_link,0.000969608157868,-0.374012453396,-0.000265350741822,0.927423136521,0.0,0.0,0.0,0.0,0.0,0.0,0.0,0.0,0.0,0.00145304797046,-0.0152659179087,0.000340714129285,0.0,0.0,0.0,0.0,0.0,0.0,0.0,0.0,0.0,6.47315099563,0.0103218413273,7.10355714599,0.0,0.0,0.0,0.0,0.0,0.0,0.0,0.0,0.0
25240000000,227,25240000000,imu_link,0.000971996420423,-0.374040909332,-0.000263589387028,0.927411658267,0.0,0.0,0.0,0.0,0.0,0.0,0.0,0.0,0.0,0.0014461893956,-0.0153406811378,0.000382413297822,0.0,0.0,0.0,0.0,0.0,0.0,0.0,0.0,0.0,6.4755418513,0.0103505679549,7.10215144646,0.0,0.0,0.0,0.0,0.0,0.0,0.0,0.0,0.0
25244000000,228,25244000000,imu_link,0.000974244372094,-0.374069161979,-0.000261791308387,0.927400261144,0.0,0.0,0.0,0.0,0.0,0.0,0.0,0.0,0.0,0.00138792830927,-0.0152312420026,0.000425595259228,0.0,0.0,0.0,0.0,0.0,0.0,0.0,0.0,0.0,6.47752030333,0.0104077713917,7.10007031662,0.0,0.0,0.0,0.0,0.0,0.0,0.0,0.0,0.0
25248000000,229,25248000000,imu_link,0.000976209407947,-0.374096828397,-0.000259981295151,0.927389099789,0.0,0.0,0.0,0.0,0.0,0.0,0.0,0.0,0.0,0.00125878080641,-0.0149153419032,0.000483789669868,0.0,0.0,0.0,0.0,0.0,0.0,0.0,0.0,0.0,6.47870736767,0.0104613477477,7.0965343788,0.0,0.0,0.0,0.0,0.0,0.0,0.0,0.0,0.0
25252000000,230,25252000000,imu_link,0.00097774794254,-0.374123679388,-0.000258167151411,0.927378266879,0.0,0.0,0.0,0.0,0.0,0.0,0.0,0.0,0.0,0.00106152078823,-0.0144758515464,0.00056512602752,0.0,0.0,0.0,0.0,0.0,0.0,0.0,0.0,0.0,6.47962324454,0.0104828345857,7.0936087284,0.0,0.0,0.0,0.0,0.0,0.0,0.0,0.0,0.0
25256000000,231,25256000000,imu_link,0.000978762584891,-0.374149543237,-0.000256356710028,0.927367831877,0.0,0.0,0.0,0.0,0.0,0.0,0.0,0.0,0.0,0.000817583127587,-0.0139437604314,0.000660978306738,0.0,0.0,0.0,0.0,0.0,0.0,0.0,0.0,0.0,6.4797834899,0.0104198011528,7.08985627307,0.0,0.0,0.0,0.0,0.0,0.0,0.0,0.0,0.0
25260000000,232,25260000000,imu_link,0.000978927032326,-0.374174384469,-0.000254582221207,0.92735780953,0.0,0.0,0.0,0.0,0.0,0.0,0.0,0.0,0.0,0.000416302578709,-0.0133925184374,0.000802910145289,0.0,0.0,0.0,0.0,0.0,0.0,0.0,0.0,0.0,6.48038448577,0.010319961524,7.08846850345,0.0,0.0,0.0,0.0,0.0,0.0,0.0,0.0,0.0
25264000000,233,25264000000,imu_link,0.000978047481216,-0.374198182743,-0.000252849105062,0.927348208346,0.0,0.0,0.0,0.0,0.0,0.0,0.0,0.0,0.0,-7.58567234596e-05,-0.0128302799054,0.000978588385464,0.0,0.0,0.0,0.0,0.0,0.0,0.0,0.0,0.0,6.48202390098,0.010200389949,7.08910844383,0.0,0.0,0.0,0.0,0.0,0.0,0.0,0.0,0.0
25268000000,234,25268000000,imu_link,0.000976062350751,-0.374220829235,-0.000251139323063,0.927339072399,0.0,0.0,0.0,0.0,0.0,0.0,0.0,0.0,0.0,-0.000593224164436,-0.0122093340585,0.00117411740736,0.0,0.0,0.0,0.0,0.0,0.0,0.0,0.0,0.0,6.48332193541,0.0100515137301,7.08836787881,0.0,0.0,0.0,0.0,0.0,0.0,0.0,0.0,0.0
25272000000,235,25272000000,imu_link,0.000973099885559,-0.374242206785,-0.000249426604383,0.927330448936,0.0,0.0,0.0,0.0,0.0,0.0,0.0,0.0,0.0,-0.00104624446884,-0.0115251944923,0.00135779363221,0.0,0.0,0.0,0.0,0.0,0.0,0.0,0.0,0.0,6.48369742916,0.00986827295346,7.08574396186,0.0,0.0,0.0,0.0,0.0,0.0,0.0,0.0,0.0
25276000000,236,25276000000,imu_link,0.000969486384115,-0.37426246003,-0.000247666749621,0.927322279345,0.0,0.0,0.0,0.0,0.0,0.0,0.0,0.0,0.0,-0.0013396482309,-0.0109190224505,0.00150098118913,0.0,0.0,0.0,0.0,0.0,0.0,0.0,0.0,0.0,6.48467900182,0.0096825789711,7.08644516827,0.0,0.0,0.0,0.0,0.0,0.0,0.0,0.0,0.0
25280000000,237,25280000000,imu_link,0.000965415012415,-0.374281772993,-0.000245844595353,0.927314489232,0.0,0.0,0.0,0.0,0.0,0.0,0.0,0.0,0.0,-0.00154058707937,-0.0104120648939,0.00161514007051,0.0,0.0,0.0,0.0,0.0,0.0,0.0,0.0,0.0,6.48588506239,0.00961616091435,7.08792320583,0.0,0.0,0.0,0.0,0.0,0.0,0.0,0.0,0.0
25284000000,238,25284000000,imu_link,0.000960711987597,-0.374300367552,-0.000244003797633,0.927306989268,0.0,0.0,0.0,0.0,0.0,0.0,0.0,0.0,0.0,-0.00183019703714,-0.010024741438,0.00174168125347,0.0,0.0,0.0,0.0,0.0,0.0,0.0,0.0,0.0,6.48635100178,0.00968653371518,7.08825015492,0.0,0.0,0.0,0.0,0.0,0.0,0.0,0.0,0.0
25288000000,239,25288000000,imu_link,0.000955217501883,-0.374318520114,-0.000242217215255,0.927299668063,0.0,0.0,0.0,0.0,0.0,0.0,0.0,0.0,0.0,-0.00220744685058,-0.00978647583299,0.00186447566542,0.0,0.0,0.0,0.0,0.0,0.0,0.0,0.0,0.0,6.48728783508,0.00971497013426,7.08959292543,0.0,0.0,0.0,0.0,0.0,0.0,0.0,0.0,0.0
25292000000,240,25292000000,imu_link,0.00094907615966,-0.374336597747,-0.000240507651069,0.927292377299,0.0,0.0,0.0,0.0,0.0,0.0,0.0,0.0,0.0,-0.00252180004563,-0.00974615296166,0.00194979927929,0.0,0.0,0.0,0.0,0.0,0.0,0.0,0.0,0.0,6.48812228237,0.00965785136095,7.09152904208,0.0,0.0,0.0,0.0,0.0,0.0,0.0,0.0,0.0
25296000000,241,25296000000,imu_link,0.000942680478885,-0.374355015106,-0.000238857637166,0.927284949174,0.0,0.0,0.0,0.0,0.0,0.0,0.0,0.0,0.0,-0.00265076303409,-0.00992943398584,0.00196993782643,0.0,0.0,0.0,0.0,0.0,0.0,0.0,0.0,0.0,6.48962099224,0.00957636842793,7.09507078418,0.0,0.0,0.0,0.0,0.0,0.0,0.0,0.0,0.0
25300000000,242,25300000000,imu_link,0.000936315717871,-0.374374064136,-0.000237260599899,0.927277265505,0.0,0.0,0.0,0.0,0.0,0.0,0.0,0.0,0.0,-0.00264614746655,-0.01027015681,0.00193985533673,0.0,0.0,0.0,0.0,0.0,0.0,0.0,0.0,0.0,6.49092064231,0.00954523127673,7.0968776285,0.0,0.0,0.0,0.0,0.0,0.0,0.0,0.0,0.0
25304000000,243,25304000000,imu_link,0.000929935022005,-0.37439371087,-0.000235718398273,0.927269340008,0.0,0.0,0.0,0.0,0.0,0.0,0.0,0.0,0.0,-0.00266361588088,-0.0105925701782,0.0019176653438,0.0,0.0,0.0,0.0,0.0,0.0,0.0,0.0,0.0,6.49158958872,0.00956470551622,7.09490169263,0.0,0.0,0.0,0.0,0.0,0.0,0.0,0.0,0.0
25308000000,244,25308000000,imu_link,0.000923088069717,-0.37441374224,-0.000234250949407,0.927261259116,0.0,0.0,0.0,0.0,0.0,0.0,0.0,0.0,0.0,-0.00289366441894,-0.0108000798425,0.00197044963783,0.0,0.0,0.0,0.0,0.0,0.0,0.0,0.0,0.0,6.49406426247,0.00965397780097,7.09505424769,0.0,0.0,0.0,0.0,0.0,0.0,0.0,0.0,0.0
25312000000,245,25312000000,imu_link,0.00091520257513,-0.374433927756,-0.000232894573336,0.92725311642,0.0,0.0,0.0,0.0,0.0,0.0,0.0,0.0,0.0,-0.00339591144944,-0.0108832893761,0.00211343904855,0.0,0.0,0.0,0.0,0.0,0.0,0.0,0.0,0.0,6.49592935849,0.00970988156909,7.09408321323,0.0,0.0,0.0,0.0,0.0,0.0,0.0,0.0,0.0
25316000000,246,25316000000,imu_link,0.000905866103071,-0.374454150297,-0.000231666946001,0.927244959578,0.0,0.0,0.0,0.0,0.0,0.0,0.0,0.0,0.0,-0.00409271630355,-0.0109033317249,0.00232541060749,0.0,0.0,0.0,0.0,0.0,0.0,0.0,0.0,0.0,6.49779927159,0.00965005563499,7.09395777892,0.0,0.0,0.0,0.0,0.0,0.0,0.0,0.0,0.0
25320000000,247,25320000000,imu_link,0.000895161847071,-0.374474465335,-0.000230556496486,0.927236766064,0.0,0.0,0.0,0.0,0.0,0.0,0.0,0.0,0.0,-0.00474876322346,-0.0109532928739,0.00252720817027,0.0,0.0,0.0,0.0,0.0,0.0,0.0,0.0,0.0,6.49878451279,0.00945536663679,7.09332323626,0.0,0.0,0.0,0.0,0.0,0.0,0.0,0.0,0.0
25324000000,248,25324000000,imu_link,0.000883586911581,-0.374494819424,-0.000229528119533,0.927228556946,0.0,0.0,0.0,0.0,0.0,0.0,0.0,0.0,0.0,-0.00516778179385,-0.0109744566725,0.00265219711938,0.0,0.0,0.0,0.0,0.0,0.0,0.0,0.0,0.0,6.49980607432,0.00927442330976,7.09222671175,0.0,0.0,0.0,0.0,0.0,0.0,0.0,0.0,0.0
25328000000,249,25328000000,imu_link,0.000871803302391,-0.374515108931,-0.000228548031305,0.927220373432,0.0,0.0,0.0,0.0,0.0,0.0,0.0,0.0,0.0,-0.00527358656276,-0.0109397663942,0.00266885779359,0.0,0.0,0.0,0.0,0.0,0.0,0.0,0.0,0.0,6.50134059237,0.00921218883763,7.09165720007,0.0,0.0,0.0,0.0,0.0,0.0,0.0,0.0,0.0
25332000000,250,25332000000,imu_link,0.000860306834441,-0.374535101604,-0.000227594007704,0.927212308881,0.0,0.0,0.0,0.0,0.0,0.0,0.0,0.0,0.0,-0.00514543153409,-0.0107798525631,0.00260288880427,0.0,0.0,0.0,0.0,0.0,0.0,0.0,0.0,0.0,6.50187323727,0.0092347437339,7.08817667749,0.0,0.0,0.0,0.0,0.0,0.0,0.0,0.0,0.0
25336000000,251,25336000000,imu_link,0.000849393310214,-0.374554524836,-0.00022665188573,0.92720447318,0.0,0.0,0.0,0.0,0.0,0.0,0.0,0.0,0.0,-0.00487756726576,-0.0104729393543,0.00248798578932,0.0,0.0,0.0,0.0,0.0,0.0,0.0,0.0,0.0,6.50354266577,0.00933620022239,7.0867296883,0.0,0.0,0.0,0.0,0.0,0.0,0.0,0.0,0.0
25340000000,252,25340000000,imu_link,0.000839045037628,-0.374573172772,-0.000225740795466,0.927196949566,0.0,0.0,0.0,0.0,0.0,0.0,0.0,0.0,0.0,-0.00462154727741,-0.0100550124214,0.00236744674073,0.0,0.0,0.0,0.0,0.0,0.0,0.0,0.0,0.0,6.50439664891,0.00951665364652,7.08430764535,0.0,0.0,0.0,0.0,0.0,0.0,0.0,0.0,0.0
25344000000,253,25344000000,imu_link,0.000829125937325,-0.374591081993,-0.000224890301352,0.927189723447,0.0,0.0,0.0,0.0,0.0,0.0,0.0,0.0,0.0,-0.00443414069307,-0.00965680555797,0.00225869991723,0.0,0.0,0.0,0.0,0.0,0.0,0.0,0.0,0.0,6.50544149781,0.00972765434943,7.08393502589,0.0,0.0,0.0,0.0,0.0,0.0,0.0,0.0,0.0
25348000000,254,25348000000,imu_link,0.000819522580006,-0.374608475892,-0.000224148482353,0.927182704719,0.0,0.0,0.0,0.0,0.0,0.0,0.0,0.0,0.0,-0.00430826215472,-0.00937907055366,0.00214899112497,0.0,0.0,0.0,0.0,0.0,0.0,0.0,0.0,0.0,6.50630870963,0.00987244728498,7.08496566367,0.0,0.0,0.0,0.0,0.0,0.0,0.0,0.0,0.0
25352000000,255,25352000000,imu_link,0.000810280308359,-0.37462566635,-0.000223532943236,0.927175767366,0.0,0.0,0.0,0.0,0.0,0.0,0.0,0.0,0.0,-0.00416457486074,-0.00926952720684,0.00202274174608,0.0,0.0,0.0,0.0,0.0,0.0,0.0,0.0,0.0,6.50688685623,0.00994415717043,7.08596876494,0.0,0.0,0.0,0.0,0.0,0.0,0.0,0.0,0.0
25356000000,256,25356000000,imu_link,0.000801510632099,-0.374642544691,-0.000223032915264,0.927168955231,0.0,0.0,0.0,0.0,0.0,0.0,0.0,0.0,0.0,-0.00396720770088,-0.00910137225466,0.00188055654139,0.0,0.0,0.0,0.0,0.0,0.0,0.0,0.0,0.0,6.50699121797,0.0100141899956,7.08236715743,0.0,0.0,0.0,0.0,0.0,0.0,0.0,0.0,0.0
25360000000,257,25360000000,imu_link,0.000793490191878,-0.374658869548,-0.000222637367028,0.927162365648,0.0,0.0,0.0,0.0,0.0,0.0,0.0,0.0,0.0,-0.00363959569124,-0.00880305532119,0.00169157651598,0.0,0.0,0.0,0.0,0.0,0.0,0.0,0.0,0.0,6.50937036692,0.0100707338944,7.08208271394,0.0,0.0,0.0,0.0,0.0,0.0,0.0,0.0,0.0
25364000000,258,25364000000,imu_link,0.000786222435838,-0.374674430167,-0.000222355222544,0.927156083835,0.0,0.0,0.0,0.0,0.0,0.0,0.0,0.0,0.0,-0.00331211650882,-0.00839107551595,0.00149773582035,0.0,0.0,0.0,0.0,0.0,0.0,0.0,0.0,0.0,6.51040636054,0.0102002899849,7.07942218181,0.0,0.0,0.0,0.0,0.0,0.0,0.0,0.0,0.0
25368000000,259,25368000000,imu_link,0.000779444293687,-0.374689164313,-0.000222167108896,0.927150135229,0.0,0.0,0.0,0.0,0.0,0.0,0.0,0.0,0.0,-0.00310298060914,-0.00794550144912,0.00136213443762,0.0,0.0,0.0,0.0,0.0,0.0,0.0,0.0,0.0,6.5111228682,0.0104340652489,7.07778619167,0.0,0.0,0.0,0.0,0.0,0.0,0.0,0.0,0.0
25372000000,260,25372000000,imu_link,0.00077287365242,-0.374703386238,-0.00022208454562,0.927144393116,0.0,0.0,0.0,0.0,0.0,0.0,0.0,0.0,0.0,-0.00302670003717,-0.00766938140273,0.00127415306362,0.0,0.0,0.0,0.0,0.0,0.0,0.0,0.0,0.0,6.51266472466,0.0106554586677,7.08101943909,0.0,0.0,0.0,0.0,0.0,0.0,0.0,0.0,0.0
25376000000,261,25376000000,imu_link,0.000766385182134,-0.374717547147,-0.000222144883152,0.927138675261,0.0,0.0,0.0,0.0,0.0,0.0,0.0,0.0,0.0,-0.00301539671248,-0.00763659732389,0.00119249246488,0.0,0.0,0.0,0.0,0.0,0.0,0.0,0.0,0.0,6.5133676558,0.0108238606123,7.08366650902,0.0,0.0,0.0,0.0,0.0,0.0,0.0,0.0,0.0
25380000000,262,25380000000,imu_link,0.000760270374092,-0.374731832496,-0.000222289043849,0.927132906487,0.0,0.0,0.0,0.0,0.0,0.0,0.0,0.0,0.0,-0.0028578500254,-0.00770381472686,0.00108366774474,0.0,0.0,0.0,0.0,0.0,0.0,0.0,0.0,0.0,6.51448031826,0.0108722585343,7.08469356484,0.0,0.0,0.0,0.0,0.0,0.0,0.0,0.0,0.0
25384000000,263,25384000000,imu_link,0.000754886433062,-0.374746269202,-0.000222451559511,0.927127075638,0.0,0.0,0.0,0.0,0.0,0.0,0.0,0.0,0.0,-0.0025224432725,-0.00778553495769,0.000938270068086,0.0,0.0,0.0,0.0,0.0,0.0,0.0,0.0,0.0,6.51519872691,0.0109418512559,7.08347508956,0.0,0.0,0.0,0.0,0.0,0.0,0.0,0.0,0.0
25388000000,264,25388000000,imu_link,0.000750300422706,-0.374760614641,-0.000222629932489,0.927121280739,0.0,0.0,0.0,0.0,0.0,0.0,0.0,0.0,0.0,-0.00215554666107,-0.00773640862868,0.000781377973889,0.0,0.0,0.0,0.0,0.0,0.0,0.0,0.0,0.0,6.51630174597,0.011120452957,7.0807415133,0.0,0.0,0.0,0.0,0.0,0.0,0.0,0.0,0.0
25392000000,265,25392000000,imu_link,0.000746124068456,-0.374774693674,-0.000222859013949,0.927115592909,0.0,0.0,0.0,0.0,0.0,0.0,0.0,0.0,0.0,-0.00197521780762,-0.0075928234625,0.00068102200637,0.0,0.0,0.0,0.0,0.0,0.0,0.0,0.0,0.0,6.51725007059,0.0113573527557,7.0784686992,0.0,0.0,0.0,0.0,0.0,0.0,0.0,0.0,0.0
25396000000,266,25396000000,imu_link,0.000741646050243,-0.374788627994,-0.000223186037642,0.927109963529,0.0,0.0,0.0,0.0,0.0,0.0,0.0,0.0,0.0,-0.00213344755575,-0.00751485806901,0.000692100656094,0.0,0.0,0.0,0.0,0.0,0.0,0.0,0.0,0.0,6.51849716308,0.0115416663826,7.0797828956,0.0,0.0,0.0,0.0,0.0,0.0,0.0,0.0,0.0
25400000000,267,25400000000,imu_link,0.000736502692879,-0.374802647854,-0.000223623636962,0.927104299806,0.0,0.0,0.0,0.0,0.0,0.0,0.0,0.0,0.0,-0.002462567796,-0.0075610618925,0.000765551435319,0.0,0.0,0.0,0.0,0.0,0.0,0.0,0.0,0.0,6.51854963659,0.0115679875921,7.07935998124,0.0,0.0,0.0,0.0,0.0,0.0,0.0,0.0,0.0
25404000000,268,25404000000,imu_link,0.000730651793287,-0.374816888992,-0.000224181716155,0.927098546875,0.0,0.0,0.0,0.0,0.0,0.0,0.0,0.0,0.0,-0.00281307101263,-0.00768047664926,0.00084236859224,0.0,0.0,0.0,0.0,0.0,0.0,0.0,0.0,0.0,6.51921292439,0.0114947865291,7.07922400598,0.0,0.0,0.0,0.0,0.0,0.0,0.0,0.0,0.0
25408000000,269,25408000000,imu_link,0.000724136793448,-0.374831258075,-0.000224862560923,0.927092742412,0.0,0.0,0.0,0.0,0.0,0.0,0.0,0.0,0.0,-0.00314388833762,-0.00774956230725,0.000909959659577,0.0,0.0,0.0,0.0,0.0,0.0,0.0,0.0,0.0,6.51930836101,0.011399919298,7.0758051472,0.0,0.0,0.0,0.0,0.0,0.0,0.0,0.0,0.0
25412000000,270,25412000000,imu_link,0.000716890720799,-0.374845631852,-0.000225666874702,0.927086936281,0.0,0.0,0.0,0.0,0.0,0.0,0.0,0.0,0.0,-0.0035059133767,-0.00775217788999,0.000989742029613,0.0,0.0,0.0,0.0,0.0,0.0,0.0,0.0,0.0,6.52041784345,0.0113469138861,7.07418654,0.0,0.0,0.0,0.0,0.0,0.0,0.0,0.0,0.0
25416000000,271,25416000000,imu_link,0.00070871519793,-0.374859996932,-0.000226626935516,0.927081134024,0.0,0.0,0.0,0.0,0.0,0.0,0.0,0.0,0.0,-0.00396594687296,-0.0077475809325,0.00109174400655,0.0,0.0,0.0,0.0,0.0,0.0,0.0,0.0,0.0,6.52135232118,0.0113555917623,7.07307660803,0.0,0.0,0.0,0.0,0.0,0.0,0.0,0.0,0.0
25420000000,272,25420000000,imu_link,0.000699655830141,-0.374874492958,-0.000227743138109,0.927075279114,0.0,0.0,0.0,0.0,0.0,0.0,0.0,0.0,0.0,-0.00440487700617,-0.00781830402215,0.0011850654448,0.0,0.0,0.0,0.0,0.0,0.0,0.0,0.0,0.0,6.52213801276,0.0113516913074,7.07298928516,0.0,0.0,0.0,0.0,0.0,0.0,0.0,0.0,0.0
25424000000,273,25424000000,imu_link,0.000690150357592,-0.374889286475,-0.000228981710547,0.927069303853,0.0,0.0,0.0,0.0,0.0,0.0,0.0,0.0,0.0,-0.00463452404224,-0.00797885386382,0.00121204942951,0.0,0.0,0.0,0.0,0.0,0.0,0.0,0.0,0.0,6.52509795862,0.011262405802,7.0775765528,0.0,0.0,0.0,0.0,0.0,0.0,0.0,0.0,0.0
25428000000,274,25428000000,imu_link,0.000680599883152,-0.374904509686,-0.000230315855963,0.927063154459,0.0,0.0,0.0,0.0,0.0,0.0,0.0,0.0,0.0,-0.00467318933565,-0.00821071095293,0.00117631174682,0.0,0.0,0.0,0.0,0.0,0.0,0.0,0.0,0.0,6.52693720648,0.0112184002162,7.07958056786,0.0,0.0,0.0,0.0,0.0,0.0,0.0,0.0,0.0
25432000000,275,25432000000,imu_link,0.000671302668853,-0.374920104924,-0.000231730512299,0.927056854016,0.0,0.0,0.0,0.0,0.0,0.0,0.0,0.0,0.0,-0.0045707929732,-0.00841146955567,0.00109162741402,0.0,0.0,0.0,0.0,0.0,0.0,0.0,0.0,0.0,6.5271259351,0.0112361546945,7.07689872551,0.0,0.0,0.0,0.0,0.0,0.0,0.0,0.0,0.0
25436000000,276,25436000000,imu_link,0.000662421566579,-0.374935929118,-0.000233233636309,0.927050460253,0.0,0.0,0.0,0.0,0.0,0.0,0.0,0.0,0.0,-0.00439443952436,-0.00853507227526,0.000972681787472,0.0,0.0,0.0,0.0,0.0,0.0,0.0,0.0,0.0,6.52755051202,0.0113483157935,7.07362400249,0.0,0.0,0.0,0.0,0.0,0.0,0.0,0.0,0.0
25440000000,277,25440000000,imu_link,0.000653970112944,-0.374951670046,-0.000234817466886,0.927044099444,0.0,0.0,0.0,0.0,0.0,0.0,0.0,0.0,0.0,-0.00421043706092,-0.00849027516023,0.000854703165183,0.0,0.0,0.0,0.0,0.0,0.0,0.0,0.0,0.0,6.52904810695,0.0114712434077,7.07090860445,0.0,0.0,0.0,0.0,0.0,0.0,0.0,0.0,0.0
25444000000,278,25444000000,imu_link,0.000646022233665,-0.374967082435,-0.000236468961473,0.927037870762,0.0,0.0,0.0,0.0,0.0,0.0,0.0,0.0,0.0,-0.00398978638668,-0.00831318303888,0.000728839468126,0.0,0.0,0.0,0.0,0.0,0.0,0.0,0.0,0.0,6.53031979834,0.0115658080412,7.06844164681,0.0,0.0,0.0,0.0,0.0,0.0,0.0,0.0,0.0
25448000000,279,25448000000,imu_link,0.000638910208777,-0.374981891979,-0.000238139063509,0.927031884981,0.0,0.0,0.0,0.0,0.0,0.0,0.0,0.0,0.0,-0.00360599037631,-0.00798811950126,0.000563339614896,0.0,0.0,0.0,0.0,0.0,0.0,0.0,0.0,0.0,6.53266147016,0.011634572797,7.06797044283,0.0,0.0,0.0,0.0,0.0,0.0,0.0,0.0,0.0
25452000000,280,25452000000,imu_link,0.000633194012248,-0.37499596398,-0.000239741906907,0.927026196279,0.0,0.0,0.0,0.0,0.0,0.0,0.0,0.0,0.0,-0.00294657401569,-0.00759036966553,0.000332609648139,0.0,0.0,0.0,0.0,0.0,0.0,0.0,0.0,0.0,6.53474480302,0.0117074978047,7.06848839017,0.0,0.0,0.0,0.0,0.0,0.0,0.0,0.0,0.0
25456000000,281,25456000000,imu_link,0.000629296882619,-0.375009565029,-0.000241212353337,0.927020696608,0.0,0.0,0.0,0.0,0.0,0.0,0.0,0.0,0.0,-0.0020787048163,-0.00733637429046,5.27795612302e-05,0.0,0.0,0.0,0.0,0.0,0.0,0.0,0.0,0.0,6.53609733607,0.0118801760367,7.07107435985,0.0,0.0,0.0,0.0,0.0,0.0,0.0,0.0,0.0
25460000000,282,25460000000,imu_link,0.000627237695387,-0.37502314602,-0.000242491269002,0.927015203608,0.0,0.0,0.0,0.0,0.0,0.0,0.0,0.0,0.0,-0.00119089107971,-0.00732554473379,-0.000203072443222,0.0,0.0,0.0,0.0,0.0,0.0,0.0,0.0,0.0,6.53722170233,0.0122315006218,7.07486899733,0.0,0.0,0.0,0.0,0.0,0.0,0.0,0.0,0.0
25464000000,283,25464000000,imu_link,0.000626644259256,-0.375037292315,-0.0002436006292,0.927009480722,0.0,0.0,0.0,0.0,0.0,0.0,0.0,0.0,0.0,-0.00047957005214,-0.00763044233861,-0.00039917807278,0.0,0.0,0.0,0.0,0.0,0.0,0.0,0.0,0.0,6.53970974597,0.0126845595488,7.08233852948,0.0,0.0,0.0,0.0,0.0,0.0,0.0,0.0,0.0
25468000000,284,25468000000,imu_link,0.000627151095398,-0.375052351092,-0.000244588949824,0.927003387695,0.0,0.0,0.0,0.0,0.0,0.0,0.0,0.0,0.0,5.33356526317e-05,-0.0081226185085,-0.000549156405825,0.0,0.0,0.0,0.0,0.0,0.0,0.0,0.0,0.0,6.54057325666,0.0130257780181,7.08458483349,0.0,0.0,0.0,0.0,0.0,0.0,0.0,0.0,0.0
25472000000,285,25472000000,imu_link,0.00062864428288,-0.375068596053,-0.00024548867738,0.9269968138,0.0,0.0,0.0,0.0,0.0,0.0,0.0,0.0,0.0,0.000527420541404,-0.00876244397871,-0.000692746912952,0.0,0.0,0.0,0.0,0.0,0.0,0.0,0.0,0.0,6.54093539837,0.0132412786003,7.08509131805,0.0,0.0,0.0,0.0,0.0,0.0,0.0,0.0,0.0
25476000000,286,25476000000,imu_link,0.000631083322132,-0.375085994487,-0.000246302261074,0.926989772225,0.0,0.0,0.0,0.0,0.0,0.0,0.0,0.0,0.0,0.00098226484301,-0.00938463939858,-0.000829893860751,0.0,0.0,0.0,0.0,0.0,0.0,0.0,0.0,0.0,6.54094515651,0.0134059685944,7.08219544557,0.0,0.0,0.0,0.0,0.0,0.0,0.0,0.0,0.0
25480000000,287,25480000000,imu_link,0.000634266606992,-0.37510419078,-0.000247060922203,0.926982406913,0.0,0.0,0.0,0.0,0.0,0.0,0.0,0.0,0.0,0.00133771962907,-0.00981504911583,-0.00094380369542,0.0,0.0,0.0,0.0,0.0,0.0,0.0,0.0,0.0,6.54160441185,0.0136062018651,7.07718975618,0.0,0.0,0.0,0.0,0.0,0.0,0.0,0.0,0.0
25484000000,288,25484000000,imu_link,0.000637924286505,-0.375122854499,-0.000247792326575,0.9269748517,0.0,0.0,0.0,0.0,0.0,0.0,0.0,0.0,0.0,0.00156282740447,-0.0100672453329,-0.00102001936187,0.0,0.0,0.0,0.0,0.0,0.0,0.0,0.0,0.0,6.54303244524,0.0137496493848,7.07426402405,0.0,0.0,0.0,0.0,0.0,0.0,0.0,0.0,0.0
25488000000,289,25488000000,imu_link,0.000641637654566,-0.375141869359,-0.000248527046833,0.926967153889,0.0,0.0,0.0,0.0,0.0,0.0,0.0,0.0,0.0,0.00158810540246,-0.0102567354096,-0.00103190692359,0.0,0.0,0.0,0.0,0.0,0.0,0.0,0.0,0.0,6.54507368073,0.0138367239561,7.07467285118,0.0,0.0,0.0,0.0,0.0,0.0,0.0,0.0,0.0
25492000000,290,25492000000,imu_link,0.000645109536015,-0.375161207829,-0.000249286129309,0.926959324798,0.0,0.0,0.0,0.0,0.0,0.0,0.0,0.0,0.0,0.00147169300982,-0.0104313852003,-0.000997815034791,0.0,0.0,0.0,0.0,0.0,0.0,0.0,0.0,0.0,6.54585398437,0.0138550811678,7.07357257883,0.0,0.0,0.0,0.0,0.0,0.0,0.0,0.0,0.0
25496000000,291,25496000000,imu_link,0.000648105070322,-0.375180844201,-0.000250087449146,0.926951374971,0.0,0.0,0.0,0.0,0.0,0.0,0.0,0.0,0.0,0.00124306896269,-0.0105921773093,-0.000927956667559,0.0,0.0,0.0,0.0,0.0,0.0,0.0,0.0,0.0,6.54652391204,0.0138288444345,7.07232674661,0.0,0.0,0.0,0.0,0.0,0.0,0.0,0.0,0.0
25500000000,292,25500000000,imu_link,0.000650501493914,-0.37520091414,-0.000250979981827,0.926943249549,0.0,0.0,0.0,0.0,0.0,0.0,0.0,0.0,0.0,0.000948396173075,-0.0108261700072,-0.000857725629535,0.0,0.0,0.0,0.0,0.0,0.0,0.0,0.0,0.0,6.54726677163,0.0137551482493,7.07251315125,0.0,0.0,0.0,0.0,0.0,0.0,0.0,0.0,0.0
25504000000,293,25504000000,imu_link,0.00065237617946,-0.375221550564,-0.000251973237187,0.926934894643,0.0,0.0,0.0,0.0,0.0,0.0,0.0,0.0,0.0,0.00068783550074,-0.0111318689739,-0.000806373985822,0.0,0.0,0.0,0.0,0.0,0.0,0.0,0.0,0.0,6.54954107664,0.0136697779818,7.07579757148,0.0,0.0,0.0,0.0,0.0,0.0,0.0,0.0,0.0
25508000000,294,25508000000,imu_link,0.000653948873916,-0.375242773737,-0.000253044762929,0.926926301859,0.0,0.0,0.0,0.0,0.0,0.0,0.0,0.0,0.0,0.00053333960953,-0.0114485001137,-0.000785831556027,0.0,0.0,0.0,0.0,0.0,0.0,0.0,0.0,0.0,6.55033248089,0.0135657853487,7.07496034281,0.0,0.0,0.0,0.0,0.0,0.0,0.0,0.0,0.0
25512000000,295,25512000000,imu_link,0.000655380525538,-0.375264350848,-0.000254139815461,0.926917565306,0.0,0.0,0.0,0.0,0.0,0.0,0.0,0.0,0.0,0.000463649114288,-0.0116395369873,-0.000770175166107,0.0,0.0,0.0,0.0,0.0,0.0,0.0,0.0,0.0,6.55169298727,0.0135197178158,7.07290220637,0.0,0.0,0.0,0.0,0.0,0.0,0.0,0.0,0.0
25516000000,296,25516000000,imu_link,0.000656892832618,-0.375285981488,-0.000255232307282,0.926908806435,0.0,0.0,0.0,0.0,0.0,0.0,0.0,0.0,0.0,0.000501524181228,-0.0116685218025,-0.00078410723574,0.0,0.0,0.0,0.0,0.0,0.0,0.0,0.0,0.0,6.5529394913,0.0134858254311,7.07035675108,0.0,0.0,0.0,0.0,0.0,0.0,0.0,0.0,0.0
25520000000,297,25520000000,imu_link,0.000658708095586,-0.37530741617,-0.000256335704341,0.9269001261,0.0,0.0,0.0,0.0,0.0,0.0,0.0,0.0,0.0,0.000639833328457,-0.0115629324331,-0.000846063204382,0.0,0.0,0.0,0.0,0.0,0.0,0.0,0.0,0.0,6.55428883562,0.0134903032286,7.06877635167,0.0,0.0,0.0,0.0,0.0,0.0,0.0,0.0,0.0
25524000000,298,25524000000,imu_link,0.000660996358362,-0.375328463375,-0.000257461032905,0.926891601741,0.0,0.0,0.0,0.0,0.0,0.0,0.0,0.0,0.0,0.00085482855701,-0.0113540333251,-0.00094509515581,0.0,0.0,0.0,0.0,0.0,0.0,0.0,0.0,0.0,6.55526396184,0.0135432633432,7.0669919487,0.0,0.0,0.0,0.0,0.0,0.0,0.0,0.0,0.0
25528000000,299,25528000000,imu_link,0.000663699768885,-0.375348970152,-0.00025862563526,0.926883295362,0.0,0.0,0.0,0.0,0.0,0.0,0.0,0.0,0.0,0.00103971514057,-0.0110626271834,-0.00104135536207,0.0,0.0,0.0,0.0,0.0,0.0,0.0,0.0,0.0,6.55584181848,0.0136553349301,7.06451238214,0.0,0.0,0.0,0.0,0.0,0.0,0.0,0.0,0.0
25532000000,300,25532000000,imu_link,0.000666668560435,-0.375368884585,-0.000259829569165,0.926875228133,0.0,0.0,0.0,0.0,0.0,0.0,0.0,0.0,0.0,0.00115516627246,-0.0107432059817,-0.00110955413239,0.0,0.0,0.0,0.0,0.0,0.0,0.0,0.0,0.0,6.55644273852,0.0137280037098,7.06344528113,0.0,0.0,0.0,0.0,0.0,0.0,0.0,0.0,0.0
25536000000,301,25536000000,imu_link,0.000669939186347,-0.375388180773,-0.000261049454231,0.926867410567,0.0,0.0,0.0,0.0,0.0,0.0,0.0,0.0,0.0,0.00129189034418,-0.0104097967332,-0.00117376976144,0.0,0.0,0.0,0.0,0.0,0.0,0.0,0.0,0.0,6.55530991542,0.0137127061476,7.05913681427,0.0,0.0,0.0,0.0,0.0,0.0,0.0,0.0,0.0
25540000000,302,25540000000,imu_link,0.000673692374373,-0.375406688007,-0.000262238914085,0.926859911728,0.0,0.0,0.0,0.0,0.0,0.0,0.0,0.0,0.0,0.00152102678274,-0.0099842724577,-0.00125046642335,0.0,0.0,0.0,0.0,0.0,0.0,0.0,0.0,0.0,6.55552274493,0.013689178033,7.05616626652,0.0,0.0,0.0,0.0,0.0,0.0,0.0,0.0,0.0
25544000000,303,25544000000,imu_link,0.000678158700878,-0.375424186664,-0.000263319092114,0.92685282048,0.0,0.0,0.0,0.0,0.0,0.0,0.0,0.0,0.0,0.00187175954187,-0.00944023091652,-0.0013339667216,0.0,0.0,0.0,0.0,0.0,0.0,0.0,0.0,0.0,6.5574939572,0.0136911048092,7.05561227856,0.0,0.0,0.0,0.0,0.0,0.0,0.0,0.0,0.0
25548000000,304,25548000000,imu_link,0.000683479096648,-0.375440582936,-0.000264179514369,0.926846174805,0.0,0.0,0.0,0.0,0.0,0.0,0.0,0.0,0.0,0.0023085123876,-0.00884553013255,-0.00139276035392,0.0,0.0,0.0,0.0,0.0,0.0,0.0,0.0,0.0,6.55910417415,0.0137465681647,7.05561012217,0.0,0.0,0.0,0.0,0.0,0.0,0.0,0.0,0.0
25552000000,305,25552000000,imu_link,0.000689398688734,-0.37545588294,-0.000264792607844,0.926839972476,0.0,0.0,0.0,0.0,0.0,0.0,0.0,0.0,0.0,0.00263232610999,-0.0082541057252,-0.00139093987053,0.0,0.0,0.0,0.0,0.0,0.0,0.0,0.0,0.0,6.55920341832,0.0139155640473,7.05384327412,0.0,0.0,0.0,0.0,0.0,0.0,0.0,0.0,0.0
25556000000,306,25556000000,imu_link,0.000695297295681,-0.375470366199,-0.000265240838948,0.926834100751,0.0,0.0,0.0,0.0,0.0,0.0,0.0,0.0,0.0,0.00265332835747,-0.00781349243711,-0.00131083761679,0.0,0.0,0.0,0.0,0.0,0.0,0.0,0.0,0.0,6.56089606543,0.0141450300895,7.05769088022,0.0,0.0,0.0,0.0,0.0,0.0,0.0,0.0,0.0
25560000000,307,25560000000,imu_link,0.000700511591637,-0.375484423385,-0.000265651383395,0.926828401868,0.0,0.0,0.0,0.0,0.0,0.0,0.0,0.0,0.0,0.00234316549432,-0.0075836713939,-0.00116502892958,0.0,0.0,0.0,0.0,0.0,0.0,0.0,0.0,0.0,6.56409309071,0.0142842781943,7.06515786034,0.0,0.0,0.0,0.0,0.0,0.0,0.0,0.0,0.0
25564000000,308,25564000000,imu_link,0.000704905317863,-0.375498393482,-0.000266060371921,0.926822738614,0.0,0.0,0.0,0.0,0.0,0.0,0.0,0.0,0.0,0.00196316989304,-0.0075367328378,-0.00101027808855,0.0,0.0,0.0,0.0,0.0,0.0,0.0,0.0,0.0,6.56497200425,0.0142315602124,7.06761860655,0.0,0.0,0.0,0.0,0.0,0.0,0.0,0.0,0.0
25568000000,309,25568000000,imu_link,0.000708983057049,-0.375512718257,-0.000266350461557,0.926816931669,0.0,0.0,0.0,0.0,0.0,0.0,0.0,0.0,0.0,0.00183915890497,-0.00772807297281,-0.000895746786067,0.0,0.0,0.0,0.0,0.0,0.0,0.0,0.0,0.0,6.56614335692,0.0140456536185,7.07127935442,0.0,0.0,0.0,0.0,0.0,0.0,0.0,0.0,0.0
25572000000,310,25572000000,imu_link,0.000713132080269,-0.375527768773,-0.000266438353886,0.926810830393,0.0,0.0,0.0,0.0,0.0,0.0,0.0,0.0,0.0,0.00191035734842,-0.00811956843447,-0.000815212801504,0.0,0.0,0.0,0.0,0.0,0.0,0.0,0.0,0.0,6.56658116416,0.0139468187386,7.07262298123,0.0,0.0,0.0,0.0,0.0,0.0,0.0,0.0,0.0
25576000000,311,25576000000,imu_link,0.000717487863792,-0.375543524846,-0.000266323420547,0.926804442819,0.0,0.0,0.0,0.0,0.0,0.0,0.0,0.0,0.0,0.00204445060535,-0.00850018401326,-0.000759830969265,0.0,0.0,0.0,0.0,0.0,0.0,0.0,0.0,0.0,6.56620156501,0.0138789883398,7.06933981719,0.0,0.0,0.0,0.0,0.0,0.0,0.0,0.0,0.0
25580000000,312,25580000000,imu_link,0.000721829053158,-0.375559881305,-0.000266065675014,0.926797811675,0.0,0.0,0.0,0.0,0.0,0.0,0.0,0.0,0.0,0.00206467106546,-0.00882409026508,-0.000690728159815,0.0,0.0,0.0,0.0,0.0,0.0,0.0,0.0,0.0,6.56650234023,0.0138413102217,7.06657015071,0.0,0.0,0.0,0.0,0.0,0.0,0.0,0.0,0.0
25584000000,313,25584000000,imu_link,0.000725805131709,-0.375576738213,-0.000265713229415,0.926790977684,0.0,0.0,0.0,0.0,0.0,0.0,0.0,0.0,0.0,0.00191340167339,-0.00909410302539,-0.000578130131636,0.0,0.0,0.0,0.0,0.0,0.0,0.0,0.0,0.0,6.56710461782,0.0138272578763,7.0646104071,0.0,0.0,0.0,0.0,0.0,0.0,0.0,0.0,0.0
25588000000,314,25588000000,imu_link,0.000729199167359,-0.375594126074,-0.000265287780253,0.926783928621,0.0,0.0,0.0,0.0,0.0,0.0,0.0,0.0,0.0,0.00165754342904,-0.00938058294612,-0.00043483561242,0.0,0.0,0.0,0.0,0.0,0.0,0.0,0.0,0.0,6.56731292011,0.013758077706,7.06310518051,0.0,0.0,0.0,0.0,0.0,0.0,0.0,0.0,0.0
25592000000,315,25592000000,imu_link,0.000731991702067,-0.375612335329,-0.000264754992792,0.926776546769,0.0,0.0,0.0,0.0,0.0,0.0,0.0,0.0,0.0,0.00139920083063,-0.00982374797991,-0.000271880459145,0.0,0.0,0.0,0.0,0.0,0.0,0.0,0.0,0.0,6.56812445595,0.0136277149204,7.06486813606,0.0,0.0,0.0,0.0,0.0,0.0,0.0,0.0,0.0
25596000000,316,25596000000,imu_link,0.000734398584699,-0.375631503172,-0.000264063246738,0.926768776316,0.0,0.0,0.0,0.0,0.0,0.0,0.0,0.0,0.0,0.00125061670778,-0.0103409211803,-0.000125493675884,0.0,0.0,0.0,0.0,0.0,0.0,0.0,0.0,0.0,6.56826409105,0.0134979993794,7.06397567865,0.0,0.0,0.0,0.0,0.0,0.0,0.0,0.0,0.0
25600000000,317,25600000000,imu_link,0.000736813393157,-0.375651430389,-0.000263180967127,0.926760697639,0.0,0.0,0.0,0.0,0.0,0.0,0.0,0.0,0.0,0.00129028805544,-0.0107506209204,-3.84538484939e-05,0.0,0.0,0.0,0.0,0.0,0.0,0.0,0.0,0.0,6.56905208512,0.0133848614011,7.06119667724,0.0,0.0,0.0,0.0,0.0,0.0,0.0,0.0,0.0
25604000000,318,25604000000,imu_link,0.000739714001524,-0.37567165097,-0.000262088792108,0.926752499209,0.0,0.0,0.0,0.0,0.0,0.0,0.0,0.0,0.0,0.0015549046639,-0.0109089118737,-3.23458378701e-05,0.0,0.0,0.0,0.0,0.0,0.0,0.0,0.0,0.0,6.57023134182,0.0133125551782,7.05704289717,0.0,0.0,0.0,0.0,0.0,0.0,0.0,0.0,0.0
25608000000,319,25608000000,imu_link,0.000743295875375,-0.375691832633,-0.000260800663643,0.926744315541,0.0,0.0,0.0,0.0,0.0,0.0,0.0,0.0,0.0,0.00190738342654,-0.0108879438449,-6.95241888434e-05,0.0,0.0,0.0,0.0,0.0,0.0,0.0,0.0,0.0,6.57191534882,0.0133566926024,7.05514348451,0.0,0.0,0.0,0.0,0.0,0.0,0.0,0.0,0.0
25612000000,320,25612000000,imu_link,0.000747574317248,-0.375711998044,-0.000259321505289,0.926736137426,0.0,0.0,0.0,0.0,0.0,0.0,0.0,0.0,0.0,0.00226603365528,-0.0108792074739,-0.000111859031349,0.0,0.0,0.0,0.0,0.0,0.0,0.0,0.0,0.0,6.57171861376,0.0134497951447,7.05281989562,0.0,0.0,0.0,0.0,0.0,0.0,0.0,0.0,0.0
25616000000,321,25616000000,imu_link,0.000752527870988,-0.375732129976,-0.000257641479215,0.926727971859,0.0,0.0,0.0,0.0,0.0,0.0,0.0,0.0,0.0,0.00261658411257,-0.010861175288,-0.000145618045186,0.0,0.0,0.0,0.0,0.0,0.0,0.0,0.0,0.0,6.57078683146,0.013554560265,7.04844192446,0.0,0.0,0.0,0.0,0.0,0.0,0.0,0.0,0.0
25620000000,322,25620000000,imu_link,0.000758127790296,-0.375751970675,-0.000255758267431,0.926719923366,0.0,0.0,0.0,0.0,0.0,0.0,0.0,0.0,0.0,0.00295417677058,-0.0107040741022,-0.000172993759302,0.0,0.0,0.0,0.0,0.0,0.0,0.0,0.0,0.0,6.57059200485,0.0136118727275,7.04342065018,0.0,0.0,0.0,0.0,0.0,0.0,0.0,0.0,0.0
25624000000,323,25624000000,imu_link,0.000764212299929,-0.37577114683,-0.000253707773426,0.926712143452,0.0,0.0,0.0,0.0,0.0,0.0,0.0,0.0,0.0,0.00320995804743,-0.0103455656227,-0.000186742320045,0.0,0.0,0.0,0.0,0.0,0.0,0.0,0.0,0.0,6.57228900879,0.0136488604208,7.0411662277,0.0,0.0,0.0,0.0,0.0,0.0,0.0,0.0,0.0
25628000000,324,25628000000,imu_link,0.000770336387238,-0.375789364829,-0.000251563900643,0.926704751568,0.0,0.0,0.0,0.0,0.0,0.0,0.0,0.0,0.0,0.00324557131468,-0.0098286528676,-0.000151227664457,0.0,0.0,0.0,0.0,0.0,0.0,0.0,0.0,0.0,6.5743563585,0.0137028297065,7.04057060425,0.0,0.0,0.0,0.0,0.0,0.0,0.0,0.0,0.0
25632000000,325,25632000000,imu_link,0.000776075581077,-0.375806653571,-0.000249415625566,0.92669773639,0.0,0.0,0.0,0.0,0.0,0.0,0.0,0.0,0.0,0.00306779519955,-0.0093273452662,-7.71789521392e-05,0.0,0.0,0.0,0.0,0.0,0.0,0.0,0.0,0.0,6.57470516948,0.013714005978,7.03978165094,0.0,0.0,0.0,0.0,0.0,0.0,0.0,0.0,0.0
25636000000,326,25636000000,imu_link,0.000781293532939,-0.375823165092,-0.000247319930257,0.926691036426,0.0,0.0,0.0,0.0,0.0,0.0,0.0,0.0,0.0,0.00281617916503,-0.00890807616187,-3.8609078775e-06,0.0,0.0,0.0,0.0,0.0,0.0,0.0,0.0,0.0,6.57435092218,0.0135988230508,7.03861018522,0.0,0.0,0.0,0.0,0.0,0.0,0.0,0.0,0.0
25640000000,327,25640000000,imu_link,0.000785790496327,-0.37583916953,-0.000245328049449,0.92668454233,0.0,0.0,0.0,0.0,0.0,0.0,0.0,0.0,0.0,0.00246246131281,-0.00863456632161,8.33465607975e-05,0.0,0.0,0.0,0.0,0.0,0.0,0.0,0.0,0.0,6.57579466831,0.0135163598061,7.04198251686,0.0,0.0,0.0,0.0,0.0,0.0,0.0,0.0,0.0
25644000000,328,25644000000,imu_link,0.00078935227987,-0.375854913101,-0.000243476881746,0.926678154453,0.0,0.0,0.0,0.0,0.0,0.0,0.0,0.0,0.0,0.00200263647907,-0.00849390480312,0.000193797374715,0.0,0.0,0.0,0.0,0.0,0.0,0.0,0.0,0.0,6.5760929252,0.0134109201472,7.04262209429,0.0,0.0,0.0,0.0,0.0,0.0,0.0,0.0,0.0
25648000000,329,25648000000,imu_link,0.000791811712392,-0.375870593841,-0.000241793592598,0.92667179263,0.0,0.0,0.0,0.0,0.0,0.0,0.0,0.0,0.0,0.00146030725221,-0.00846009730256,0.000323153077908,0.0,0.0,0.0,0.0,0.0,0.0,0.0,0.0,0.0,6.57628267877,0.0132946191136,7.04269566519,0.0,0.0,0.0,0.0,0.0,0.0,0.0,0.0,0.0
25652000000,330,25652000000,imu_link,0.000793054995698,-0.37588625496,-0.000240271582724,0.926665439447,0.0,0.0,0.0,0.0,0.0,0.0,0.0,0.0,0.0,0.000866505803886,-0.00844959262563,0.00047697724065,0.0,0.0,0.0,0.0,0.0,0.0,0.0,0.0,0.0,6.57571772963,0.0131499821676,7.0398739881,0.0,0.0,0.0,0.0,0.0,0.0,0.0,0.0,0.0
25656000000,331,25656000000,imu_link,0.000793027186165,-0.37590194619,-0.000238854198805,0.926659074799,0.0,0.0,0.0,0.0,0.0,0.0,0.0,0.0,0.0,0.000257911336535,-0.00846589341621,0.00066740433922,0.0,0.0,0.0,0.0,0.0,0.0,0.0,0.0,0.0,6.57678923214,0.0129864934279,7.04041448361,0.0,0.0,0.0,0.0,0.0,0.0,0.0,0.0,0.0
25660000000,332,25660000000,imu_link,0.000791947092321,-0.37591784985,-0.00023746664739,0.926652624554,0.0,0.0,0.0,0.0,0.0,0.0,0.0,0.0,0.0,-0.000235190804939,-0.0085805440416,0.000851433927887,0.0,0.0,0.0,0.0,0.0,0.0,0.0,0.0,0.0,6.57764792819,0.0127768681895,7.04152877623,0.0,0.0,0.0,0.0,0.0,0.0,0.0,0.0,0.0
25664000000,333,25664000000,imu_link,0.000790076819581,-0.375934182578,-0.000236073465183,0.926646000594,0.0,0.0,0.0,0.0,0.0,0.0,0.0,0.0,0.0,-0.00060012338991,-0.00881208541029,0.00100271327104,0.0,0.0,0.0,0.0,0.0,0.0,0.0,0.0,0.0,6.578743537,0.0126039560483,7.04327319972,0.0,0.0,0.0,0.0,0.0,0.0,0.0,0.0,0.0
25668000000,334,25668000000,imu_link,0.000787896279141,-0.375951207338,-0.000234615259092,0.926639095806,0.0,0.0,0.0,0.0,0.0,0.0,0.0,0.0,0.0,-0.000731462577671,-0.00918551725055,0.00109140068095,0.0,0.0,0.0,0.0,0.0,0.0,0.0,0.0,0.0,6.58046727357,0.012377590306,7.0469136052,0.0,0.0,0.0,0.0,0.0,0.0,0.0,0.0,0.0
25672000000,335,25672000000,imu_link,0.000785912054483,-0.375968882398,-0.000233069100291,0.926631926651,0.0,0.0,0.0,0.0,0.0,0.0,0.0,0.0,0.0,-0.000623792243218,-0.00953645079894,0.00109547348509,0.0,0.0,0.0,0.0,0.0,0.0,0.0,0.0,0.0,6.58195554094,0.0121910148062,7.04721553585,0.0,0.0,0.0,0.0,0.0,0.0,0.0,0.0,0.0
25676000000,336,25676000000,imu_link,0.000784272959488,-0.375986830181,-0.00023143754547,0.926624646167,0.0,0.0,0.0,0.0,0.0,0.0,0.0,0.0,0.0,-0.000447759508125,-0.00968366190352,0.00107025401196,0.0,0.0,0.0,0.0,0.0,0.0,0.0,0.0,0.0,6.58336818755,0.0121605937838,7.04415975249,0.0,0.0,0.0,0.0,0.0,0.0,0.0,0.0,0.0
25680000000,337,25680000000,imu_link,0.000782669034672,-0.376004696187,-0.000229745652979,0.92661739844,0.0,0.0,0.0,0.0,0.0,0.0,0.0,0.0,0.0,-0.000420143955435,-0.00963958775799,0.00109156915905,0.0,0.0,0.0,0.0,0.0,0.0,0.0,0.0,0.0,6.58412843457,0.0122286559076,7.04031232407,0.0,0.0,0.0,0.0,0.0,0.0,0.0,0.0,0.0
25684000000,338,25684000000,imu_link,0.000780641240613,-0.376022242323,-0.000228028830628,0.926610280474,0.0,0.0,0.0,0.0,0.0,0.0,0.0,0.0,0.0,-0.000611926914629,-0.00946703276053,0.00118269752296,0.0,0.0,0.0,0.0,0.0,0.0,0.0,0.0,0.0,6.58551538527,0.0122850896033,7.03880227193,0.0,0.0,0.0,0.0,0.0,0.0,0.0,0.0,0.0
25688000000,339,25688000000,imu_link,0.000777950606564,-0.376039377672,-0.000226337152403,0.926603329373,0.0,0.0,0.0,0.0,0.0,0.0,0.0,0.0,0.0,-0.000923863430354,-0.00924542652054,0.00129552809617,0.0,0.0,0.0,0.0,0.0,0.0,0.0,0.0,0.0,6.58649735926,0.0122834023342,7.03779418342,0.0,0.0,0.0,0.0,0.0,0.0,0.0,0.0,0.0
25692000000,340,25692000000,imu_link,0.000774729806665,-0.376056084663,-0.000224670439366,0.926596552176,0.0,0.0,0.0,0.0,0.0,0.0,0.0,0.0,0.0,-0.00117430022014,-0.00901433924707,0.00138349636091,0.0,0.0,0.0,0.0,0.0,0.0,0.0,0.0,0.0,6.58573918473,0.0122167663925,7.03412503362,0.0,0.0,0.0,0.0,0.0,0.0,0.0,0.0,0.0
25696000000,341,25696000000,imu_link,0.00077130989518,-0.37607233126,-0.000223024098935,0.926589961635,0.0,0.0,0.0,0.0,0.0,0.0,0.0,0.0,0.0,-0.00127050291777,-0.00876597341543,0.0014113389568,0.0,0.0,0.0,0.0,0.0,0.0,0.0,0.0,0.0,6.58571772331,0.0121283884827,7.03190269484,0.0,0.0,0.0,0.0,0.0,0.0,0.0,0.0,0.0
25700000000,342,25700000000,imu_link,0.000768150427966,-0.376088197165,-0.000221367078892,0.92658352505,0.0,0.0,0.0,0.0,0.0,0.0,0.0,0.0,0.0,-0.00114793406688,-0.00856061819459,0.00136718417743,0.0,0.0,0.0,0.0,0.0,0.0,0.0,0.0,0.0,6.58685004171,0.012052358497,7.03300932409,0.0,0.0,0.0,0.0,0.0,0.0,0.0,0.0,0.0
25704000000,343,25704000000,imu_link,0.000765662849084,-0.376103882172,-0.000219645857875,0.926577161024,0.0,0.0,0.0,0.0,0.0,0.0,0.0,0.0,0.0,-0.000824629013641,-0.00846306625329,0.00127052187687,0.0,0.0,0.0,0.0,0.0,0.0,0.0,0.0,0.0,6.58804589404,0.0120465222046,7.0352170479,0.0,0.0,0.0,0.0,0.0,0.0,0.0,0.0,0.0
25708000000,344,25708000000,imu_link,0.000763950129506,-0.37611969275,-0.000217852036076,0.926570745084,0.0,0.0,0.0,0.0,0.0,0.0,0.0,0.0,0.0,-0.000451959163306,-0.00853089163641,0.00115848556535,0.0,0.0,0.0,0.0,0.0,0.0,0.0,0.0,0.0,6.58845153597,0.0121644156281,7.03625156578,0.0,0.0,0.0,0.0,0.0,0.0,0.0,0.0,0.0
25712000000,345,25712000000,imu_link,0.000762817677825,-0.376135897185,-0.000216039696318,0.926564168466,0.0,0.0,0.0,0.0,0.0,0.0,0.0,0.0,0.0,-0.000179542773956,-0.00874350637146,0.00105807251434,0.0,0.0,0.0,0.0,0.0,0.0,0.0,0.0,0.0,6.58836280908,0.012293876906,7.03629843946,0.0,0.0,0.0,0.0,0.0,0.0,0.0,0.0,0.0
25716000000,346,25716000000,imu_link,0.00076175107239,-0.376152507678,-0.000214268551074,0.926557426602,0.0,0.0,0.0,0.0,0.0,0.0,0.0,0.0,0.0,-0.000156677866969,-0.0089627120908,0.00102674129019,0.0,0.0,0.0,0.0,0.0,0.0,0.0,0.0,0.0,6.59041151335,0.0124086781887,7.03833971741,0.0,0.0,0.0,0.0,0.0,0.0,0.0,0.0,0.0
25720000000,347,25720000000,imu_link,0.000760332384328,-0.376169439533,-0.000212598486722,0.926550554184,0.0,0.0,0.0,0.0,0.0,0.0,0.0,0.0,0.0,-0.000338717014631,-0.0091362226587,0.00104623945779,0.0,0.0,0.0,0.0,0.0,0.0,0.0,0.0,0.0,6.59187834897,0.0124479934913,7.03843994155,0.0,0.0,0.0,0.0,0.0,0.0,0.0,0.0,0.0
25724000000,348,25724000000,imu_link,0.00075846614648,-0.376186551783,-0.00021105360509,0.926543608495,0.0,0.0,0.0,0.0,0.0,0.0,0.0,0.0,0.0,-0.000569553692174,-0.00923367127683,0.00107248346662,0.0,0.0,0.0,0.0,0.0,0.0,0.0,0.0,0.0,6.59181815915,0.0123780426,7.03516452807,0.0,0.0,0.0,0.0,0.0,0.0,0.0,0.0,0.0
25728000000,349,25728000000,imu_link,0.000756356664546,-0.376203637474,-0.000209637127315,0.926536673386,0.0,0.0,0.0,0.0,0.0,0.0,0.0,0.0,0.0,-0.00070640053588,-0.00921945162373,0.001058741201,0.0,0.0,0.0,0.0,0.0,0.0,0.0,0.0,0.0,6.59181994858,0.0122457308229,7.03131215309,0.0,0.0,0.0,0.0,0.0,0.0,0.0,0.0,0.0
25732000000,350,25732000000,imu_link,0.000754392053958,-0.376220401902,-0.000208338867526,0.926529868207,0.0,0.0,0.0,0.0,0.0,0.0,0.0,0.0,0.0,-0.000661606057469,-0.00904621031355,0.000976616112649,0.0,0.0,0.0,0.0,0.0,0.0,0.0,0.0,0.0,6.59323886173,0.0121733675765,7.02959080313,0.0,0.0,0.0,0.0,0.0,0.0,0.0,0.0,0.0
25736000000,351,25736000000,imu_link,0.000752909315213,-0.37623655431,-0.000207140251707,0.926523310781,0.0,0.0,0.0,0.0,0.0,0.0,0.0,0.0,0.0,-0.000457272982561,-0.00871606525979,0.000839604502634,0.0,0.0,0.0,0.0,0.0,0.0,0.0,0.0,0.0,6.59385802199,0.012197262064,7.02620277853,0.0,0.0,0.0,0.0,0.0,0.0,0.0,0.0,0.0
25740000000,352,25740000000,imu_link,0.000752051500626,-0.376251931951,-0.0002060066329,0.92651706713,0.0,0.0,0.0,0.0,0.0,0.0,0.0,0.0,0.0,-0.000180195072535,-0.00829807849127,0.000691675056353,0.0,0.0,0.0,0.0,0.0,0.0,0.0,0.0,0.0,6.59440848928,0.0122850579868,7.02375320911,0.0,0.0,0.0,0.0,0.0,0.0,0.0,0.0,0.0
25744000000,353,25744000000,imu_link,0.000751765473069,-0.376266460014,-0.000204924984875,0.926511167727,0.0,0.0,0.0,0.0,0.0,0.0,0.0,0.0,0.0,7.4696138689e-05,-0.007839702815,0.000559747156007,0.0,0.0,0.0,0.0,0.0,0.0,0.0,0.0,0.0,6.59541652318,0.012415214396,7.0230105032,0.0,0.0,0.0,0.0,0.0,0.0,0.0,0.0,0.0
25748000000,354,25748000000,imu_link,0.000751961350105,-0.376280249269,-0.000203852917319,0.926505567716,0.0,0.0,0.0,0.0,0.0,0.0,0.0,0.0,0.0,0.000295950491769,-0.0074410743072,0.000464399653714,0.0,0.0,0.0,0.0,0.0,0.0,0.0,0.0,0.0,6.5969449078,0.0125327472303,7.02519850525,0.0,0.0,0.0,0.0,0.0,0.0,0.0,0.0,0.0
25752000000,355,25752000000,imu_link,0.000752447346616,-0.376293523089,-0.000202786135914,0.926500176569,0.0,0.0,0.0,0.0,0.0,0.0,0.0,0.0,0.0,0.000429223544005,-0.00716297435742,0.000407195210597,0.0,0.0,0.0,0.0,0.0,0.0,0.0,0.0,0.0,6.59801353176,0.0126618568765,7.02709219252,0.0,0.0,0.0,0.0,0.0,0.0,0.0,0.0,0.0
25756000000,356,25756000000,imu_link,0.000752906747719,-0.376306469654,-0.000201778740662,0.926494918126,0.0,0.0,0.0,0.0,0.0,0.0,0.0,0.0,0.0,0.000405646798401,-0.0069864309119,0.000384578744599,0.0,0.0,0.0,0.0,0.0,0.0,0.0,0.0,0.0,6.59908767832,0.0127817993321,7.02860102019,0.0,0.0,0.0,0.0,0.0,0.0,0.0,0.0,0.0
25760000000,357,25760000000,imu_link,0.000753073786525,-0.376319275028,-0.000200924115449,0.926489717024,0.0,0.0,0.0,0.0,0.0,0.0,0.0,0.0,0.0,0.000241430699442,-0.00691032264106,0.000368769957345,0.0,0.0,0.0,0.0,0.0,0.0,0.0,0.0,0.0,6.59989734282,0.0127990155774,7.02985604782,0.0,0.0,0.0,0.0,0.0,0.0,0.0,0.0,0.0
25764000000,358,25764000000,imu_link,0.000752651749471,-0.376332234407,-0.000200357700849,0.926484453576,0.0,0.0,0.0,0.0,0.0,0.0,0.0,0.0,0.0,-8.56463214134e-05,-0.00699356330541,0.000346149897949,0.0,0.0,0.0,0.0,0.0,0.0,0.0,0.0,0.0,6.60346465956,0.0127570902091,7.03725810081,0.0,0.0,0.0,0.0,0.0,0.0,0.0,0.0,0.0
25768000000,359,25768000000,imu_link,0.000751650855486,-0.376345721237,-0.000200162377434,0.92647897605,0.0,0.0,0.0,0.0,0.0,0.0,0.0,0.0,0.0,-0.00042349068014,-0.00727838075905,0.00028334309918,0.0,0.0,0.0,0.0,0.0,0.0,0.0,0.0,0.0,6.60551372661,0.0126469114996,7.04268476433,0.0,0.0,0.0,0.0,0.0,0.0,0.0,0.0,0.0
25772000000,360,25772000000,imu_link,0.000750271895812,-0.376359994064,-0.000200336082179,0.926473179226,0.0,0.0,0.0,0.0,0.0,0.0,0.0,0.0,0.0,-0.00066786805668,-0.00770274499844,0.00018379982764,0.0,0.0,0.0,0.0,0.0,0.0,0.0,0.0,0.0,6.60748804074,0.0125159507275,7.04661814049,0.0,0.0,0.0,0.0,0.0,0.0,0.0,0.0,0.0
25776000000,361,25776000000,imu_link,0.000748672498459,-0.376375079625,-0.000200833869505,0.926467052082,0.0,0.0,0.0,0.0,0.0,0.0,0.0,0.0,0.0,-0.000830763389837,-0.00814153684598,7.54266777643e-05,0.0,0.0,0.0,0.0,0.0,0.0,0.0,0.0,0.0,6.60746883354,0.012472644567,7.04460261296,0.0,0.0,0.0,0.0,0.0,0.0,0.0,0.0,0.0
25780000000,362,25780000000,imu_link,0.00074676992963,-0.37639072886,-0.000201655269912,0.926460695819,0.0,0.0,0.0,0.0,0.0,0.0,0.0,0.0,0.0,-0.0010319601613,-0.00844591860715,-1.72406594027e-05,0.0,0.0,0.0,0.0,0.0,0.0,0.0,0.0,0.0,6.60792131615,0.0125118147582,7.04097641331,0.0,0.0,0.0,0.0,0.0,0.0,0.0,0.0,0.0
25784000000,363,25784000000,imu_link,0.000744499613601,-0.376406360664,-0.000202787502277,0.926454346554,0.0,0.0,0.0,0.0,0.0,0.0,0.0,0.0,0.0,-0.00126081332869,-0.00843667989183,-9.20249407238e-05,0.0,0.0,0.0,0.0,0.0,0.0,0.0,0.0,0.0,6.60959493606,0.0125462930778,7.03677020104,0.0,0.0,0.0,0.0,0.0,0.0,0.0,0.0,0.0
25788000000,364,25788000000,imu_link,0.000741844860935,-0.376421334929,-0.000204216075504,0.92644826438,0.0,0.0,0.0,0.0,0.0,0.0,0.0,0.0,0.0,-0.00149483321301,-0.00808197211131,-0.000157163570247,0.0,0.0,0.0,0.0,0.0,0.0,0.0,0.0,0.0,6.61055646689,0.0125606423499,7.03104433571,0.0,0.0,0.0,0.0,0.0,0.0,0.0,0.0,0.0
25792000000,365,25792000000,imu_link,0.000738867903265,-0.37643527062,-0.000205907030937,0.92644260411,0.0,0.0,0.0,0.0,0.0,0.0,0.0,0.0,0.0,-0.00169373201696,-0.00752160226323,-0.000218405072242,0.0,0.0,0.0,0.0,0.0,0.0,0.0,0.0,0.0,6.6104949177,0.012556478012,7.02603913819,0.0,0.0,0.0,0.0,0.0,0.0,0.0,0.0,0.0
25796000000,366,25796000000,imu_link,0.000735681282171,-0.376447945409,-0.000207809052168,0.926437456057,0.0,0.0,0.0,0.0,0.0,0.0,0.0,0.0,0.0,-0.00183089793164,-0.00684121761503,-0.000277125976623,0.0,0.0,0.0,0.0,0.0,0.0,0.0,0.0,0.0,6.61032474585,0.0125534592908,7.02227826225,0.0,0.0,0.0,0.0,0.0,0.0,0.0,0.0,0.0
25800000000,367,25800000000,imu_link,0.000732366345401,-0.376459434825,-0.000209879428912,0.926432789533,0.0,0.0,0.0,0.0,0.0,0.0,0.0,0.0,0.0,-0.00192232499037,-0.00620157009596,-0.000331345312954,0.0,0.0,0.0,0.0,0.0,0.0,0.0,0.0,0.0,6.61027523455,0.0125989412247,7.0209781495,0.0,0.0,0.0,0.0,0.0,0.0,0.0,0.0,0.0
25804000000,368,25804000000,imu_link,0.000729164979723,-0.376469892348,-0.000212058434355,0.926428542039,0.0,0.0,0.0,0.0,0.0,0.0,0.0,0.0,0.0,-0.00189042587639,-0.00564473462864,-0.000403375249963,0.0,0.0,0.0,0.0,0.0,0.0,0.0,0.0,0.0,6.61140621263,0.0125770214333,7.02296797335,0.0,0.0,0.0,0.0,0.0,0.0,0.0,0.0,0.0
25808000000,369,25808000000,imu_link,0.000726399801424,-0.376479329902,-0.000214279368239,0.926424708535,0.0,0.0,0.0,0.0,0.0,0.0,0.0,0.0,0.0,-0.00169652913496,-0.00509431221394,-0.00050523077843,0.0,0.0,0.0,0.0,0.0,0.0,0.0,0.0,0.0,6.61214067445,0.012541000712,7.02269174281,0.0,0.0,0.0,0.0,0.0,0.0,0.0,0.0,0.0
25816000000,370,25816000000,imu_link,0.000722275700007,-0.376494326443,-0.000218695662482,0.92641861631,0.0,0.0,0.0,0.0,0.0,0.0,0.0,0.0,0.0,-0.00128608613818,-0.0036872461905,-0.000660608421381,0.0,0.0,0.0,0.0,0.0,0.0,0.0,0.0,0.0,6.612911548,0.0126490673056,7.01890282706,0.0,0.0,0.0,0.0,0.0,0.0,0.0,0.0,0.0
25820000000,371,25820000000,imu_link,0.000720651121753,-0.376500045069,-0.000220899313768,0.926416292996,0.0,0.0,0.0,0.0,0.0,0.0,0.0,0.0,0.0,-0.00116588651611,-0.00308725188117,-0.00071311837665,0.0,0.0,0.0,0.0,0.0,0.0,0.0,0.0,0.0,6.61280861754,0.0128198179714,7.01801194471,0.0,0.0,0.0,0.0,0.0,0.0,0.0,0.0,0.0
25824000000,372,25824000000,imu_link,0.000719288953415,-0.376505162908,-0.000223099910155,0.926414213596,0.0,0.0,0.0,0.0,0.0,0.0,0.0,0.0,0.0,-0.00104391526661,-0.00276301502828,-0.000761291533958,0.0,0.0,0.0,0.0,0.0,0.0,0.0,0.0,0.0,6.61442014878,0.0129411813323,7.02382340719,0.0,0.0,0.0,0.0,0.0,0.0,0.0,0.0,0.0
25828000000,373,25828000000,imu_link,0.000718276606372,-0.376510221407,-0.000225260344686,0.926412158012,0.0,0.0,0.0,0.0,0.0,0.0,0.0,0.0,0.0,-0.000874330167293,-0.0027309913399,-0.000808561723593,0.0,0.0,0.0,0.0,0.0,0.0,0.0,0.0,0.0,6.61600347001,0.0130715188011,7.0295624176,0.0,0.0,0.0,0.0,0.0,0.0,0.0,0.0,0.0
25832000000,374,25832000000,imu_link,0.000717272587799,-0.3765154455,-0.000227411147353,0.926410035084,0.0,0.0,0.0,0.0,0.0,0.0,0.0,0.0,0.0,-0.000868616285622,-0.00282036928329,-0.000805616176561,0.0,0.0,0.0,0.0,0.0,0.0,0.0,0.0,0.0,6.61533299713,0.0132589878053,7.02840257468,0.0,0.0,0.0,0.0,0.0,0.0,0.0,0.0,0.0
25836000000,375,25836000000,imu_link,0.000715674171097,-0.376520939613,-0.000229624818557,0.926407802815,0.0,0.0,0.0,0.0,0.0,0.0,0.0,0.0,0.0,-0.00115571005175,-0.00296611847512,-0.000722752753435,0.0,0.0,0.0,0.0,0.0,0.0,0.0,0.0,0.0,6.61692034443,0.0134296297988,7.03033404427,0.0,0.0,0.0,0.0,0.0,0.0,0.0,0.0,0.0
25840000000,376,25840000000,imu_link,0.000712875844402,-0.37652679657,-0.00023195907804,0.92640542392,0.0,0.0,0.0,0.0,0.0,0.0,0.0,0.0,0.0,-0.00173412092176,-0.00316197359654,-0.000552601091295,0.0,0.0,0.0,0.0,0.0,0.0,0.0,0.0,0.0,6.61842203589,0.01351522763,7.03221903423,0.0,0.0,0.0,0.0,0.0,0.0,0.0,0.0,0.0
25844000000,377,25844000000,imu_link,0.000708491991572,-0.376533438018,-0.000234437492848,0.926402727291,0.0,0.0,0.0,0.0,0.0,0.0,0.0,0.0,0.0,-0.00249547586099,-0.00358540510209,-0.000320634919259,0.0,0.0,0.0,0.0,0.0,0.0,0.0,0.0,0.0,6.62065787773,0.0134820156301,7.0380793391,0.0,0.0,0.0,0.0,0.0,0.0,0.0,0.0,0.0
25848000000,378,25848000000,imu_link,0.00070258342717,-0.376541186688,-0.000237018825245,0.926399581674,0.0,0.0,0.0,0.0,0.0,0.0,0.0,0.0,0.0,-0.00322081145787,-0.00418301677384,-8.09144417109e-05,0.0,0.0,0.0,0.0,0.0,0.0,0.0,0.0,0.0,6.62178982509,0.013291991681,7.04090810657,0.0,0.0,0.0,0.0,0.0,0.0,0.0,0.0,0.0
25852000000,379,25852000000,imu_link,0.00069547382357,-0.376550263003,-0.000239651409691,0.926395897182,0.0,0.0,0.0,0.0,0.0,0.0,0.0,0.0,0.0,-0.00378643517589,-0.0048995958729,0.000121868510083,0.0,0.0,0.0,0.0,0.0,0.0,0.0,0.0,0.0,6.6211831079,0.0130484220408,7.03958552064,0.0,0.0,0.0,0.0,0.0,0.0,0.0,0.0,0.0
25856000000,380,25856000000,imu_link,0.000687465659307,-0.376560645071,-0.000242326798805,0.926391682417,0.0,0.0,0.0,0.0,0.0,0.0,0.0,0.0,0.0,-0.00421036482876,-0.00560437803846,0.000271608621997,0.0,0.0,0.0,0.0,0.0,0.0,0.0,0.0,0.0,6.62175324246,0.012866912609,7.03842680989,0.0,0.0,0.0,0.0,0.0,0.0,0.0,0.0,0.0
25860000000,381,25860000000,imu_link,0.000678544186603,-0.376572176164,-0.000245055330099,0.926387001023,0.0,0.0,0.0,0.0,0.0,0.0,0.0,0.0,0.0,-0.00464311151113,-0.00622458757146,0.000419289812075,0.0,0.0,0.0,0.0,0.0,0.0,0.0,0.0,0.0,6.62265266873,0.0127845865812,7.03647489971,0.0,0.0,0.0,0.0,0.0,0.0,0.0,0.0,0.0
25864000000,382,25864000000,imu_link,0.000668518296142,-0.376584568759,-0.00024788589074,0.926381969928,0.0,0.0,0.0,0.0,0.0,0.0,0.0,0.0,0.0,-0.00517365714343,-0.00668964332541,0.000580226415765,0.0,0.0,0.0,0.0,0.0,0.0,0.0,0.0,0.0,6.62301799336,0.0127338093567,7.03205687296,0.0,0.0,0.0,0.0,0.0,0.0,0.0,0.0,0.0
25868000000,383,25868000000,imu_link,0.000657330443076,-0.376597337312,-0.000250844384414,0.926376786477,0.0,0.0,0.0,0.0,0.0,0.0,0.0,0.0,0.0,-0.00573585902629,-0.00689265800553,0.000739864365841,0.0,0.0,0.0,0.0,0.0,0.0,0.0,0.0,0.0,6.62525331628,0.0127004008686,7.02976636901,0.0,0.0,0.0,0.0,0.0,0.0,0.0,0.0,0.0
