%time,field.header.seq,field.header.stamp,field.header.frame_id,field.orientation.x,field.orientation.y,field.orientation.z,field.orientation.w,field.orientation_covariance0,field.orientation_covariance1,field.orientation_covariance2,field.orientation_covariance3,field.orientation_covariance4,field.orientation_covariance5,field.orientation_covariance6,field.orientation_covariance7,field.orientation_covariance8,field.angular_velocity.x,field.angular_velocity.y,field.angular_velocity.z,field.angular_velocity_covariance0,field.angular_velocity_covariance1,field.angular_velocity_covariance2,field.angular_velocity_covariance3,field.angular_velocity_covariance4,field.angular_velocity_covariance5,field.angular_velocity_covariance6,field.angular_velocity_covariance7,field.angular_velocity_covariance8,field.linear_acceleration.x,field.linear_acceleration.y,field.linear_acceleration.z,field.linear_acceleration_covariance0,field.linear_acceleration_covariance1,field.linear_acceleration_covariance2,field.linear_acceleration_covariance3,field.linear_acceleration_covariance4,field.linear_acceleration_covariance5,field.linear_acceleration_covariance6,field.linear_acceleration_covariance7,field.linear_acceleration_covariance8
22644000000,0,22644000000,imu_link,-0.00015951131914,-0.301689575699,-0.000400671768266,0.953406111756,0.0,0.0,0.0,0.0,0.0,0.0,0.0,0.0,0.0,0.00552015272012,-0.200768274898,0.00133215905555,0.0,0.0,0.0,0.0,0.0,0.0,0.0,0.0,0.0,4.21980438323,-0.0128438140743,9.00171424512,0.0,0.0,0.0,0.0,0.0,0.0,0.0,0.0,0.0
22648000000,1,22648000000,imu_link,-0.000150462882318,-0.302075376154,-0.000394750970985,0.953283949647,0.0,0.0,0.0,0.0,0.0,0.0,0.0,0.0,0.0,0.00527408588171,-0.202338449268,0.00140230951501,0.0,0.0,0.0,0.0,0.0,0.0,0.0,0.0,0.0,4.22502209385,-0.0132109858536,9.00548796391,0.0,0.0,0.0,0.0,0.0,0.0,0.0,0.0,0.0
22652000000,2,22652000000,imu_link,-0.000142058491934,-0.302464105007,-0.000388909898302,0.953160686218,0.0,0.0,0.0,0.0,0.0,0.0,0.0,0.0,0.0,0.00495556001666,-0.203900709263,0.001461147036,0.0,0.0,0.0,0.0,0.0,0.0,0.0,0.0,0.0,4.22839933775,-0.0133179739977,9.00012997119,0.0,0.0,0.0,0.0,0.0,0.0,0.0,0.0,0.0
22656000000,3,22656000000,imu_link,-0.000134616444713,-0.302854941692,-0.000383261921703,0.953036578145,0.0,0.0,0.0,0.0,0.0,0.0,0.0,0.0,0.0,0.00446807371263,-0.205033171267,0.0015143444127,0.0,0.0,0.0,0.0,0.0,0.0,0.0,0.0,0.0,4.2347722744,-0.0132349170145,8.99264906022,0.0,0.0,0.0,0.0,0.0,0.0,0.0,0.0,0.0
22660000000,4,22660000000,imu_link,-0.000128397343078,-0.303246941907,-0.000377918617942,0.952911922958,0.0,0.0,0.0,0.0,0.0,0.0,0.0,0.0,0.0,0.00383936802894,-0.205670676751,0.00155416663531,0.0,0.0,0.0,0.0,0.0,0.0,0.0,0.0,0.0,4.24144929398,-0.0133061156877,8.98586784097,0.0,0.0,0.0,0.0,0.0,0.0,0.0,0.0,0.0
22664000000,5,22664000000,imu_link,-0.000123178779597,-0.303639119594,-0.000372792433926,0.952787033342,0.0,0.0,0.0,0.0,0.0,0.0,0.0,0.0,0.0,0.00332975365332,-0.205790954314,0.0016023680194,0.0,0.0,0.0,0.0,0.0,0.0,0.0,0.0,0.0,4.24831504605,-0.0134927099878,8.97954945597,0.0,0.0,0.0,0.0,0.0,0.0,0.0,0.0,0.0
22668000000,6,22668000000,imu_link,-0.00011817630361,-0.304031071708,-0.000367703328042,0.9526620378,0.0,0.0,0.0,0.0,0.0,0.0,0.0,0.0,0.0,0.00322113320722,-0.205699612649,0.00161750469607,0.0,0.0,0.0,0.0,0.0,0.0,0.0,0.0,0.0,4.25572869709,-0.0138351895777,8.97687775918,0.0,0.0,0.0,0.0,0.0,0.0,0.0,0.0,0.0
22672000000,7,22672000000,imu_link,-0.000112629964993,-0.304422161131,-0.000362532938387,0.952537140324,0.0,0.0,0.0,0.0,0.0,0.0,0.0,0.0,0.0,0.00349239545313,-0.205273683256,0.00157361610798,0.0,0.0,0.0,0.0,0.0,0.0,0.0,0.0,0.0,4.26340911977,-0.0140089705343,8.97283958701,0.0,0.0,0.0,0.0,0.0,0.0,0.0,0.0,0.0
22676000000,8,22676000000,imu_link,-0.000106103603771,-0.304812160302,-0.000357230344078,0.952412414903,0.0,0.0,0.0,0.0,0.0,0.0,0.0,0.0,0.0,0.00397908453363,-0.204728071438,0.00148750330746,0.0,0.0,0.0,0.0,0.0,0.0,0.0,0.0,0.0,4.27048644084,-0.0140067681936,8.96703066514,0.0,0.0,0.0,0.0,0.0,0.0,0.0,0.0,0.0
22680000000,9,22680000000,imu_link,-9.82144640304e-05,-0.305200598656,-0.00035174238043,0.952288013792,0.0,0.0,0.0,0.0,0.0,0.0,0.0,0.0,0.0,0.00465603801162,-0.203935140143,0.00136822232517,0.0,0.0,0.0,0.0,0.0,0.0,0.0,0.0,0.0,4.27858357472,-0.0137268284378,8.96167660786,0.0,0.0,0.0,0.0,0.0,0.0,0.0,0.0,0.0
22684000000,10,22684000000,imu_link,-8.9027500192e-05,-0.305586841203,-0.000346108093131,0.952164142765,0.0,0.0,0.0,0.0,0.0,0.0,0.0,0.0,0.0,0.00529595811076,-0.202808507428,0.00124004615387,0.0,0.0,0.0,0.0,0.0,0.0,0.0,0.0,0.0,4.2859039872,-0.0132328447854,8.9554930139,0.0,0.0,0.0,0.0,0.0,0.0,0.0,0.0,0.0
22688000000,11,22688000000,imu_link,-7.91999838272e-05,-0.305971028997,-0.000340489846917,0.952040759216,0.0,0.0,0.0,0.0,0.0,0.0,0.0,0.0,0.0,0.00559812884845,-0.201755681069,0.0011347128845,0.0,0.0,0.0,0.0,0.0,0.0,0.0,0.0,0.0,4.29276997244,-0.012938913544,8.95534005436,0.0,0.0,0.0,0.0,0.0,0.0,0.0,0.0,0.0
22692000000,12,22692000000,imu_link,-6.95607706462e-05,-0.306353529081,-0.000335070724689,0.951917747554,0.0,0.0,0.0,0.0,0.0,0.0,0.0,0.0,0.0,0.00547775699876,-0.200895427032,0.00106886360735,0.0,0.0,0.0,0.0,0.0,0.0,0.0,0.0,0.0,4.29899533927,-0.0127133290022,8.95647698474,0.0,0.0,0.0,0.0,0.0,0.0,0.0,0.0,0.0
22696000000,13,22696000000,imu_link,-6.02880960444e-05,-0.306735133674,-0.000329856198611,0.951794854646,0.0,0.0,0.0,0.0,0.0,0.0,0.0,0.0,0.0,0.00527181441867,-0.200451074536,0.00102768048519,0.0,0.0,0.0,0.0,0.0,0.0,0.0,0.0,0.0,4.30387305577,-0.0128511860932,8.95717532481,0.0,0.0,0.0,0.0,0.0,0.0,0.0,0.0,0.0
22700000000,14,22700000000,imu_link,-5.12124430628e-05,-0.30711638664,-0.000324791880014,0.951671906144,0.0,0.0,0.0,0.0,0.0,0.0,0.0,0.0,0.0,0.0051549557016,-0.200292290244,0.000986415285082,0.0,0.0,0.0,0.0,0.0,0.0,0.0,0.0,0.0,4.30783513996,-0.0131182630787,8.9551616374,0.0,0.0,0.0,0.0,0.0,0.0,0.0,0.0,0.0
22704000000,15,22704000000,imu_link,-4.20325495985e-05,-0.30749794175,-0.000319822832185,0.951548691222,0.0,0.0,0.0,0.0,0.0,0.0,0.0,0.0,0.0,0.00518996971231,-0.200476952667,0.000925024040724,0.0,0.0,0.0,0.0,0.0,0.0,0.0,0.0,0.0,4.31649175648,-0.0131666285387,8.96103554729,0.0,0.0,0.0,0.0,0.0,0.0,0.0,0.0,0.0
22708000000,16,22708000000,imu_link,-3.26361209561e-05,-0.30788034987,-0.000314916736446,0.951425031164,0.0,0.0,0.0,0.0,0.0,0.0,0.0,0.0,0.0,0.00528343983672,-0.200951196679,0.000861691876816,0.0,0.0,0.0,0.0,0.0,0.0,0.0,0.0,0.0,4.32445793808,-0.0131929353686,8.962712142,0.0,0.0,0.0,0.0,0.0,0.0,0.0,0.0,0.0
22712000000,17,22712000000,imu_link,-2.33075989009e-05,-0.30826350391,-0.000310133372816,0.95130095944,0.0,0.0,0.0,0.0,0.0,0.0,0.0,0.0,0.0,0.00523235315202,-0.201369420596,0.000813683231956,0.0,0.0,0.0,0.0,0.0,0.0,0.0,0.0,0.0,4.33106711085,-0.0130805767419,8.95772386881,0.0,0.0,0.0,0.0,0.0,0.0,0.0,0.0,0.0
22716000000,18,22716000000,imu_link,-1.45479078316e-05,-0.308647235139,-0.000305559663268,0.951176529705,0.0,0.0,0.0,0.0,0.0,0.0,0.0,0.0,0.0,0.00492955937725,-0.201699227697,0.000801573841307,0.0,0.0,0.0,0.0,0.0,0.0,0.0,0.0,0.0,4.33662759475,-0.0129281030255,8.95105566927,0.0,0.0,0.0,0.0,0.0,0.0,0.0,0.0,0.0
22720000000,19,22720000000,imu_link,-6.63672506964e-06,-0.309031091388,-0.00030121336846,0.95105188806,0.0,0.0,0.0,0.0,0.0,0.0,0.0,0.0,0.0,0.0044909408418,-0.201791516137,0.000824329648027,0.0,0.0,0.0,0.0,0.0,0.0,0.0,0.0,0.0,4.34218983376,-0.01289976008,8.94433687868,0.0,0.0,0.0,0.0,0.0,0.0,0.0,0.0,0.0
22724000000,20,22724000000,imu_link,6.30831973629e-07,-0.309414722801,-0.000296967715521,0.950927148168,0.0,0.0,0.0,0.0,0.0,0.0,0.0,0.0,0.0,0.00416929516693,-0.20169987822,0.000875907961659,0.0,0.0,0.0,0.0,0.0,0.0,0.0,0.0,0.0,4.34851402461,-0.0130988833559,8.93734588961,0.0,0.0,0.0,0.0,0.0,0.0,0.0,0.0,0.0
22728000000,21,22728000000,imu_link,7.28277766821e-06,-0.30979824821,-0.000292811238558,0.950802271566,0.0,0.0,0.0,0.0,0.0,0.0,0.0,0.0,0.0,0.00386278249278,-0.201670718849,0.000928727311312,0.0,0.0,0.0,0.0,0.0,0.0,0.0,0.0,0.0,4.35662779971,-0.0130260114985,8.93621497844,0.0,0.0,0.0,0.0,0.0,0.0,0.0,0.0,0.0
22732000000,22,22732000000,imu_link,1.36948801515e-05,-0.310181563657,-0.000288654058651,0.950677292281,0.0,0.0,0.0,0.0,0.0,0.0,0.0,0.0,0.0,0.00374883926812,-0.201586843119,0.000966197200899,0.0,0.0,0.0,0.0,0.0,0.0,0.0,0.0,0.0,4.36433920107,-0.0129045991833,8.93566394842,0.0,0.0,0.0,0.0,0.0,0.0,0.0,0.0,0.0
22736000000,23,22736000000,imu_link,2.05378820148e-05,-0.31056492065,-0.000284378154467,0.950552128381,0.0,0.0,0.0,0.0,0.0,0.0,0.0,0.0,0.0,0.00397208271559,-0.201635160861,0.000955776554669,0.0,0.0,0.0,0.0,0.0,0.0,0.0,0.0,0.0,4.37048140207,-0.0131125592039,8.93485593186,0.0,0.0,0.0,0.0,0.0,0.0,0.0,0.0,0.0
22740000000,24,22740000000,imu_link,2.85485921308e-05,-0.310948347993,-0.000279882047626,0.950426770315,0.0,0.0,0.0,0.0,0.0,0.0,0.0,0.0,0.0,0.00456127215333,-0.201698578228,0.000879082104439,0.0,0.0,0.0,0.0,0.0,0.0,0.0,0.0,0.0,4.37545369375,-0.0132089014572,8.9323086104,0.0,0.0,0.0,0.0,0.0,0.0,0.0,0.0,0.0
22744000000,25,22744000000,imu_link,3.79359011847e-05,-0.311331913139,-0.000275146388017,0.950301195788,0.0,0.0,0.0,0.0,0.0,0.0,0.0,0.0,0.0,0.00525271709448,-0.201797522758,0.000778866870701,0.0,0.0,0.0,0.0,0.0,0.0,0.0,0.0,0.0,4.37940670051,-0.0130973279088,8.92966711715,0.0,0.0,0.0,0.0,0.0,0.0,0.0,0.0,0.0
22748000000,26,22748000000,imu_link,4.79900905314e-05,-0.311716171874,-0.00027039434137,0.950175222144,0.0,0.0,0.0,0.0,0.0,0.0,0.0,0.0,0.0,0.00557223958557,-0.202189118545,0.000682800863139,0.0,0.0,0.0,0.0,0.0,0.0,0.0,0.0,0.0,4.38472786442,-0.0127299971056,8.93342674468,0.0,0.0,0.0,0.0,0.0,0.0,0.0,0.0,0.0
22752000000,27,22752000000,imu_link,5.80337818858e-05,-0.312100983318,-0.000265763965557,0.950048894644,0.0,0.0,0.0,0.0,0.0,0.0,0.0,0.0,0.0,0.00554837195134,-0.202506859671,0.00062659817221,0.0,0.0,0.0,0.0,0.0,0.0,0.0,0.0,0.0,4.39318589649,-0.0124840838063,8.93032622055,0.0,0.0,0.0,0.0,0.0,0.0,0.0,0.0,0.0
22756000000,28,22756000000,imu_link,6.76635877721e-05,-0.31248625869,-0.000261334341312,0.949922241689,0.0,0.0,0.0,0.0,0.0,0.0,0.0,0.0,0.0,0.0053205099284,-0.202778085285,0.000595793512169,0.0,0.0,0.0,0.0,0.0,0.0,0.0,0.0,0.0,4.40127179369,-0.0124741208194,8.92538020226,0.0,0.0,0.0,0.0,0.0,0.0,0.0,0.0,0.0
22760000000,29,22760000000,imu_link,7.6761726467e-05,-0.312871793767,-0.000257095475235,0.949795329887,0.0,0.0,0.0,0.0,0.0,0.0,0.0,0.0,0.0,0.00503822669986,-0.20294195374,0.000588235108015,0.0,0.0,0.0,0.0,0.0,0.0,0.0,0.0,0.0,4.40939351285,-0.012618447327,8.92179719908,0.0,0.0,0.0,0.0,0.0,0.0,0.0,0.0,0.0
22764000000,30,22764000000,imu_link,8.55057115002e-05,-0.313257371242,-0.000252991216411,0.949668230514,0.0,0.0,0.0,0.0,0.0,0.0,0.0,0.0,0.0,0.00484899518028,-0.202991482203,0.000579690298014,0.0,0.0,0.0,0.0,0.0,0.0,0.0,0.0,0.0,4.41647090886,-0.0127160430971,8.91688161555,0.0,0.0,0.0,0.0,0.0,0.0,0.0,0.0,0.0
22768000000,31,22768000000,imu_link,9.41538903182e-05,-0.313643221607,-0.000248984809886,0.949540867305,0.0,0.0,0.0,0.0,0.0,0.0,0.0,0.0,0.0,0.0047882224387,-0.203162400197,0.000548210980037,0.0,0.0,0.0,0.0,0.0,0.0,0.0,0.0,0.0,4.42291064143,-0.012796686274,8.91450763338,0.0,0.0,0.0,0.0,0.0,0.0,0.0,0.0,0.0
22772000000,32,22772000000,imu_link,0.000102774092998,-0.314029578512,-0.000245079047134,0.949413162534,0.0,0.0,0.0,0.0,0.0,0.0,0.0,0.0,0.0,0.00475923621574,-0.203456462933,0.000504796876636,0.0,0.0,0.0,0.0,0.0,0.0,0.0,0.0,0.0,4.42874215721,-0.0127407340497,8.91126720419,0.0,0.0,0.0,0.0,0.0,0.0,0.0,0.0,0.0
22776000000,33,22776000000,imu_link,0.000111080547587,-0.314416296926,-0.000241306897859,0.94928516351,0.0,0.0,0.0,0.0,0.0,0.0,0.0,0.0,0.0,0.00458937804646,-0.203674321257,0.000490615287667,0.0,0.0,0.0,0.0,0.0,0.0,0.0,0.0,0.0,4.43449547576,-0.0125074754466,8.90740904235,0.0,0.0,0.0,0.0,0.0,0.0,0.0,0.0,0.0
22780000000,34,22780000000,imu_link,0.000119056725406,-0.314802932091,-0.000237521474156,0.94915701723,0.0,0.0,0.0,0.0,0.0,0.0,0.0,0.0,0.0,0.0044346995977,-0.203657996569,0.000548815710652,0.0,0.0,0.0,0.0,0.0,0.0,0.0,0.0,0.0,4.44075641947,-0.0123127755542,8.90299001348,0.0,0.0,0.0,0.0,0.0,0.0,0.0,0.0,0.0
22784000000,35,22784000000,imu_link,0.000126579464038,-0.315189729583,-0.000233707133561,0.949028642204,0.0,0.0,0.0,0.0,0.0,0.0,0.0,0.0,0.0,0.0042240915437,-0.203771090496,0.000633893542775,0.0,0.0,0.0,0.0,0.0,0.0,0.0,0.0,0.0,4.44853328096,-0.0123974163712,8.9070038947,0.0,0.0,0.0,0.0,0.0,0.0,0.0,0.0,0.0
22788000000,36,22788000000,imu_link,0.000133852546754,-0.31557679754,-0.000229798098428,0.948900002177,0.0,0.0,0.0,0.0,0.0,0.0,0.0,0.0,0.0,0.00412059797789,-0.203941216353,0.000718158106408,0.0,0.0,0.0,0.0,0.0,0.0,0.0,0.0,0.0,4.45475033404,-0.0125446972349,8.90663836267,0.0,0.0,0.0,0.0,0.0,0.0,0.0,0.0,0.0
22792000000,37,22792000000,imu_link,0.00014121890513,-0.315964043376,-0.000225749070544,0.948771127505,0.0,0.0,0.0,0.0,0.0,0.0,0.0,0.0,0.0,0.00418697799462,-0.20406261522,0.000769844798676,0.0,0.0,0.0,0.0,0.0,0.0,0.0,0.0,0.0,4.46010406645,-0.0126688231403,8.90498786745,0.0,0.0,0.0,0.0,0.0,0.0,0.0,0.0,0.0
22796000000,38,22796000000,imu_link,0.000148504934717,-0.316351474815,-0.000221663518119,0.948642015301,0.0,0.0,0.0,0.0,0.0,0.0,0.0,0.0,0.0,0.00415467911732,-0.20418819452,0.000799848314137,0.0,0.0,0.0,0.0,0.0,0.0,0.0,0.0,0.0,4.46508474783,-0.0125718022965,8.90263384513,0.0,0.0,0.0,0.0,0.0,0.0,0.0,0.0,0.0
22800000000,39,22800000000,imu_link,0.000155668750886,-0.316738809522,-0.000217569675186,0.94851275952,0.0,0.0,0.0,0.0,0.0,0.0,0.0,0.0,0.0,0.00409802201815,-0.20416503632,0.000823088781192,0.0,0.0,0.0,0.0,0.0,0.0,0.0,0.0,0.0,4.47307757545,-0.0124484740133,8.89830352028,0.0,0.0,0.0,0.0,0.0,0.0,0.0,0.0,0.0
22804000000,40,22804000000,imu_link,0.000162790693908,-0.317125868695,-0.000213449758977,0.948383420006,0.0,0.0,0.0,0.0,0.0,0.0,0.0,0.0,0.0,0.00408226916143,-0.204047625391,0.000842055069912,0.0,0.0,0.0,0.0,0.0,0.0,0.0,0.0,0.0,4.48000548983,-0.0123612306787,8.89218217613,0.0,0.0,0.0,0.0,0.0,0.0,0.0,0.0,0.0
22808000000,41,22808000000,imu_link,0.000170327434897,-0.317512989377,-0.00020923095609,0.94825388414,0.0,0.0,0.0,0.0,0.0,0.0,0.0,0.0,0.0,0.00429466524569,-0.204107874645,0.000823158779624,0.0,0.0,0.0,0.0,0.0,0.0,0.0,0.0,0.0,4.48818656012,-0.0124629034074,8.89487410897,0.0,0.0,0.0,0.0,0.0,0.0,0.0,0.0,0.0
22812000000,42,22812000000,imu_link,0.000178637665404,-0.317899908105,-0.000204860770637,0.948124240038,0.0,0.0,0.0,0.0,0.0,0.0,0.0,0.0,0.0,0.00468541855323,-0.204029211835,0.000772108321666,0.0,0.0,0.0,0.0,0.0,0.0,0.0,0.0,0.0,4.49524898066,-0.0125289315291,8.89252859302,0.0,0.0,0.0,0.0,0.0,0.0,0.0,0.0,0.0
22816000000,43,22816000000,imu_link,0.000187729771469,-0.318286478838,-0.000200343356537,0.947994536909,0.0,0.0,0.0,0.0,0.0,0.0,0.0,0.0,0.0,0.00507944778435,-0.203873529783,0.000717587629,0.0,0.0,0.0,0.0,0.0,0.0,0.0,0.0,0.0,4.50129590863,-0.0126202478344,8.88901205191,0.0,0.0,0.0,0.0,0.0,0.0,0.0,0.0,0.0
22820000000,44,22820000000,imu_link,0.000196860278898,-0.318672664123,-0.000195826219595,0.947864787846,0.0,0.0,0.0,0.0,0.0,0.0,0.0,0.0,0.0,0.00509757151926,-0.203698134824,0.000711304157377,0.0,0.0,0.0,0.0,0.0,0.0,0.0,0.0,0.0,4.508369241,-0.0122965541643,8.88873285008,0.0,0.0,0.0,0.0,0.0,0.0,0.0,0.0,0.0
22824000000,45,22824000000,imu_link,0.00020509651654,-0.319058441469,-0.000191498504992,0.947735001037,0.0,0.0,0.0,0.0,0.0,0.0,0.0,0.0,0.0,0.00464352997146,-0.203510919464,0.000763976597028,0.0,0.0,0.0,0.0,0.0,0.0,0.0,0.0,0.0,4.51565871256,-0.01205283489,8.88940525729,0.0,0.0,0.0,0.0,0.0,0.0,0.0,0.0,0.0
22828000000,46,22828000000,imu_link,0.000211679753124,-0.319444675818,-0.000187546404657,0.947604885545,0.0,0.0,0.0,0.0,0.0,0.0,0.0,0.0,0.0,0.00380038243534,-0.203780109863,0.000849702574644,0.0,0.0,0.0,0.0,0.0,0.0,0.0,0.0,0.0,4.52297185798,-0.0117703360676,8.89839063032,0.0,0.0,0.0,0.0,0.0,0.0,0.0,0.0,0.0
22832000000,47,22832000000,imu_link,0.000216104256976,-0.319832212984,-0.000184082879575,0.947474155294,0.0,0.0,0.0,0.0,0.0,0.0,0.0,0.0,0.0,0.00269972035729,-0.204495833142,0.000963092517454,0.0,0.0,0.0,0.0,0.0,0.0,0.0,0.0,0.0,4.52896741338,-0.011864048541,8.90588402807,0.0,0.0,0.0,0.0,0.0,0.0,0.0,0.0,0.0
22836000000,48,22836000000,imu_link,0.000218985644192,-0.320221567994,-0.000180863425098,0.94734263428,0.0,0.0,0.0,0.0,0.0,0.0,0.0,0.0,0.0,0.0019299106681,-0.205483637392,0.00109436007721,0.0,0.0,0.0,0.0,0.0,0.0,0.0,0.0,0.0,4.53321993362,-0.0123040752892,8.90395592996,0.0,0.0,0.0,0.0,0.0,0.0,0.0,0.0,0.0
22840000000,49,22840000000,imu_link,0.000221138466643,-0.320612804168,-0.000177634707463,0.947210298375,0.0,0.0,0.0,0.0,0.0,0.0,0.0,0.0,0.0,0.00158655288216,-0.206505228812,0.0012155311383,0.0,0.0,0.0,0.0,0.0,0.0,0.0,0.0,0.0,4.53748499749,-0.0127482815218,8.89989571799,0.0,0.0,0.0,0.0,0.0,0.0,0.0,0.0,0.0
22844000000,50,22844000000,imu_link,0.000222909497381,-0.32100521915,-0.000174335736779,0.947077382898,0.0,0.0,0.0,0.0,0.0,0.0,0.0,0.0,0.0,0.00141716514197,-0.207156453228,0.00131008587238,0.0,0.0,0.0,0.0,0.0,0.0,0.0,0.0,0.0,4.54414696464,-0.0128157376593,8.89468313743,0.0,0.0,0.0,0.0,0.0,0.0,0.0,0.0,0.0
22848000000,51,22848000000,imu_link,0.00022478282787,-0.321398479858,-0.000170874073876,0.946943999094,0.0,0.0,0.0,0.0,0.0,0.0,0.0,0.0,0.0,0.00149184648279,-0.207632078765,0.00137076099892,0.0,0.0,0.0,0.0,0.0,0.0,0.0,0.0,0.0,4.5534358729,-0.0128984291104,8.89110765827,0.0,0.0,0.0,0.0,0.0,0.0,0.0,0.0,0.0
22852000000,52,22852000000,imu_link,0.000227029833577,-0.321792172957,-0.000167198032619,0.946810286132,0.0,0.0,0.0,0.0,0.0,0.0,0.0,0.0,0.0,0.001703295629,-0.207889643029,0.00141223430196,0.0,0.0,0.0,0.0,0.0,0.0,0.0,0.0,0.0,4.56153114076,-0.0128515526911,8.88507927039,0.0,0.0,0.0,0.0,0.0,0.0,0.0,0.0,0.0
22856000000,53,22856000000,imu_link,0.000229641441892,-0.322186199894,-0.000163303951117,0.946676276873,0.0,0.0,0.0,0.0,0.0,0.0,0.0,0.0,0.0,0.00191104376195,-0.208095301594,0.00145680567261,0.0,0.0,0.0,0.0,0.0,0.0,0.0,0.0,0.0,4.56820568712,-0.0127408007546,8.87687363389,0.0,0.0,0.0,0.0,0.0,0.0,0.0,0.0,0.0
22860000000,54,22860000000,imu_link,0.000232711464953,-0.322580360325,-0.000159175325523,0.946542039025,0.0,0.0,0.0,0.0,0.0,0.0,0.0,0.0,0.0,0.00216584954832,-0.208195248865,0.00149397354996,0.0,0.0,0.0,0.0,0.0,0.0,0.0,0.0,0.0,4.57485463816,-0.0126022534223,8.87003060328,0.0,0.0,0.0,0.0,0.0,0.0,0.0,0.0,0.0
22864000000,55,22864000000,imu_link,0.000236131345047,-0.322974322525,-0.000154864530494,0.94640768554,0.0,0.0,0.0,0.0,0.0,0.0,0.0,0.0,0.0,0.00236080657852,-0.208120034156,0.00152372829415,0.0,0.0,0.0,0.0,0.0,0.0,0.0,0.0,0.0,4.58132089501,-0.0124766924787,8.8629994518,0.0,0.0,0.0,0.0,0.0,0.0,0.0,0.0,0.0
22868000000,56,22868000000,imu_link,0.000239754112791,-0.323368059233,-0.000150429374014,0.946273225954,0.0,0.0,0.0,0.0,0.0,0.0,0.0,0.0,0.0,0.00247689164916,-0.208030433924,0.00154977802387,0.0,0.0,0.0,0.0,0.0,0.0,0.0,0.0,0.0,4.58781233747,-0.0121621319802,8.85805227771,0.0,0.0,0.0,0.0,0.0,0.0,0.0,0.0,0.0
22872000000,57,22872000000,imu_link,0.000243222236966,-0.323760814701,-0.000145964872456,0.946138919188,0.0,0.0,0.0,0.0,0.0,0.0,0.0,0.0,0.0,0.00240837661433,-0.207541472898,0.00158855951879,0.0,0.0,0.0,0.0,0.0,0.0,0.0,0.0,0.0,4.59468314804,-0.0121058326188,8.85368522435,0.0,0.0,0.0,0.0,0.0,0.0,0.0,0.0,0.0
22876000000,58,22876000000,imu_link,0.000246227218225,-0.324152117926,-0.000141546815818,0.94600492799,0.0,0.0,0.0,0.0,0.0,0.0,0.0,0.0,0.0,0.00218161493693,-0.206803415759,0.001641408035,0.0,0.0,0.0,0.0,0.0,0.0,0.0,0.0,0.0,4.59861730107,-0.0120197967226,8.84536237364,0.0,0.0,0.0,0.0,0.0,0.0,0.0,0.0,0.0
22880000000,59,22880000000,imu_link,0.000248844217987,-0.324541649317,-0.000137165192416,0.94587136394,0.0,0.0,0.0,0.0,0.0,0.0,0.0,0.0,0.0,0.00199201577401,-0.205896135561,0.00168686963333,0.0,0.0,0.0,0.0,0.0,0.0,0.0,0.0,0.0,4.60115396098,-0.0121012767835,8.83777574924,0.0,0.0,0.0,0.0,0.0,0.0,0.0,0.0,0.0
22884000000,60,22884000000,imu_link,0.000251240302308,-0.324929109074,-0.000132805141065,0.945738332372,0.0,0.0,0.0,0.0,0.0,0.0,0.0,0.0,0.0,0.00188382812305,-0.204829996773,0.00171229433379,0.0,0.0,0.0,0.0,0.0,0.0,0.0,0.0,0.0,4.60340361831,-0.0121808123821,8.83413967102,0.0,0.0,0.0,0.0,0.0,0.0,0.0,0.0,0.0
22888000000,61,22888000000,imu_link,0.000253377065906,-0.325314661415,-0.000128493306736,0.945605779571,0.0,0.0,0.0,0.0,0.0,0.0,0.0,0.0,0.0,0.00175318297964,-0.203850279198,0.00173141659848,0.0,0.0,0.0,0.0,0.0,0.0,0.0,0.0,0.0,4.60419776652,-0.0122193613106,8.83152236122,0.0,0.0,0.0,0.0,0.0,0.0,0.0,0.0,0.0
22892000000,62,22892000000,imu_link,0.000254521435519,-0.325698059244,-0.000124372624633,0.945473793373,0.0,0.0,0.0,0.0,0.0,0.0,0.0,0.0,0.0,0.00125267368007,-0.202739545624,0.00180222288473,0.0,0.0,0.0,0.0,0.0,0.0,0.0,0.0,0.0,4.60872848027,-0.0119003818964,8.82964970039,0.0,0.0,0.0,0.0,0.0,0.0,0.0,0.0,0.0
22896000000,63,22896000000,imu_link,0.000254478614918,-0.326079438553,-0.000120453053992,0.945342329786,0.0,0.0,0.0,0.0,0.0,0.0,0.0,0.0,0.0,0.000658502173648,-0.201700308492,0.00190025847788,0.0,0.0,0.0,0.0,0.0,0.0,0.0,0.0,0.0,4.61629822516,-0.0120685981332,8.82845693518,0.0,0.0,0.0,0.0,0.0,0.0,0.0,0.0,0.0
22900000000,64,22900000000,imu_link,0.000253175546471,-0.326459038009,-0.000116785334123,0.945211309055,0.0,0.0,0.0,0.0,0.0,0.0,0.0,0.0,0.0,2.15940830035e-05,-0.200786928173,0.00198648654547,0.0,0.0,0.0,0.0,0.0,0.0,0.0,0.0,0.0,4.62510749515,-0.0121502173348,8.82774938643,0.0,0.0,0.0,0.0,0.0,0.0,0.0,0.0,0.0
22904000000,65,22904000000,imu_link,0.0002509534448,-0.326836996582,-0.000113337590024,0.945080685361,0.0,0.0,0.0,0.0,0.0,0.0,0.0,0.0,0.0,-0.000448798867669,-0.199946710939,0.00203235357427,0.0,0.0,0.0,0.0,0.0,0.0,0.0,0.0,0.0,4.63265401911,-0.0123389912809,8.82271910668,0.0,0.0,0.0,0.0,0.0,0.0,0.0,0.0,0.0
22908000000,66,22908000000,imu_link,0.000248286368466,-0.327213587823,-0.000110049916203,0.944950365991,0.0,0.0,0.0,0.0,0.0,0.0,0.0,0.0,0.0,-0.000685341481673,-0.199250904491,0.00202927667739,0.0,0.0,0.0,0.0,0.0,0.0,0.0,0.0,0.0,4.64085199979,-0.0125109843878,8.82206111864,0.0,0.0,0.0,0.0,0.0,0.0,0.0,0.0,0.0
22912000000,67,22912000000,imu_link,0.000245330955622,-0.32758883611,-0.000106921804812,0.944820344212,0.0,0.0,0.0,0.0,0.0,0.0,0.0,0.0,0.0,-0.000847789676199,-0.198567739258,0.00200091085391,0.0,0.0,0.0,0.0,0.0,0.0,0.0,0.0,0.0,4.64729468264,-0.0125769319411,8.81467372621,0.0,0.0,0.0,0.0,0.0,0.0,0.0,0.0,0.0
22916000000,68,22916000000,imu_link,0.000242067759094,-0.32796316159,-0.00010400157535,0.944690475884,0.0,0.0,0.0,0.0,0.0,0.0,0.0,0.0,0.0,-0.00102730789044,-0.198106703562,0.00195301356815,0.0,0.0,0.0,0.0,0.0,0.0,0.0,0.0,0.0,4.65342624103,-0.0122145114896,8.8088838771,0.0,0.0,0.0,0.0,0.0,0.0,0.0,0.0,0.0
22920000000,69,22920000000,imu_link,0.000238382086072,-0.328336927011,-0.000101370915356,0.944560636094,0.0,0.0,0.0,0.0,0.0,0.0,0.0,0.0,0.0,-0.00127437930629,-0.197837539514,0.00188544886456,0.0,0.0,0.0,0.0,0.0,0.0,0.0,0.0,0.0,4.65973972303,-0.0119603392368,8.80576029807,0.0,0.0,0.0,0.0,0.0,0.0,0.0,0.0,0.0
22924000000,70,22924000000,imu_link,0.000234050104083,-0.328710826257,-9.91079479192e-05,0.944430584056,0.0,0.0,0.0,0.0,0.0,0.0,0.0,0.0,0.0,-0.00163994978069,-0.197935663133,0.00181790364444,0.0,0.0,0.0,0.0,0.0,0.0,0.0,0.0,0.0,4.66540575946,-0.0120794637218,8.80543690713,0.0,0.0,0.0,0.0,0.0,0.0,0.0,0.0,0.0
22928000000,71,22928000000,imu_link,0.000229037686879,-0.329086181008,-9.72225620322e-05,0.944299858922,0.0,0.0,0.0,0.0,0.0,0.0,0.0,0.0,0.0,-0.00202316840155,-0.198733680342,0.0017515740452,0.0,0.0,0.0,0.0,0.0,0.0,0.0,0.0,0.0,4.67157895309,-0.0123139422484,8.81312078688,0.0,0.0,0.0,0.0,0.0,0.0,0.0,0.0,0.0
22932000000,72,22932000000,imu_link,0.000223271856998,-0.329463658719,-9.57134150871e-05,0.94416822578,0.0,0.0,0.0,0.0,0.0,0.0,0.0,0.0,0.0,-0.00244059251421,-0.199885521923,0.0016981006826,0.0,0.0,0.0,0.0,0.0,0.0,0.0,0.0,0.0,4.67634475342,-0.012513503745,8.81563765243,0.0,0.0,0.0,0.0,0.0,0.0,0.0,0.0,0.0
22936000000,73,22936000000,imu_link,0.000216568665706,-0.329843453628,-9.46023676076e-05,0.944035613866,0.0,0.0,0.0,0.0,0.0,0.0,0.0,0.0,0.0,-0.00294846548152,-0.201140759017,0.00166478935033,0.0,0.0,0.0,0.0,0.0,0.0,0.0,0.0,0.0,4.67892847688,-0.0125761161578,8.81079597782,0.0,0.0,0.0,0.0,0.0,0.0,0.0,0.0,0.0
22940000000,74,22940000000,imu_link,0.000208621756662,-0.330224927485,-9.39191592675e-05,0.943902243309,0.0,0.0,0.0,0.0,0.0,0.0,0.0,0.0,0.0,-0.00360592086748,-0.202058474479,0.00166810365797,0.0,0.0,0.0,0.0,0.0,0.0,0.0,0.0,0.0,4.68401756146,-0.0123068125651,8.80372245031,0.0,0.0,0.0,0.0,0.0,0.0,0.0,0.0,0.0
22944000000,75,22944000000,imu_link,0.000199460420098,-0.330607060646,-9.36278257526e-05,0.943768468906,0.0,0.0,0.0,0.0,0.0,0.0,0.0,0.0,0.0,-0.00424370168259,-0.202436411534,0.00168372482429,0.0,0.0,0.0,0.0,0.0,0.0,0.0,0.0,0.0,4.69077581705,-0.0123414471308,8.79697333704,0.0,0.0,0.0,0.0,0.0,0.0,0.0,0.0,0.0
22948000000,76,22948000000,imu_link,0.000189285384469,-0.330989516699,-9.36407976515e-05,0.943634407616,0.0,0.0,0.0,0.0,0.0,0.0,0.0,0.0,0.0,-0.00477230936607,-0.202636280693,0.00170771470535,0.0,0.0,0.0,0.0,0.0,0.0,0.0,0.0,0.0,4.69700393574,-0.0123566326377,8.79419447459,0.0,0.0,0.0,0.0,0.0,0.0,0.0,0.0,0.0
22952000000,77,22952000000,imu_link,0.000178604927358,-0.331372115648,-9.37504047835e-05,0.943500122036,0.0,0.0,0.0,0.0,0.0,0.0,0.0,0.0,0.0,-0.00502674064487,-0.20274085323,0.00174576817198,0.0,0.0,0.0,0.0,0.0,0.0,0.0,0.0,0.0,4.70302119451,-0.0125620126064,8.78944539001,0.0,0.0,0.0,0.0,0.0,0.0,0.0,0.0,0.0
22956000000,78,22956000000,imu_link,0.000167420469406,-0.331755410909,-9.3931890497e-05,0.943365417259,0.0,0.0,0.0,0.0,0.0,0.0,0.0,0.0,0.0,-0.00527634229809,-0.203138823113,0.00179540789617,0.0,0.0,0.0,0.0,0.0,0.0,0.0,0.0,0.0,4.71029063658,-0.0126047338872,8.79035608496,0.0,0.0,0.0,0.0,0.0,0.0,0.0,0.0,0.0
22960000000,79,22960000000,imu_link,0.000155696224586,-0.332139662183,-9.41793349631e-05,0.943230200796,0.0,0.0,0.0,0.0,0.0,0.0,0.0,0.0,0.0,-0.0055418038075,-0.203674666588,0.00185389090221,0.0,0.0,0.0,0.0,0.0,0.0,0.0,0.0,0.0,4.71575291732,-0.0126707896722,8.78290733588,0.0,0.0,0.0,0.0,0.0,0.0,0.0,0.0,0.0
22964000000,80,22964000000,imu_link,0.000143310227837,-0.33252462797,-9.45543081767e-05,0.943094556402,0.0,0.0,0.0,0.0,0.0,0.0,0.0,0.0,0.0,-0.00587500775739,-0.204082749328,0.00190367892727,0.0,0.0,0.0,0.0,0.0,0.0,0.0,0.0,0.0,4.72277385644,-0.0123599668673,8.77762096559,0.0,0.0,0.0,0.0,0.0,0.0,0.0,0.0,0.0
22968000000,81,22968000000,imu_link,0.000130368541631,-0.332909929912,-9.50909736874e-05,0.942958616551,0.0,0.0,0.0,0.0,0.0,0.0,0.0,0.0,0.0,-0.0061638879057,-0.204290424044,0.00191983370038,0.0,0.0,0.0,0.0,0.0,0.0,0.0,0.0,0.0,4.73007090979,-0.0119702301746,8.77458819846,0.0,0.0,0.0,0.0,0.0,0.0,0.0,0.0,0.0
22972000000,82,22972000000,imu_link,0.000117473158723,-0.333294860097,-9.56972095882e-05,0.942822630867,0.0,0.0,0.0,0.0,0.0,0.0,0.0,0.0,0.0,-0.00615365188184,-0.204122779118,0.00187929887156,0.0,0.0,0.0,0.0,0.0,0.0,0.0,0.0,0.0,4.73741336983,-0.0120720339479,8.77244162443,0.0,0.0,0.0,0.0,0.0,0.0,0.0,0.0,0.0
22976000000,83,22976000000,imu_link,0.000105357011551,-0.333679551887,-9.62180075167e-05,0.942686552516,0.0,0.0,0.0,0.0,0.0,0.0,0.0,0.0,0.0,-0.00577207925127,-0.204025797649,0.0017896992215,0.0,0.0,0.0,0.0,0.0,0.0,0.0,0.0,0.0,4.74261778482,-0.0120706409906,8.77028642147,0.0,0.0,0.0,0.0,0.0,0.0,0.0,0.0,0.0
22980000000,84,22980000000,imu_link,9.45449261008e-05,-0.334064308009,-9.65326565742e-05,0.942550274445,0.0,0.0,0.0,0.0,0.0,0.0,0.0,0.0,0.0,-0.00512301102573,-0.204089367519,0.0016692905109,0.0,0.0,0.0,0.0,0.0,0.0,0.0,0.0,0.0,4.74697686747,-0.0120520925338,8.76866229459,0.0,0.0,0.0,0.0,0.0,0.0,0.0,0.0,0.0
22984000000,85,22984000000,imu_link,8.49477430538e-05,-0.334449175681,-9.67172010911e-05,0.942413779778,0.0,0.0,0.0,0.0,0.0,0.0,0.0,0.0,0.0,-0.00452871041491,-0.204178051941,0.00152767258797,0.0,0.0,0.0,0.0,0.0,0.0,0.0,0.0,0.0,4.75140750253,-0.0118520804536,8.76587967984,0.0,0.0,0.0,0.0,0.0,0.0,0.0,0.0,0.0
22988000000,86,22988000000,imu_link,7.63383514779e-05,-0.334834123214,-9.68279340606e-05,0.942277079594,0.0,0.0,0.0,0.0,0.0,0.0,0.0,0.0,0.0,-0.00405090053157,-0.204250000163,0.0013972635188,0.0,0.0,0.0,0.0,0.0,0.0,0.0,0.0,0.0,4.75931126519,-0.0115032537007,8.76679156237,0.0,0.0,0.0,0.0,0.0,0.0,0.0,0.0,0.0
22992000000,87,22992000000,imu_link,6.86421266657e-05,-0.335218380233,-9.69008448064e-05,0.942140447838,0.0,0.0,0.0,0.0,0.0,0.0,0.0,0.0,0.0,-0.00361437639534,-0.203913170004,0.00126218027457,0.0,0.0,0.0,0.0,0.0,0.0,0.0,0.0,0.0,4.76723605997,-0.0112691502075,8.76216077323,0.0,0.0,0.0,0.0,0.0,0.0,0.0,0.0,0.0
22996000000,88,22996000000,imu_link,6.17381480771e-05,-0.335601467128,-9.69875668647e-05,0.942004056278,0.0,0.0,0.0,0.0,0.0,0.0,0.0,0.0,0.0,-0.00324355259662,-0.203321662749,0.00112285789413,0.0,0.0,0.0,0.0,0.0,0.0,0.0,0.0,0.0,4.7734827828,-0.0110206108568,8.75625876857,0.0,0.0,0.0,0.0,0.0,0.0,0.0,0.0,0.0
23000000000,89,23000000000,imu_link,5.56513704713e-05,-0.335982777014,-9.71392688092e-05,0.941868122943,0.0,0.0,0.0,0.0,0.0,0.0,0.0,0.0,0.0,-0.0028696532347,-0.202407759348,0.000955092663464,0.0,0.0,0.0,0.0,0.0,0.0,0.0,0.0,0.0,4.77947327137,-0.0108571428486,8.75180796482,0.0,0.0,0.0,0.0,0.0,0.0,0.0,0.0,0.0
23004000000,90,23004000000,imu_link,5.03429219321e-05,-0.336362005744,-9.74143619801e-05,0.941732758838,0.0,0.0,0.0,0.0,0.0,0.0,0.0,0.0,0.0,-0.00252395711932,-0.20133201213,0.000766200672925,0.0,0.0,0.0,0.0,0.0,0.0,0.0,0.0,0.0,4.78440925595,-0.0106628145663,8.74717194959,0.0,0.0,0.0,0.0,0.0,0.0,0.0,0.0,0.0
23008000000,91,23008000000,imu_link,4.60897375876e-05,-0.336739783559,-9.76424603859e-05,0.941597741347,0.0,0.0,0.0,0.0,0.0,0.0,0.0,0.0,0.0,-0.00201924441457,-0.20059047778,0.000610833885309,0.0,0.0,0.0,0.0,0.0,0.0,0.0,0.0,0.0,4.79073820872,-0.0104064871598,8.74830270085,0.0,0.0,0.0,0.0,0.0,0.0,0.0,0.0,0.0
23012000000,92,23012000000,imu_link,4.29036129318e-05,-0.337116441345,-9.77509189431e-05,0.941462953907,0.0,0.0,0.0,0.0,0.0,0.0,0.0,0.0,0.0,-0.00149679010974,-0.200024380984,0.000487484876852,0.0,0.0,0.0,0.0,0.0,0.0,0.0,0.0,0.0,4.79729856698,-0.00999230485926,8.74731202353,0.0,0.0,0.0,0.0,0.0,0.0,0.0,0.0,0.0
23016000000,93,23016000000,imu_link,4.06685660193e-05,-0.33749206253,-9.77516349773e-05,0.941328368063,0.0,0.0,0.0,0.0,0.0,0.0,0.0,0.0,0.0,-0.00103098194218,-0.199502391036,0.000377878308934,0.0,0.0,0.0,0.0,0.0,0.0,0.0,0.0,0.0,4.80373844992,-0.00928702608017,8.74496311591,0.0,0.0,0.0,0.0,0.0,0.0,0.0,0.0,0.0
23020000000,94,23020000000,imu_link,3.92368215304e-05,-0.337866590515,-9.77125975675e-05,0.941194005467,0.0,0.0,0.0,0.0,0.0,0.0,0.0,0.0,0.0,-0.000646245966304,-0.198950148244,0.000261023407922,0.0,0.0,0.0,0.0,0.0,0.0,0.0,0.0,0.0,4.8086290519,-0.00911102415092,8.74021717929,0.0,0.0,0.0,0.0,0.0,0.0,0.0,0.0,0.0
23024000000,95,23024000000,imu_link,3.85210118002e-05,-0.338239946179,-9.76811202736e-05,0.94105989596,0.0,0.0,0.0,0.0,0.0,0.0,0.0,0.0,0.0,-0.00031066858378,-0.19835566693,0.000136509777992,0.0,0.0,0.0,0.0,0.0,0.0,0.0,0.0,0.0,4.81289859695,-0.00900125508299,8.7368070206,0.0,0.0,0.0,0.0,0.0,0.0,0.0,0.0,0.0
23028000000,96,23028000000,imu_link,3.84743374429e-05,-0.338613090969,-9.76294055303e-05,0.940925695054,0.0,0.0,0.0,0.0,0.0,0.0,0.0,0.0,0.0,7.59369158081e-06,-0.198271869461,3.2859414154e-05,0.0,0.0,0.0,0.0,0.0,0.0,0.0,0.0,0.0,4.81853394663,-0.00896307321598,8.74727378344,0.0,0.0,0.0,0.0,0.0,0.0,0.0,0.0,0.0
23032000000,97,23032000000,imu_link,3.8435023521e-05,-0.338986804162,-9.76546230592e-05,0.940791122189,0.0,0.0,0.0,0.0,0.0,0.0,0.0,0.0,0.0,-1.93373313302e-06,-0.198602257697,-4.58775715504e-06,0.0,0.0,0.0,0.0,0.0,0.0,0.0,0.0,0.0,4.8250155892,-0.00863108674364,8.75492718856,0.0,0.0,0.0,0.0,0.0,0.0,0.0,0.0,0.0
23036000000,98,23036000000,imu_link,3.80623415663e-05,-0.339361743374,-9.7801377234e-05,0.940655939289,0.0,0.0,0.0,0.0,0.0,0.0,0.0,0.0,0.0,-0.000179276663117,-0.199282387657,-5.2605992594e-06,0.0,0.0,0.0,0.0,0.0,0.0,0.0,0.0,0.0,4.8331537846,-0.00853764048349,8.75899573788,0.0,0.0,0.0,0.0,0.0,0.0,0.0,0.0,0.0
23040000000,99,23040000000,imu_link,3.68465073411e-05,-0.339738243918,-9.81892519475e-05,0.940520023509,0.0,0.0,0.0,0.0,0.0,0.0,0.0,0.0,0.0,-0.00061665803919,-0.200141127108,2.43943575079e-05,0.0,0.0,0.0,0.0,0.0,0.0,0.0,0.0,0.0,4.84078668835,-0.00850574424852,8.75813532213,0.0,0.0,0.0,0.0,0.0,0.0,0.0,0.0,0.0
23044000000,100,23044000000,imu_link,3.45187017106e-05,-0.340116174878,-9.88785129203e-05,0.940383420004,0.0,0.0,0.0,0.0,0.0,0.0,0.0,0.0,0.0,-0.00119068709536,-0.200930678578,7.15466511039e-05,0.0,0.0,0.0,0.0,0.0,0.0,0.0,0.0,0.0,4.84777908761,-0.00865361814052,8.75283878471,0.0,0.0,0.0,0.0,0.0,0.0,0.0,0.0,0.0
23048000000,101,23048000000,imu_link,3.10425761796e-05,-0.34049589001,-9.98794770555e-05,0.940245998634,0.0,0.0,0.0,0.0,0.0,0.0,0.0,0.0,0.0,-0.00178352296209,-0.201908727892,0.000120257857292,0.0,0.0,0.0,0.0,0.0,0.0,0.0,0.0,0.0,4.85533952712,-0.00885724353556,8.75341109662,0.0,0.0,0.0,0.0,0.0,0.0,0.0,0.0,0.0
23052000000,102,23052000000,imu_link,2.67641189906e-05,-0.340877651926,-0.000101124897019,0.94010766164,0.0,0.0,0.0,0.0,0.0,0.0,0.0,0.0,0.0,-0.00220221923847,-0.203026895588,0.000141914910871,0.0,0.0,0.0,0.0,0.0,0.0,0.0,0.0,0.0,4.86213861563,-0.00909095308431,8.752288816,0.0,0.0,0.0,0.0,0.0,0.0,0.0,0.0,0.0
23056000000,103,23056000000,imu_link,2.21194186022e-05,-0.341261913827,-0.000102501410521,0.939968241578,0.0,0.0,0.0,0.0,0.0,0.0,0.0,0.0,0.0,-0.00239657580603,-0.204386641003,0.000142694643775,0.0,0.0,0.0,0.0,0.0,0.0,0.0,0.0,0.0,4.86806495099,-0.00887861986192,8.75002875779,0.0,0.0,0.0,0.0,0.0,0.0,0.0,0.0,0.0
23060000000,104,23060000000,imu_link,1.70116169194e-05,-0.341648471322,-0.000104078403434,0.939827809187,0.0,0.0,0.0,0.0,0.0,0.0,0.0,0.0,0.0,-0.00264830523118,-0.205638294023,0.000127465426453,0.0,0.0,0.0,0.0,0.0,0.0,0.0,0.0,0.0,4.87348965986,-0.00857382823968,8.74549621969,0.0,0.0,0.0,0.0,0.0,0.0,0.0,0.0,0.0
23064000000,105,23064000000,imu_link,1.12615363144e-05,-0.342036891179,-0.000105854017878,0.939686518867,0.0,0.0,0.0,0.0,0.0,0.0,0.0,0.0,0.0,-0.00298394621616,-0.206660034693,0.000143818409987,0.0,0.0,0.0,0.0,0.0,0.0,0.0,0.0,0.0,4.87833773748,-0.00838361073412,8.74022547299,0.0,0.0,0.0,0.0,0.0,0.0,0.0,0.0,0.0
23068000000,106,23068000000,imu_link,4.96461410103e-06,-0.34242710912,-0.000107650194729,0.939544391355,0.0,0.0,0.0,0.0,0.0,0.0,0.0,0.0,0.0,-0.00324429275465,-0.207648056456,0.000227643124674,0.0,0.0,0.0,0.0,0.0,0.0,0.0,0.0,0.0,4.88420903502,-0.00858066969443,8.74122651927,0.0,0.0,0.0,0.0,0.0,0.0,0.0,0.0,0.0
23072000000,107,23072000000,imu_link,-1.73317544811e-06,-0.342818687412,-0.000109335734925,0.939401583778,0.0,0.0,0.0,0.0,0.0,0.0,0.0,0.0,0.0,-0.00341359169561,-0.208403570042,0.000348217853688,0.0,0.0,0.0,0.0,0.0,0.0,0.0,0.0,0.0,4.89022073098,-0.00874697376004,8.7395755538,0.0,0.0,0.0,0.0,0.0,0.0,0.0,0.0,0.0
23076000000,108,23076000000,imu_link,-8.5713570076e-06,-0.343211345391,-0.000110801148282,0.939258196688,0.0,0.0,0.0,0.0,0.0,0.0,0.0,0.0,0.0,-0.00344174361934,-0.209010041221,0.000475643501494,0.0,0.0,0.0,0.0,0.0,0.0,0.0,0.0,0.0,4.89441625052,-0.00899580906789,8.7351840087,0.0,0.0,0.0,0.0,0.0,0.0,0.0,0.0,0.0
23080000000,109,23080000000,imu_link,-1.57076189956e-05,-0.343604113993,-0.000112098682963,0.939114583016,0.0,0.0,0.0,0.0,0.0,0.0,0.0,0.0,0.0,-0.00355291678142,-0.209100893435,0.00060562348992,0.0,0.0,0.0,0.0,0.0,0.0,0.0,0.0,0.0,4.90122682533,-0.00873925986607,8.72902756154,0.0,0.0,0.0,0.0,0.0,0.0,0.0,0.0,0.0
23084000000,110,23084000000,imu_link,-2.29222042582e-05,-0.343995806325,-0.000113253531842,0.938971177342,0.0,0.0,0.0,0.0,0.0,0.0,0.0,0.0,0.0,-0.00356523902201,-0.208559793688,0.000686098865987,0.0,0.0,0.0,0.0,0.0,0.0,0.0,0.0,0.0,4.91023103355,-0.00875001579988,8.72359761071,0.0,0.0,0.0,0.0,0.0,0.0,0.0,0.0,0.0
23088000000,111,23088000000,imu_link,-3.01034514414e-05,-0.344385847872,-0.000114310549614,0.93882819185,0.0,0.0,0.0,0.0,0.0,0.0,0.0,0.0,0.0,-0.00353284918639,-0.20771250279,0.000726337797622,0.0,0.0,0.0,0.0,0.0,0.0,0.0,0.0,0.0,4.91810310419,-0.00860439529697,8.72003978699,0.0,0.0,0.0,0.0,0.0,0.0,0.0,0.0,0.0
23092000000,112,23092000000,imu_link,-3.75972938419e-05,-0.344773959452,-0.000115396480845,0.938685731304,0.0,0.0,0.0,0.0,0.0,0.0,0.0,0.0,0.0,-0.00368466689749,-0.206716173819,0.000766651151891,0.0,0.0,0.0,0.0,0.0,0.0,0.0,0.0,0.0,4.92510058451,-0.00839669852542,8.71698182203,0.0,0.0,0.0,0.0,0.0,0.0,0.0,0.0,0.0
23096000000,113,23096000000,imu_link,-4.59147530569e-05,-0.345160587246,-0.00011668808601,0.938543634195,0.0,0.0,0.0,0.0,0.0,0.0,0.0,0.0,0.0,-0.00410675989477,-0.205957161441,0.000812149240208,0.0,0.0,0.0,0.0,0.0,0.0,0.0,0.0,0.0,4.93070752401,-0.00843369992537,8.71460851627,0.0,0.0,0.0,0.0,0.0,0.0,0.0,0.0,0.0
23100000000,114,23100000000,imu_link,-5.50804187975e-05,-0.345546337049,-0.000118291579655,0.938401679413,0.0,0.0,0.0,0.0,0.0,0.0,0.0,0.0,0.0,-0.00455867311267,-0.205520624447,0.000812200957348,0.0,0.0,0.0,0.0,0.0,0.0,0.0,0.0,0.0,4.93628273018,-0.00864140208194,8.71361710981,0.0,0.0,0.0,0.0,0.0,0.0,0.0,0.0,0.0
23104000000,115,23104000000,imu_link,-6.46076706233e-05,-0.345931245585,-0.000120202500493,0.938259854574,0.0,0.0,0.0,0.0,0.0,0.0,0.0,0.0,0.0,-0.00478149097358,-0.205103462975,0.000730459081432,0.0,0.0,0.0,0.0,0.0,0.0,0.0,0.0,0.0,4.94185084766,-0.00857228182776,8.71145854039,0.0,0.0,0.0,0.0,0.0,0.0,0.0,0.0,0.0
23108000000,116,23108000000,imu_link,-7.35568292637e-05,-0.346315399685,-0.000122253568324,0.938118128801,0.0,0.0,0.0,0.0,0.0,0.0,0.0,0.0,0.0,-0.00453457289165,-0.204732360633,0.000564751995777,0.0,0.0,0.0,0.0,0.0,0.0,0.0,0.0,0.0,4.94716274191,-0.00829846794105,8.71269079854,0.0,0.0,0.0,0.0,0.0,0.0,0.0,0.0,0.0
23112000000,117,23112000000,imu_link,-8.11493054249e-05,-0.346698388638,-0.000124275684618,0.937976654979,0.0,0.0,0.0,0.0,0.0,0.0,0.0,0.0,0.0,-0.00389325739546,-0.204142128003,0.000343470193397,0.0,0.0,0.0,0.0,0.0,0.0,0.0,0.0,0.0,4.9522196338,-0.00830171469157,8.71379018363,0.0,0.0,0.0,0.0,0.0,0.0,0.0,0.0,0.0
23116000000,118,23116000000,imu_link,-8.72125619132e-05,-0.347080191269,-0.000126201087893,0.937835442546,0.0,0.0,0.0,0.0,0.0,0.0,0.0,0.0,0.0,-0.00315936914162,-0.203540354429,0.000123802830728,0.0,0.0,0.0,0.0,0.0,0.0,0.0,0.0,0.0,4.95447719664,-0.00805567939669,8.71046682873,0.0,0.0,0.0,0.0,0.0,0.0,0.0,0.0,0.0
23120000000,119,23120000000,imu_link,-9.18408365551e-05,-0.347460691197,-0.000127969177688,0.937694536223,0.0,0.0,0.0,0.0,0.0,0.0,0.0,0.0,0.0,-0.00245924932142,-0.20287628761,-5.13808704306e-05,0.0,0.0,0.0,0.0,0.0,0.0,0.0,0.0,0.0,4.95602275876,-0.00776982946506,8.70584389346,0.0,0.0,0.0,0.0,0.0,0.0,0.0,0.0,0.0
23124000000,120,23124000000,imu_link,-9.55938018155e-05,-0.347839996686,-0.000129593154689,0.93755389753,0.0,0.0,0.0,0.0,0.0,0.0,0.0,0.0,0.0,-0.00202389024283,-0.202269733215,-0.000135809815572,0.0,0.0,0.0,0.0,0.0,0.0,0.0,0.0,0.0,4.96027094785,-0.00749782280908,8.70536994875,0.0,0.0,0.0,0.0,0.0,0.0,0.0,0.0,0.0
23128000000,121,23128000000,imu_link,-9.93196430418e-05,-0.348218741707,-0.000131226339398,0.937413292438,0.0,0.0,0.0,0.0,0.0,0.0,0.0,0.0,0.0,-0.00201281123422,-0.202001152657,-0.000144814623158,0.0,0.0,0.0,0.0,0.0,0.0,0.0,0.0,0.0,4.96943381265,-0.00698479913829,8.71320084932,0.0,0.0,0.0,0.0,0.0,0.0,0.0,0.0,0.0
23132000000,122,23132000000,imu_link,-0.000103392235865,-0.348597323929,-0.000132953862398,0.937272573685,0.0,0.0,0.0,0.0,0.0,0.0,0.0,0.0,0.0,-0.0021917775335,-0.201944654711,-0.000128658276939,0.0,0.0,0.0,0.0,0.0,0.0,0.0,0.0,0.0,4.97913201333,-0.00691433631927,8.71589663357,0.0,0.0,0.0,0.0,0.0,0.0,0.0,0.0,0.0
23136000000,123,23136000000,imu_link,-0.000107838370763,-0.348976034934,-0.000134790177904,0.937131632827,0.0,0.0,0.0,0.0,0.0,0.0,0.0,0.0,0.0,-0.00238579822986,-0.202043739588,-0.000114555930385,0.0,0.0,0.0,0.0,0.0,0.0,0.0,0.0,0.0,4.98667633377,-0.00693531426684,8.71208261176,0.0,0.0,0.0,0.0,0.0,0.0,0.0,0.0,0.0
23140000000,124,23140000000,imu_link,-0.000112393149968,-0.349354744695,-0.00013665419504,0.936990518123,0.0,0.0,0.0,0.0,0.0,0.0,0.0,0.0,0.0,-0.00244154830251,-0.202073495943,-0.000108590486574,0.0,0.0,0.0,0.0,0.0,0.0,0.0,0.0,0.0,4.99303003689,-0.00704144069844,8.70390411845,0.0,0.0,0.0,0.0,0.0,0.0,0.0,0.0,0.0
23144000000,125,23144000000,imu_link,-0.000116829226636,-0.349733068453,-0.000138458306349,0.936849373171,0.0,0.0,0.0,0.0,0.0,0.0,0.0,0.0,0.0,-0.00237550060322,-0.201897934623,-0.000101239911446,0.0,0.0,0.0,0.0,0.0,0.0,0.0,0.0,0.0,4.9995853327,-0.00715129559304,8.69653209693,0.0,0.0,0.0,0.0,0.0,0.0,0.0,0.0,0.0
23148000000,126,23148000000,imu_link,-0.000121170217883,-0.350111141172,-0.000140160258323,0.936708147984,0.0,0.0,0.0,0.0,0.0,0.0,0.0,0.0,0.0,-0.00231311805627,-0.201794371621,-7.00041030459e-05,0.0,0.0,0.0,0.0,0.0,0.0,0.0,0.0,0.0,5.00576888018,-0.00682414067745,8.69129713109,0.0,0.0,0.0,0.0,0.0,0.0,0.0,0.0,0.0
23152000000,127,23152000000,imu_link,-0.0001255244303,-0.350488733992,-0.000141794049477,0.936566928459,0.0,0.0,0.0,0.0,0.0,0.0,0.0,0.0,0.0,-0.00230741160153,-0.201568622508,-3.57367916883e-05,0.0,0.0,0.0,0.0,0.0,0.0,0.0,0.0,0.0,5.01158835214,-0.00661683306009,8.68424856801,0.0,0.0,0.0,0.0,0.0,0.0,0.0,0.0,0.0
23156000000,128,23156000000,imu_link,-0.000129905258466,-0.3508660833,-0.000143367922568,0.936425626604,0.0,0.0,0.0,0.0,0.0,0.0,0.0,0.0,0.0,-0.00230939744473,-0.201469023513,-3.00444435396e-06,0.0,0.0,0.0,0.0,0.0,0.0,0.0,0.0,0.0,5.01703571111,-0.006283812265,8.68226318651,0.0,0.0,0.0,0.0,0.0,0.0,0.0,0.0,0.0
23160000000,129,23160000000,imu_link,-0.000134199575151,-0.351243910342,-0.000144856378085,0.936283972123,0.0,0.0,0.0,0.0,0.0,0.0,0.0,0.0,0.0,-0.00225389525068,-0.2017545664,2.17558803936e-05,0.0,0.0,0.0,0.0,0.0,0.0,0.0,0.0,0.0,5.02186173723,-0.00648151724315,8.68495775239,0.0,0.0,0.0,0.0,0.0,0.0,0.0,0.0,0.0
23164000000,130,23164000000,imu_link,-0.000138172999579,-0.351622936638,-0.00014618769294,0.936141693318,0.0,0.0,0.0,0.0,0.0,0.0,0.0,0.0,0.0,-0.00207602978049,-0.202425619679,3.88386097421e-05,0.0,0.0,0.0,0.0,0.0,0.0,0.0,0.0,0.0,5.02548836914,-0.00653362193477,8.68742147265,0.0,0.0,0.0,0.0,0.0,0.0,0.0,0.0,0.0
23168000000,131,23168000000,imu_link,-0.000141485455503,-0.352003988537,-0.000147282525011,0.935998477746,0.0,0.0,0.0,0.0,0.0,0.0,0.0,0.0,0.0,-0.00172498993906,-0.203538408403,3.31150489998e-05,0.0,0.0,0.0,0.0,0.0,0.0,0.0,0.0,0.0,5.02887534738,-0.00659574824124,8.69337806461,0.0,0.0,0.0,0.0,0.0,0.0,0.0,0.0,0.0
23172000000,132,23172000000,imu_link,-0.000144502416994,-0.352386914728,-0.000148285324669,0.935854379409,0.0,0.0,0.0,0.0,0.0,0.0,0.0,0.0,0.0,-0.00157042529395,-0.204570929208,2.3980937432e-05,0.0,0.0,0.0,0.0,0.0,0.0,0.0,0.0,0.0,5.03310017857,-0.00618769549283,8.69126813409,0.0,0.0,0.0,0.0,0.0,0.0,0.0,0.0,0.0
23176000000,133,23176000000,imu_link,-0.000147290015437,-0.352771146516,-0.000149272871965,0.93570960998,0.0,0.0,0.0,0.0,0.0,0.0,0.0,0.0,0.0,-0.00146036439963,-0.20530007937,-9.43842585701e-06,0.0,0.0,0.0,0.0,0.0,0.0,0.0,0.0,0.0,5.03830206735,-0.00605445483632,8.68469782,0.0,0.0,0.0,0.0,0.0,0.0,0.0,0.0,0.0
23180000000,134,23180000000,imu_link,-0.000149540042683,-0.353155729311,-0.000150114056937,0.93556452795,0.0,0.0,0.0,0.0,0.0,0.0,0.0,0.0,0.0,-0.00118303973015,-0.205519409051,-3.58310973253e-05,0.0,0.0,0.0,0.0,0.0,0.0,0.0,0.0,0.0,5.04482752616,-0.00605012623816,8.67850964794,0.0,0.0,0.0,0.0,0.0,0.0,0.0,0.0,0.0
23184000000,135,23184000000,imu_link,-0.000151254818863,-0.35353962824,-0.000150761807869,0.935419523881,0.0,0.0,0.0,0.0,0.0,0.0,0.0,0.0,0.0,-0.000898548080172,-0.205185716526,-3.98025899431e-05,0.0,0.0,0.0,0.0,0.0,0.0,0.0,0.0,0.0,5.05116472656,-0.00606810353795,8.67096362732,0.0,0.0,0.0,0.0,0.0,0.0,0.0,0.0,0.0
23188000000,136,23188000000,imu_link,-0.000152987797916,-0.353922465118,-0.000151378334258,0.935274741648,0.0,0.0,0.0,0.0,0.0,0.0,0.0,0.0,0.0,-0.000901605466353,-0.204649774494,-2.18838045739e-05,0.0,0.0,0.0,0.0,0.0,0.0,0.0,0.0,0.0,5.05909673804,-0.00598486152059,8.66933050581,0.0,0.0,0.0,0.0,0.0,0.0,0.0,0.0,0.0
23192000000,137,23192000000,imu_link,-0.0001553163831,-0.354304180753,-0.000152126230979,0.935130204964,0.0,0.0,0.0,0.0,0.0,0.0,0.0,0.0,0.0,-0.00120344671479,-0.204082022019,2.21860712516e-05,0.0,0.0,0.0,0.0,0.0,0.0,0.0,0.0,0.0,5.0656816789,-0.00599323615266,8.66466377624,0.0,0.0,0.0,0.0,0.0,0.0,0.0,0.0,0.0
23196000000,138,23196000000,imu_link,-0.000158521211116,-0.354684924764,-0.00015303434225,0.934985858501,0.0,0.0,0.0,0.0,0.0,0.0,0.0,0.0,0.0,-0.00164158879523,-0.203594080396,0.000102593518363,0.0,0.0,0.0,0.0,0.0,0.0,0.0,0.0,0.0,5.07172589482,-0.00564354049089,8.65845960194,0.0,0.0,0.0,0.0,0.0,0.0,0.0,0.0,0.0
23200000000,139,23200000000,imu_link,-0.000162709277232,-0.355064445448,-0.000154109372931,0.934841799105,0.0,0.0,0.0,0.0,0.0,0.0,0.0,0.0,0.0,-0.00213091844617,-0.202971335947,0.000199048675531,0.0,0.0,0.0,0.0,0.0,0.0,0.0,0.0,0.0,5.07802812772,-0.00531976712804,8.65332300156,0.0,0.0,0.0,0.0,0.0,0.0,0.0,0.0,0.0
23204000000,140,23204000000,imu_link,-0.000167666342184,-0.355442392397,-0.000155280628521,0.934698161688,0.0,0.0,0.0,0.0,0.0,0.0,0.0,0.0,0.0,-0.00250753455876,-0.202160876243,0.000290753767521,0.0,0.0,0.0,0.0,0.0,0.0,0.0,0.0,0.0,5.08273446374,-0.00542584249998,8.64587839944,0.0,0.0,0.0,0.0,0.0,0.0,0.0,0.0,0.0
23208000000,141,23208000000,imu_link,-0.00017300568647,-0.355818374885,-0.000156458607571,0.93455509719,0.0,0.0,0.0,0.0,0.0,0.0,0.0,0.0,0.0,-0.00268749185988,-0.201140995564,0.00035575987931,0.0,0.0,0.0,0.0,0.0,0.0,0.0,0.0,0.0,5.08643676828,-0.00566134388655,8.63807431847,0.0,0.0,0.0,0.0,0.0,0.0,0.0,0.0,0.0
23212000000,142,23212000000,imu_link,-0.000178014065611,-0.356191997212,-0.000157498559194,0.934412759238,0.0,0.0,0.0,0.0,0.0,0.0,0.0,0.0,0.0,-0.00250840469888,-0.199908872568,0.000361636254812,0.0,0.0,0.0,0.0,0.0,0.0,0.0,0.0,0.0,5.08839316183,-0.00602693771571,8.62793515808,0.0,0.0,0.0,0.0,0.0,0.0,0.0,0.0,0.0
23216000000,143,23216000000,imu_link,-0.00018222282846,-0.356562655004,-0.000158326865405,0.934271381765,0.0,0.0,0.0,0.0,0.0,0.0,0.0,0.0,0.0,-0.00209727359583,-0.19835272044,0.000318449377423,0.0,0.0,0.0,0.0,0.0,0.0,0.0,0.0,0.0,5.09015156298,-0.00626150602449,8.61661568199,0.0,0.0,0.0,0.0,0.0,0.0,0.0,0.0,0.0
23220000000,144,23220000000,imu_link,-0.000185419502011,-0.356929528627,-0.00015891174384,0.934131281973,0.0,0.0,0.0,0.0,0.0,0.0,0.0,0.0,0.0,-0.00158127504837,-0.196357155068,0.000252172476615,0.0,0.0,0.0,0.0,0.0,0.0,0.0,0.0,0.0,5.09358809985,-0.00601836357716,8.60515738557,0.0,0.0,0.0,0.0,0.0,0.0,0.0,0.0,0.0
23224000000,145,23224000000,imu_link,-0.000187643235054,-0.357291985222,-0.000159264477147,0.933992706996,0.0,0.0,0.0,0.0,0.0,0.0,0.0,0.0,0.0,-0.00108562779393,-0.194021931155,0.00018749454313,0.0,0.0,0.0,0.0,0.0,0.0,0.0,0.0,0.0,5.09800914372,-0.00588049432681,8.59362394519,0.0,0.0,0.0,0.0,0.0,0.0,0.0,0.0,0.0
23228000000,146,23228000000,imu_link,-0.000189262709258,-0.357649534192,-0.000159460984008,0.933855850463,0.0,0.0,0.0,0.0,0.0,0.0,0.0,0.0,0.0,-0.000775761444564,-0.191423060893,0.000153100585341,0.0,0.0,0.0,0.0,0.0,0.0,0.0,0.0,0.0,5.10038912143,-0.0056279047238,8.57910947829,0.0,0.0,0.0,0.0,0.0,0.0,0.0,0.0,0.0
23232000000,147,23232000000,imu_link,-0.000191219190079,-0.358001789557,-0.000159699117207,0.933720866536,0.0,0.0,0.0,0.0,0.0,0.0,0.0,0.0,0.0,-0.000940807929513,-0.188616483048,0.000194579463103,0.0,0.0,0.0,0.0,0.0,0.0,0.0,0.0,0.0,5.10326715407,-0.00532477590399,8.56906123467,0.0,0.0,0.0,0.0,0.0,0.0,0.0,0.0,0.0
23236000000,148,23236000000,imu_link,-0.000193795549262,-0.358348284035,-0.000160005534548,0.933587941316,0.0,0.0,0.0,0.0,0.0,0.0,0.0,0.0,0.0,-0.00124269072346,-0.185558484929,0.000274374268802,0.0,0.0,0.0,0.0,0.0,0.0,0.0,0.0,0.0,5.10401611314,-0.00531431334046,8.55085461921,0.0,0.0,0.0,0.0,0.0,0.0,0.0,0.0,0.0
23240000000,149,23240000000,imu_link,-0.000196674495183,-0.358688373806,-0.000160229511927,0.933457329577,0.0,0.0,0.0,0.0,0.0,0.0,0.0,0.0,0.0,-0.00136945350734,-0.182154321378,0.000367878157161,0.0,0.0,0.0,0.0,0.0,0.0,0.0,0.0,0.0,5.10690512317,-0.00527735431123,8.53601934099,0.0,0.0,0.0,0.0,0.0,0.0,0.0,0.0,0.0
23244000000,150,23244000000,imu_link,-0.000199588317287,-0.359021242195,-0.000160357401445,0.933329353499,0.0,0.0,0.0,0.0,0.0,0.0,0.0,0.0,0.0,-0.0013688177743,-0.17831121639,0.000419901244928,0.0,0.0,0.0,0.0,0.0,0.0,0.0,0.0,0.0,5.11073292675,-0.00502952592219,8.52109513803,0.0,0.0,0.0,0.0,0.0,0.0,0.0,0.0,0.0
23248000000,151,23248000000,imu_link,-0.000202218735942,-0.359346291442,-0.000160364501785,0.933204252143,0.0,0.0,0.0,0.0,0.0,0.0,0.0,0.0,0.0,-0.0012152204897,-0.1741462446,0.000426406154232,0.0,0.0,0.0,0.0,0.0,0.0,0.0,0.0,0.0,5.11297273046,-0.00470467339719,8.50621531345,0.0,0.0,0.0,0.0,0.0,0.0,0.0,0.0,0.0
23252000000,152,23252000000,imu_link,-0.000204476287746,-0.359663388122,-0.000160288602367,0.933082086283,0.0,0.0,0.0,0.0,0.0,0.0,0.0,0.0,0.0,-0.00102666803093,-0.169908108341,0.000399179308607,0.0,0.0,0.0,0.0,0.0,0.0,0.0,0.0,0.0,5.11385655245,-0.00484742098285,8.49299149468,0.0,0.0,0.0,0.0,0.0,0.0,0.0,0.0,0.0
23256000000,153,23256000000,imu_link,-0.00020630812067,-0.35997251143,-0.000160153203954,0.932962873218,0.0,0.0,0.0,0.0,0.0,0.0,0.0,0.0,0.0,-0.000817690013087,-0.165657167433,0.00035143211307,0.0,0.0,0.0,0.0,0.0,0.0,0.0,0.0,0.0,5.11295417317,-0.00494586778892,8.47753302296,0.0,0.0,0.0,0.0,0.0,0.0,0.0,0.0,0.0
23260000000,154,23260000000,imu_link,-0.00020769474404,-0.360273449563,-0.000159942770721,0.932846703816,0.0,0.0,0.0,0.0,0.0,0.0,0.0,0.0,0.0,-0.000596844245309,-0.161291089507,0.000307390920139,0.0,0.0,0.0,0.0,0.0,0.0,0.0,0.0,0.0,5.11217615273,-0.00504509591598,8.46325695167,0.0,0.0,0.0,0.0,0.0,0.0,0.0,0.0,0.0
23264000000,155,23264000000,imu_link,-0.000209435576953,-0.360565893923,-0.000159859937681,0.932733706221,0.0,0.0,0.0,0.0,0.0,0.0,0.0,0.0,0.0,-0.000785391211278,-0.156758050701,0.000312817066567,0.0,0.0,0.0,0.0,0.0,0.0,0.0,0.0,0.0,5.11416139037,-0.00477509934204,8.45029795439,0.0,0.0,0.0,0.0,0.0,0.0,0.0,0.0,0.0
23268000000,156,23268000000,imu_link,-0.000212050867908,-0.360849577781,-0.000160016956662,0.932623992638,0.0,0.0,0.0,0.0,0.0,0.0,0.0,0.0,0.0,-0.00123680703641,-0.152080436229,0.000359787779301,0.0,0.0,0.0,0.0,0.0,0.0,0.0,0.0,0.0,5.11688253568,-0.00477904522748,8.43583922111,0.0,0.0,0.0,0.0,0.0,0.0,0.0,0.0,0.0
23272000000,157,23272000000,imu_link,-0.000215604313798,-0.361124415826,-0.000160434834187,0.932517605233,0.0,0.0,0.0,0.0,0.0,0.0,0.0,0.0,0.0,-0.00172170038274,-0.147355448764,0.000408616722253,0.0,0.0,0.0,0.0,0.0,0.0,0.0,0.0,0.0,5.12095525166,-0.00505072175104,8.4239666304,0.0,0.0,0.0,0.0,0.0,0.0,0.0,0.0,0.0
23276000000,158,23276000000,imu_link,-0.000219954522849,-0.361390334378,-0.000161100205306,0.932414581549,0.0,0.0,0.0,0.0,0.0,0.0,0.0,0.0,0.0,-0.00213823910481,-0.142589332618,0.000438317340192,0.0,0.0,0.0,0.0,0.0,0.0,0.0,0.0,0.0,5.12342467008,-0.00536144387683,8.40925604001,0.0,0.0,0.0,0.0,0.0,0.0,0.0,0.0,0.0
23280000000,159,23280000000,imu_link,-0.000224748526834,-0.361647379626,-0.000161982248719,0.932314912495,0.0,0.0,0.0,0.0,0.0,0.0,0.0,0.0,0.0,-0.00238463699055,-0.137846379196,0.000418740812741,0.0,0.0,0.0,0.0,0.0,0.0,0.0,0.0,0.0,5.12633233526,-0.0055206588793,8.398220135,0.0,0.0,0.0,0.0,0.0,0.0,0.0,0.0,0.0
23284000000,160,23284000000,imu_link,-0.000229355842253,-0.361895776549,-0.00016297690119,0.932218519313,0.0,0.0,0.0,0.0,0.0,0.0,0.0,0.0,0.0,-0.00231830541506,-0.133222514764,0.000333726706937,0.0,0.0,0.0,0.0,0.0,0.0,0.0,0.0,0.0,5.12963901657,-0.005689633471,8.38980296653,0.0,0.0,0.0,0.0,0.0,0.0,0.0,0.0,0.0
23288000000,161,23288000000,imu_link,-0.000233212626928,-0.362135744799,-0.000163915189258,0.932125324773,0.0,0.0,0.0,0.0,0.0,0.0,0.0,0.0,0.0,-0.00195859707409,-0.128714989656,0.000225418954528,0.0,0.0,0.0,0.0,0.0,0.0,0.0,0.0,0.0,5.13254918155,-0.00532997894715,8.38040884146,0.0,0.0,0.0,0.0,0.0,0.0,0.0,0.0,0.0
23292000000,162,23292000000,imu_link,-0.000236205302667,-0.362367281115,-0.000164733657908,0.93203533766,0.0,0.0,0.0,0.0,0.0,0.0,0.0,0.0,0.0,-0.00153448975297,-0.124204360468,0.000126046030993,0.0,0.0,0.0,0.0,0.0,0.0,0.0,0.0,0.0,5.13567470461,-0.00484894035098,8.37181879468,0.0,0.0,0.0,0.0,0.0,0.0,0.0,0.0,0.0
23296000000,163,23296000000,imu_link,-0.000238243410695,-0.362590288825,-0.000165320081175,0.931948602853,0.0,0.0,0.0,0.0,0.0,0.0,0.0,0.0,0.0,-0.00104791985713,-0.119640563333,6.25063571751e-05,0.0,0.0,0.0,0.0,0.0,0.0,0.0,0.0,0.0,5.13780475761,-0.00454363363088,8.35924260557,0.0,0.0,0.0,0.0,0.0,0.0,0.0,0.0,0.0
23300000000,164,23300000000,imu_link,-0.000239289044622,-0.362804680766,-0.00016566369731,0.931865161335,0.0,0.0,0.0,0.0,0.0,0.0,0.0,0.0,0.0,-0.000541752539049,-0.115028725716,-2.98394746535e-06,0.0,0.0,0.0,0.0,0.0,0.0,0.0,0.0,0.0,5.1401644003,-0.00459148040906,8.3478276876,0.0,0.0,0.0,0.0,0.0,0.0,0.0,0.0,0.0
23304000000,165,23304000000,imu_link,-0.000239175368298,-0.36301041221,-0.000165757431054,0.931785037413,0.0,0.0,0.0,0.0,0.0,0.0,0.0,0.0,0.0,4.34167107006e-05,-0.110391631497,-9.55462117781e-05,0.0,0.0,0.0,0.0,0.0,0.0,0.0,0.0,0.0,5.14290113672,-0.0045713487427,8.33788428886,0.0,0.0,0.0,0.0,0.0,0.0,0.0,0.0,0.0
23308000000,166,23308000000,imu_link,-0.00023766786696,-0.363207405964,-0.000165572419655,0.931708267835,0.0,0.0,0.0,0.0,0.0,0.0,0.0,0.0,0.0,0.000743060037344,-0.105711893728,-0.000217344510027,0.0,0.0,0.0,0.0,0.0,0.0,0.0,0.0,0.0,5.1448033781,-0.00453198214272,8.32596051491,0.0,0.0,0.0,0.0,0.0,0.0,0.0,0.0,0.0
23312000000,167,23312000000,imu_link,-0.000234902133975,-0.36339563203,-0.000165162462622,0.931634870625,0.0,0.0,0.0,0.0,0.0,0.0,0.0,0.0,0.0,0.00136973833084,-0.101014918262,-0.000339731100641,0.0,0.0,0.0,0.0,0.0,0.0,0.0,0.0,0.0,5.14949158889,-0.00416760617526,8.31935433757,0.0,0.0,0.0,0.0,0.0,0.0,0.0,0.0,0.0
23316000000,168,23316000000,imu_link,-0.000230943429921,-0.363574992194,-0.000164547764247,0.931564890193,0.0,0.0,0.0,0.0,0.0,0.0,0.0,0.0,0.0,0.00196231526504,-0.0962641299265,-0.000459795781319,0.0,0.0,0.0,0.0,0.0,0.0,0.0,0.0,0.0,5.15397065135,-0.00395606032077,8.30863205571,0.0,0.0,0.0,0.0,0.0,0.0,0.0,0.0,0.0
23320000000,169,23320000000,imu_link,-0.000226171177269,-0.363745480075,-0.000163792871252,0.931498334804,0.0,0.0,0.0,0.0,0.0,0.0,0.0,0.0,0.0,0.00236640309115,-0.0915088957134,-0.000541082262826,0.0,0.0,0.0,0.0,0.0,0.0,0.0,0.0,0.0,5.15836512097,-0.00374080884455,8.29904814039,0.0,0.0,0.0,0.0,0.0,0.0,0.0,0.0,0.0
23324000000,170,23324000000,imu_link,-0.000221248242441,-0.363907088601,-0.000163033022948,0.931435212635,0.0,0.0,0.0,0.0,0.0,0.0,0.0,0.0,0.0,0.00243714548168,-0.0867489223919,-0.000564894015862,0.0,0.0,0.0,0.0,0.0,0.0,0.0,0.0,0.0,5.16372849961,-0.00365762771005,8.29322234727,0.0,0.0,0.0,0.0,0.0,0.0,0.0,0.0,0.0
23328000000,171,23328000000,imu_link,-0.000216567304814,-0.364059859686,-0.000162363405132,0.931375512509,0.0,0.0,0.0,0.0,0.0,0.0,0.0,0.0,0.0,0.00230768352491,-0.0820105269998,-0.000561627105789,0.0,0.0,0.0,0.0,0.0,0.0,0.0,0.0,0.0,5.16792295891,-0.00373624982514,8.28455281259,0.0,0.0,0.0,0.0,0.0,0.0,0.0,0.0,0.0
23332000000,172,23332000000,imu_link,-0.000212258415787,-0.364203893104,-0.000161830322606,0.931319200385,0.0,0.0,0.0,0.0,0.0,0.0,0.0,0.0,0.0,0.00210922905827,-0.0773248001494,-0.000556264747163,0.0,0.0,0.0,0.0,0.0,0.0,0.0,0.0,0.0,5.17192968286,-0.00391412724658,8.27581198361,0.0,0.0,0.0,0.0,0.0,0.0,0.0,0.0,0.0
23336000000,173,23336000000,imu_link,-0.00020833251453,-0.364339549042,-0.000161443563248,0.931266140014,0.0,0.0,0.0,0.0,0.0,0.0,0.0,0.0,0.0,0.0019039086291,-0.0728316108448,-0.00055350650448,0.0,0.0,0.0,0.0,0.0,0.0,0.0,0.0,0.0,5.17606326804,-0.00372476673741,8.26936213573,0.0,0.0,0.0,0.0,0.0,0.0,0.0,0.0,0.0
23340000000,174,23340000000,imu_link,-0.000204604160435,-0.364467612229,-0.000161171766799,0.931216028533,0.0,0.0,0.0,0.0,0.0,0.0,0.0,0.0,0.0,0.00179067564123,-0.0687589800469,-0.000570020966425,0.0,0.0,0.0,0.0,0.0,0.0,0.0,0.0,0.0,5.18148033619,-0.00352030954803,8.26982786783,0.0,0.0,0.0,0.0,0.0,0.0,0.0,0.0,0.0
23344000000,175,23344000000,imu_link,-0.000200898314038,-0.364588639565,-0.000160992468914,0.931168651546,0.0,0.0,0.0,0.0,0.0,0.0,0.0,0.0,0.0,0.00176305226317,-0.0649847066454,-0.000608047231366,0.0,0.0,0.0,0.0,0.0,0.0,0.0,0.0,0.0,5.18633913062,-0.00361404383058,8.26845408286,0.0,0.0,0.0,0.0,0.0,0.0,0.0,0.0,0.0
23348000000,176,23348000000,imu_link,-0.000196845938971,-0.36470286263,-0.000160860674652,0.931123921594,0.0,0.0,0.0,0.0,0.0,0.0,0.0,0.0,0.0,0.00191544911401,-0.061334172166,-0.000692437822084,0.0,0.0,0.0,0.0,0.0,0.0,0.0,0.0,0.0,5.18990319825,-0.00378335730057,8.26179005232,0.0,0.0,0.0,0.0,0.0,0.0,0.0,0.0,0.0
23352000000,177,23352000000,imu_link,-0.000191926069576,-0.364810291211,-0.000160659056371,0.931081837853,0.0,0.0,0.0,0.0,0.0,0.0,0.0,0.0,0.0,0.00233176795055,-0.0576883161788,-0.00081723767898,0.0,0.0,0.0,0.0,0.0,0.0,0.0,0.0,0.0,5.19389837005,-0.00390462985381,8.25455457264,0.0,0.0,0.0,0.0,0.0,0.0,0.0,0.0,0.0
23356000000,178,23356000000,imu_link,-0.00018579716077,-0.364910836256,-0.000160310701395,0.931042438003,0.0,0.0,0.0,0.0,0.0,0.0,0.0,0.0,0.0,0.00292109540169,-0.0539941089627,-0.000968584591834,0.0,0.0,0.0,0.0,0.0,0.0,0.0,0.0,0.0,5.1978977105,-0.00392699184836,8.24506150257,0.0,0.0,0.0,0.0,0.0,0.0,0.0,0.0,0.0
23360000000,179,23360000000,imu_link,-0.000178638418838,-0.365004449044,-0.000159868301455,0.931005743649,0.0,0.0,0.0,0.0,0.0,0.0,0.0,0.0,0.0,0.00341735926644,-0.050273290776,-0.00111184244276,0.0,0.0,0.0,0.0,0.0,0.0,0.0,0.0,0.0,5.20323081664,-0.00366924597844,8.23665713913,0.0,0.0,0.0,0.0,0.0,0.0,0.0,0.0,0.0
23364000000,180,23364000000,imu_link,-0.000171020777883,-0.365091207405,-0.000159430045,0.930971726536,0.0,0.0,0.0,0.0,0.0,0.0,0.0,0.0,0.0,0.00362991310895,-0.0465938951828,-0.00119669510423,0.0,0.0,0.0,0.0,0.0,0.0,0.0,0.0,0.0,5.21046332684,-0.00348466007297,8.23348691836,0.0,0.0,0.0,0.0,0.0,0.0,0.0,0.0,0.0
23368000000,181,23368000000,imu_link,-0.000163702310282,-0.365171537848,-0.000159110203361,0.930940221406,0.0,0.0,0.0,0.0,0.0,0.0,0.0,0.0,0.0,0.00346873843463,-0.0431432530555,-0.0011964528488,0.0,0.0,0.0,0.0,0.0,0.0,0.0,0.0,0.0,5.21718994948,-0.00333512538713,8.23184293426,0.0,0.0,0.0,0.0,0.0,0.0,0.0,0.0,0.0
23372000000,182,23372000000,imu_link,-0.000157260476413,-0.36524626029,-0.000159016920977,0.930910908373,0.0,0.0,0.0,0.0,0.0,0.0,0.0,0.0,0.0,0.00301905841515,-0.0401327011875,-0.00114121515163,0.0,0.0,0.0,0.0,0.0,0.0,0.0,0.0,0.0,5.22471691647,-0.00332140176909,8.23512035307,0.0,0.0,0.0,0.0,0.0,0.0,0.0,0.0,0.0
23376000000,183,23376000000,imu_link,-0.000151689112009,-0.365316248467,-0.000159129010853,0.930883446128,0.0,0.0,0.0,0.0,0.0,0.0,0.0,0.0,0.0,0.00257615704169,-0.0375911681182,-0.0010773195221,0.0,0.0,0.0,0.0,0.0,0.0,0.0,0.0,0.0,5.22994842772,-0.00347659799738,8.2310996477,0.0,0.0,0.0,0.0,0.0,0.0,0.0,0.0,0.0
23380000000,184,23380000000,imu_link,-0.000146567760283,-0.365382069613,-0.000159312964291,0.930857613356,0.0,0.0,0.0,0.0,0.0,0.0,0.0,0.0,0.0,0.00235336793973,-0.0353540520494,-0.00102812365484,0.0,0.0,0.0,0.0,0.0,0.0,0.0,0.0,0.0,5.23596065868,-0.00356937007993,8.22678855781,0.0,0.0,0.0,0.0,0.0,0.0,0.0,0.0,0.0
23384000000,185,23384000000,imu_link,-0.000141703853543,-0.365443774015,-0.000159502535939,0.930833391383,0.0,0.0,0.0,0.0,0.0,0.0,0.0,0.0,0.0,0.00223230934981,-0.0331437421939,-0.000983275638683,0.0,0.0,0.0,0.0,0.0,0.0,0.0,0.0,0.0,5.2420291522,-0.00358023465323,8.22000220188,0.0,0.0,0.0,0.0,0.0,0.0,0.0,0.0,0.0
23388000000,186,23388000000,imu_link,-0.000137212292883,-0.365501097495,-0.000159700234292,0.930810884873,0.0,0.0,0.0,0.0,0.0,0.0,0.0,0.0,0.0,0.00205730049903,-0.0307913643051,-0.000918574956919,0.0,0.0,0.0,0.0,0.0,0.0,0.0,0.0,0.0,5.24761845775,-0.00350647013516,8.21148835079,0.0,0.0,0.0,0.0,0.0,0.0,0.0,0.0,0.0
23392000000,187,23392000000,imu_link,-0.00013337748357,-0.365554030521,-0.000159931373233,0.930790098466,0.0,0.0,0.0,0.0,0.0,0.0,0.0,0.0,0.0,0.00174530099273,-0.028433723947,-0.00081367815706,0.0,0.0,0.0,0.0,0.0,0.0,0.0,0.0,0.0,5.25393804925,-0.003731436565,8.20803689639,0.0,0.0,0.0,0.0,0.0,0.0,0.0,0.0,0.0
23396000000,188,23396000000,imu_link,-0.000130286794372,-0.36560302502,-0.000160193152044,0.930770855506,0.0,0.0,0.0,0.0,0.0,0.0,0.0,0.0,0.0,0.00139317889348,-0.0263187034064,-0.000691543667967,0.0,0.0,0.0,0.0,0.0,0.0,0.0,0.0,0.0,5.25889597048,-0.00388631173561,8.2037767564,0.0,0.0,0.0,0.0,0.0,0.0,0.0,0.0,0.0
23400000000,189,23400000000,imu_link,-0.000127822982498,-0.365648977002,-0.000160467983733,0.930752804738,0.0,0.0,0.0,0.0,0.0,0.0,0.0,0.0,0.0,0.00109888720411,-0.0246848752709,-0.000582730473953,0.0,0.0,0.0,0.0,0.0,0.0,0.0,0.0,0.0,5.26583272446,-0.00406384457675,8.20791272601,0.0,0.0,0.0,0.0,0.0,0.0,0.0,0.0,0.0
23404000000,190,23404000000,imu_link,-0.000125493818893,-0.365692657148,-0.000160691555463,0.93073564396,0.0,0.0,0.0,0.0,0.0,0.0,0.0,0.0,0.0,0.00104547125432,-0.0234649181896,-0.000534041693865,0.0,0.0,0.0,0.0,0.0,0.0,0.0,0.0,0.0,5.27371718438,-0.00422596599769,8.21266491888,0.0,0.0,0.0,0.0,0.0,0.0,0.0,0.0,0.0
23408000000,191,23408000000,imu_link,-0.000122817352346,-0.365734212282,-0.000160771952504,0.930719315924,0.0,0.0,0.0,0.0,0.0,0.0,0.0,0.0,0.0,0.00123315535074,-0.0223237237152,-0.000530715622963,0.0,0.0,0.0,0.0,0.0,0.0,0.0,0.0,0.0,5.2801842369,-0.00429159535222,8.20884190945,0.0,0.0,0.0,0.0,0.0,0.0,0.0,0.0,0.0
23412000000,192,23412000000,imu_link,-0.000119709928196,-0.365773578754,-0.00016067602324,0.930703845989,0.0,0.0,0.0,0.0,0.0,0.0,0.0,0.0,0.0,0.00146582667222,-0.0211482665139,-0.000527265061404,0.0,0.0,0.0,0.0,0.0,0.0,0.0,0.0,0.0,5.2859997749,-0.00428221155868,8.20083739329,0.0,0.0,0.0,0.0,0.0,0.0,0.0,0.0,0.0
23416000000,193,23416000000,imu_link,-0.000116373190569,-0.365810517459,-0.000160441434131,0.930689328419,0.0,0.0,0.0,0.0,0.0,0.0,0.0,0.0,0.0,0.00159775915468,-0.0198443149116,-0.000504456016829,0.0,0.0,0.0,0.0,0.0,0.0,0.0,0.0,0.0,5.29169896018,-0.00419807794577,8.19188804834,0.0,0.0,0.0,0.0,0.0,0.0,0.0,0.0,0.0
23420000000,194,23420000000,imu_link,-0.000112982572242,-0.365844758327,-0.000160105456728,0.930675869681,0.0,0.0,0.0,0.0,0.0,0.0,0.0,0.0,0.0,0.00164122189077,-0.0183952267802,-0.000466888659983,0.0,0.0,0.0,0.0,0.0,0.0,0.0,0.0,0.0,5.29741072063,-0.00413025394141,8.18266643494,0.0,0.0,0.0,0.0,0.0,0.0,0.0,0.0,0.0
23424000000,195,23424000000,imu_link,-0.000109579834157,-0.36587614218,-0.000159658598144,0.930663532693,0.0,0.0,0.0,0.0,0.0,0.0,0.0,0.0,0.0,0.00166697898012,-0.0168605615246,-0.000417257219302,0.0,0.0,0.0,0.0,0.0,0.0,0.0,0.0,0.0,5.30377029062,-0.00409916220305,8.17595920528,0.0,0.0,0.0,0.0,0.0,0.0,0.0,0.0,0.0
23428000000,196,23428000000,imu_link,-0.000106168125022,-0.365904719853,-0.000159051963474,0.93065229781,0.0,0.0,0.0,0.0,0.0,0.0,0.0,0.0,0.0,0.00170021899265,-0.0153531477527,-0.000344307747355,0.0,0.0,0.0,0.0,0.0,0.0,0.0,0.0,0.0,5.30944617033,-0.00397031397416,8.16863916339,0.0,0.0,0.0,0.0,0.0,0.0,0.0,0.0,0.0
23432000000,197,23432000000,imu_link,-0.000102882510895,-0.365930836503,-0.00015829935661,0.930642029597,0.0,0.0,0.0,0.0,0.0,0.0,0.0,0.0,0.0,0.00166810524483,-0.0140311326869,-0.000253106172374,0.0,0.0,0.0,0.0,0.0,0.0,0.0,0.0,0.0,5.31639314393,-0.00382808484459,8.16709084042,0.0,0.0,0.0,0.0,0.0,0.0,0.0,0.0,0.0
23436000000,198,23436000000,imu_link,-9.99619013294e-05,-0.36595477568,-0.000157474433993,0.930632616754,0.0,0.0,0.0,0.0,0.0,0.0,0.0,0.0,0.0,0.00151136388888,-0.012861438264,-0.000152493206052,0.0,0.0,0.0,0.0,0.0,0.0,0.0,0.0,0.0,5.32246170707,-0.00376264413089,8.16317981355,0.0,0.0,0.0,0.0,0.0,0.0,0.0,0.0,0.0
23440000000,199,23440000000,imu_link,-9.7386029399e-05,-0.365976875389,-0.00015658967057,0.930623926555,0.0,0.0,0.0,0.0,0.0,0.0,0.0,0.0,0.0,0.00136179264291,-0.011873306416,-6.14202744381e-05,0.0,0.0,0.0,0.0,0.0,0.0,0.0,0.0,0.0,5.32913984446,-0.00394034816664,8.16160107558,0.0,0.0,0.0,0.0,0.0,0.0,0.0,0.0,0.0
23444000000,200,23444000000,imu_link,-9.48524527731e-05,-0.365997178567,-0.000155594413805,0.930615942306,0.0,0.0,0.0,0.0,0.0,0.0,0.0,0.0,0.0,0.00136222485168,-0.0109081866625,-2.12409729929e-06,0.0,0.0,0.0,0.0,0.0,0.0,0.0,0.0,0.0,5.33575259742,-0.00412607717528,8.15820017881,0.0,0.0,0.0,0.0,0.0,0.0,0.0,0.0,0.0
23448000000,201,23448000000,imu_link,-9.17358995282e-05,-0.366015772051,-0.000154373203114,0.930608630071,0.0,0.0,0.0,0.0,0.0,0.0,0.0,0.0,0.0,0.00167473663082,-0.00998964032868,-3.53646848771e-06,0.0,0.0,0.0,0.0,0.0,0.0,0.0,0.0,0.0,5.34230605525,-0.00431017700224,8.15489438539,0.0,0.0,0.0,0.0,0.0,0.0,0.0,0.0,0.0
23452000000,202,23452000000,imu_link,-8.74813474828e-05,-0.366032715196,-0.000152850906641,0.930601966681,0.0,0.0,0.0,0.0,0.0,0.0,0.0,0.0,0.0,0.00225925583278,-0.0091029131893,-7.15769300684e-05,0.0,0.0,0.0,0.0,0.0,0.0,0.0,0.0,0.0,5.3499900961,-0.00434057234668,8.15450122646,0.0,0.0,0.0,0.0,0.0,0.0,0.0,0.0,0.0
23456000000,203,23456000000,imu_link,-8.18377268528e-05,-0.366047990817,-0.000151007872943,0.930595959006,0.0,0.0,0.0,0.0,0.0,0.0,0.0,0.0,0.0,0.00296419221009,-0.00820691341433,-0.000176436804433,0.0,0.0,0.0,0.0,0.0,0.0,0.0,0.0,0.0,5.35575944875,-0.00422405249359,8.14794396676,0.0,0.0,0.0,0.0,0.0,0.0,0.0,0.0,0.0
23460000000,204,23460000000,imu_link,-7.49620412879e-05,-0.36606145653,-0.000148900802243,0.930590663102,0.0,0.0,0.0,0.0,0.0,0.0,0.0,0.0,0.0,0.00358568711157,-0.00723441349877,-0.000278950567245,0.0,0.0,0.0,0.0,0.0,0.0,0.0,0.0,0.0,5.36053702883,-0.00401007211615,8.137854913,0.0,0.0,0.0,0.0,0.0,0.0,0.0,0.0,0.0
23464000000,205,23464000000,imu_link,-6.73926635818e-05,-0.366072942255,-0.000146658309112,0.930586145877,0.0,0.0,0.0,0.0,0.0,0.0,0.0,0.0,0.0,0.00393312706732,-0.00617056608813,-0.000342773935321,0.0,0.0,0.0,0.0,0.0,0.0,0.0,0.0,0.0,5.36707021552,-0.00375167918627,8.13312151137,0.0,0.0,0.0,0.0,0.0,0.0,0.0,0.0,0.0
23468000000,206,23468000000,imu_link,-5.9691801176e-05,-0.366082334152,-0.000144433158187,0.930582452122,0.0,0.0,0.0,0.0,0.0,0.0,0.0,0.0,0.0,0.00399100594036,-0.00504558625456,-0.000374778699931,0.0,0.0,0.0,0.0,0.0,0.0,0.0,0.0,0.0,5.37454959228,-0.00357628439689,8.13149210383,0.0,0.0,0.0,0.0,0.0,0.0,0.0,0.0,0.0
23472000000,207,23472000000,imu_link,-5.20419437385e-05,-0.366089766459,-0.000142268028132,0.930579529081,0.0,0.0,0.0,0.0,0.0,0.0,0.0,0.0,0.0,0.00395616897356,-0.00399273639982,-0.000393255731703,0.0,0.0,0.0,0.0,0.0,0.0,0.0,0.0,0.0,5.38093176925,-0.00352918513108,8.12801327409,0.0,0.0,0.0,0.0,0.0,0.0,0.0,0.0,0.0
23476000000,208,23476000000,imu_link,-4.4426974724e-05,-0.3660953769,-0.000140125066563,0.930577322636,0.0,0.0,0.0,0.0,0.0,0.0,0.0,0.0,0.0,0.00393576696957,-0.00301387326617,-0.000397085972349,0.0,0.0,0.0,0.0,0.0,0.0,0.0,0.0,0.0,5.38671834877,-0.00350157050378,8.12287444211,0.0,0.0,0.0,0.0,0.0,0.0,0.0,0.0,0.0
23480000000,209,23480000000,imu_link,-3.67077281724e-05,-0.366099253747,-0.000137926257518,0.930575798113,0.0,0.0,0.0,0.0,0.0,0.0,0.0,0.0,0.0,0.00399440256431,-0.0020824216701,-0.00039010225122,0.0,0.0,0.0,0.0,0.0,0.0,0.0,0.0,0.0,5.39304657747,-0.00353320122847,8.11914868518,0.0,0.0,0.0,0.0,0.0,0.0,0.0,0.0,0.0
23484000000,210,23484000000,imu_link,-2.87913249176e-05,-0.366101251435,-0.000135621227912,0.930575012815,0.0,0.0,0.0,0.0,0.0,0.0,0.0,0.0,0.0,0.0041054648015,-0.00107274472766,-0.000376683101219,0.0,0.0,0.0,0.0,0.0,0.0,0.0,0.0,0.0,5.39833336775,-0.00362476992718,8.11137443955,0.0,0.0,0.0,0.0,0.0,0.0,0.0,0.0,0.0
23488000000,211,23488000000,imu_link,-2.06146979333e-05,-0.366101298455,-0.000133192029335,0.930574994885,0.0,0.0,0.0,0.0,0.0,0.0,0.0,0.0,0.0,0.00424915163042,-2.46407198297e-05,-0.000366462829912,0.0,0.0,0.0,0.0,0.0,0.0,0.0,0.0,0.0,5.40382030107,-0.00368481200272,8.1048369206,0.0,0.0,0.0,0.0,0.0,0.0,0.0,0.0,0.0
23492000000,212,23492000000,imu_link,-1.23217473369e-05,-0.366099581829,-0.000130685786995,0.93057567073,0.0,0.0,0.0,0.0,0.0,0.0,0.0,0.0,0.0,0.00431726816267,0.000922965282456,-0.000351844062022,0.0,0.0,0.0,0.0,0.0,0.0,0.0,0.0,0.0,5.41039937017,-0.00366985648743,8.10300450414,0.0,0.0,0.0,0.0,0.0,0.0,0.0,0.0,0.0
23496000000,213,23496000000,imu_link,-3.99364941735e-06,-0.366096579787,-0.000128143543514,0.93057685219,0.0,0.0,0.0,0.0,0.0,0.0,0.0,0.0,0.0,0.00434013090834,0.00161360782939,-0.000341485921275,0.0,0.0,0.0,0.0,0.0,0.0,0.0,0.0,0.0,5.41693309737,-0.0036655949962,8.10239722003,0.0,0.0,0.0,0.0,0.0,0.0,0.0,0.0,0.0
23500000000,214,23500000000,imu_link,4.26715820271e-06,-0.36609280597,-0.000125618645598,0.930578337175,0.0,0.0,0.0,0.0,0.0,0.0,0.0,0.0,0.0,0.0043055975917,0.00202826190734,-0.000337218249475,0.0,0.0,0.0,0.0,0.0,0.0,0.0,0.0,0.0,5.4233545801,-0.00369323726269,8.10167789202,0.0,0.0,0.0,0.0,0.0,0.0,0.0,0.0,0.0
23504000000,215,23504000000,imu_link,1.24202361998e-05,-0.366088458974,-0.000123115119685,0.930580047548,0.0,0.0,0.0,0.0,0.0,0.0,0.0,0.0,0.0,0.004251523615,0.00233620519083,-0.00032742995724,0.0,0.0,0.0,0.0,0.0,0.0,0.0,0.0,0.0,5.42906065447,-0.00375507431955,8.09697770205,0.0,0.0,0.0,0.0,0.0,0.0,0.0,0.0,0.0
23508000000,216,23508000000,imu_link,2.01936120987e-05,-0.366083540604,-0.0001206813176,0.930581982593,0.0,0.0,0.0,0.0,0.0,0.0,0.0,0.0,0.0,0.00406205290466,0.00264316076203,-0.000290359198941,0.0,0.0,0.0,0.0,0.0,0.0,0.0,0.0,0.0,5.43484457389,-0.00379464545522,8.09161049384,0.0,0.0,0.0,0.0,0.0,0.0,0.0,0.0,0.0
23512000000,217,23512000000,imu_link,2.7279158199e-05,-0.366077961832,-0.000118387920171,0.930584177332,0.0,0.0,0.0,0.0,0.0,0.0,0.0,0.0,0.0,0.00371626950784,0.00299793223474,-0.000229777634283,0.0,0.0,0.0,0.0,0.0,0.0,0.0,0.0,0.0,5.44039750735,-0.00383342770592,8.08523814556,0.0,0.0,0.0,0.0,0.0,0.0,0.0,0.0,0.0
23516000000,218,23516000000,imu_link,3.36243620432e-05,-0.3660719253,-0.000116234057099,0.930586552055,0.0,0.0,0.0,0.0,0.0,0.0,0.0,0.0,0.0,0.00334622433506,0.00324382214024,-0.000159185964602,0.0,0.0,0.0,0.0,0.0,0.0,0.0,0.0,0.0,5.44553200227,-0.00394721709741,8.07946856104,0.0,0.0,0.0,0.0,0.0,0.0,0.0,0.0,0.0
23520000000,219,23520000000,imu_link,3.92051503015e-05,-0.366065914516,-0.000114212227026,0.930588916573,0.0,0.0,0.0,0.0,0.0,0.0,0.0,0.0,0.0,0.00296638178367,0.00322992749551,-8.07046487947e-05,0.0,0.0,0.0,0.0,0.0,0.0,0.0,0.0,0.0,5.45118910949,-0.00404497083327,8.07680750149,0.0,0.0,0.0,0.0,0.0,0.0,0.0,0.0,0.0
23524000000,220,23524000000,imu_link,4.39677494764e-05,-0.366060309186,-0.000112354520111,0.930591121536,0.0,0.0,0.0,0.0,0.0,0.0,0.0,0.0,0.0,0.00255566927213,0.00301201863857,-7.31584016438e-06,0.0,0.0,0.0,0.0,0.0,0.0,0.0,0.0,0.0,5.45845825155,-0.0041458355899,8.07782306139,0.0,0.0,0.0,0.0,0.0,0.0,0.0,0.0,0.0
23528000000,221,23528000000,imu_link,4.79807193549e-05,-0.366055083093,-0.000110667092637,0.930593177276,0.0,0.0,0.0,0.0,0.0,0.0,0.0,0.0,0.0,0.00217572840068,0.0028082026783,5.06586113518e-05,0.0,0.0,0.0,0.0,0.0,0.0,0.0,0.0,0.0,5.46429076757,-0.00431343479537,8.07235973707,0.0,0.0,0.0,0.0,0.0,0.0,0.0,0.0,0.0
23532000000,222,23532000000,imu_link,5.1423619199e-05,-0.366049805829,-0.000109104604601,0.930595253107,0.0,0.0,0.0,0.0,0.0,0.0,0.0,0.0,0.0,0.00188760608672,0.00283565513288,9.6863118098e-05,0.0,0.0,0.0,0.0,0.0,0.0,0.0,0.0,0.0,5.46993676389,-0.00452824883325,8.06412857619,0.0,0.0,0.0,0.0,0.0,0.0,0.0,0.0,0.0
23536000000,223,23536000000,imu_link,5.45052030957e-05,-0.3660440744,-0.00010760455557,0.930597507544,0.0,0.0,0.0,0.0,0.0,0.0,0.0,0.0,0.0,0.0017080293733,0.00307964478038,0.000133938279959,0.0,0.0,0.0,0.0,0.0,0.0,0.0,0.0,0.0,5.4749860978,-0.00467341231154,8.05475625329,0.0,0.0,0.0,0.0,0.0,0.0,0.0,0.0,0.0
23540000000,224,23540000000,imu_link,5.73004160491e-05,-0.366037705982,-0.000106130402089,0.930600012493,0.0,0.0,0.0,0.0,0.0,0.0,0.0,0.0,0.0,0.00157000077521,0.0034218689387,0.000174297424487,0.0,0.0,0.0,0.0,0.0,0.0,0.0,0.0,0.0,5.48028644101,-0.00473281540424,8.04753278535,0.0,0.0,0.0,0.0,0.0,0.0,0.0,0.0,0.0
23544000000,225,23544000000,imu_link,5.95772558459e-05,-0.366030881352,-0.000104681773707,0.930602696853,0.0,0.0,0.0,0.0,0.0,0.0,0.0,0.0,0.0,0.00132410081881,0.0036669510246,0.000257289106204,0.0,0.0,0.0,0.0,0.0,0.0,0.0,0.0,0.0,5.48700139529,-0.00472261540452,8.04682961355,0.0,0.0,0.0,0.0,0.0,0.0,0.0,0.0,0.0
23548000000,226,23548000000,imu_link,6.09817642397e-05,-0.366023739595,-0.000103268273677,0.930605505931,0.0,0.0,0.0,0.0,0.0,0.0,0.0,0.0,0.0,0.000911754495909,0.00383728926752,0.000400591033872,0.0,0.0,0.0,0.0,0.0,0.0,0.0,0.0,0.0,5.49348814271,-0.00474148970233,8.04541192207,0.0,0.0,0.0,0.0,0.0,0.0,0.0,0.0,0.0
23552000000,227,23552000000,imu_link,6.13439190218e-05,-0.366016128815,-0.000101897478961,0.930608499478,0.0,0.0,0.0,0.0,0.0,0.0,0.0,0.0,0.0,0.000418899069206,0.00408923209611,0.000571478440908,0.0,0.0,0.0,0.0,0.0,0.0,0.0,0.0,0.0,5.49888835242,-0.00483093801442,8.03905971034,0.0,0.0,0.0,0.0,0.0,0.0,0.0,0.0,0.0
23556000000,228,23556000000,imu_link,6.07187550002e-05,-0.366007476431,-0.000100550632518,0.930611902674,0.0,0.0,0.0,0.0,0.0,0.0,0.0,0.0,0.0,-4.4952926117e-05,0.00464881260967,0.000741011434359,0.0,0.0,0.0,0.0,0.0,0.0,0.0,0.0,0.0,5.50443834551,-0.00496800004569,8.03071821326,0.0,0.0,0.0,0.0,0.0,0.0,0.0,0.0,0.0
23560000000,229,23560000000,imu_link,5.9295354117e-05,-0.365997136065,-9.91973891311e-05,0.930615969687,0.0,0.0,0.0,0.0,0.0,0.0,0.0,0.0,0.0,-0.000415311640774,0.00555568199305,0.00089005042737,0.0,0.0,0.0,0.0,0.0,0.0,0.0,0.0,0.0,5.5103795798,-0.00512264076202,8.0233643704,0.0,0.0,0.0,0.0,0.0,0.0,0.0,0.0,0.0
23564000000,230,23564000000,imu_link,5.71760201288e-05,-0.365984916686,-9.78340159119e-05,0.930620775568,0.0,0.0,0.0,0.0,0.0,0.0,0.0,0.0,0.0,-0.000737396229007,0.00656517946063,0.00102209961951,0.0,0.0,0.0,0.0,0.0,0.0,0.0,0.0,0.0,5.51574081293,-0.00523438170067,8.01766547314,0.0,0.0,0.0,0.0,0.0,0.0,0.0,0.0,0.0
23568000000,231,23568000000,imu_link,5.4205796684e-05,-0.365971226633,-9.65335726836e-05,0.930626159647,0.0,0.0,0.0,0.0,0.0,0.0,0.0,0.0,0.0,-0.00114492811631,0.00735526170062,0.00114851023471,0.0,0.0,0.0,0.0,0.0,0.0,0.0,0.0,0.0,5.52130565646,-0.00525644838936,8.01633310284,0.0,0.0,0.0,0.0,0.0,0.0,0.0,0.0,0.0
23572000000,232,23572000000,imu_link,5.03251363038e-05,-0.365956796249,-9.53804497187e-05,0.930631834642,0.0,0.0,0.0,0.0,0.0,0.0,0.0,0.0,0.0,-0.00159556743755,0.00775293255497,0.00124655102661,0.0,0.0,0.0,0.0,0.0,0.0,0.0,0.0,0.0,5.52788342149,-0.00531264996592,8.01971317337,0.0,0.0,0.0,0.0,0.0,0.0,0.0,0.0,0.0
23576000000,233,23576000000,imu_link,4.54820678772e-05,-0.365942401614,-9.44684083787e-05,0.930637495327,0.0,0.0,0.0,0.0,0.0,0.0,0.0,0.0,0.0,-0.00208750188521,0.00773362805392,0.00131047200898,0.0,0.0,0.0,0.0,0.0,0.0,0.0,0.0,0.0,5.53332576096,-0.00540489476455,8.01999719881,0.0,0.0,0.0,0.0,0.0,0.0,0.0,0.0,0.0
23580000000,234,23580000000,imu_link,3.96645089857e-05,-0.365928325982,-9.38601321808e-05,0.930643030308,0.0,0.0,0.0,0.0,0.0,0.0,0.0,0.0,0.0,-0.00259651291429,0.00756213671589,0.00134742940096,0.0,0.0,0.0,0.0,0.0,0.0,0.0,0.0,0.0,5.53823341967,-0.00550499037181,8.01533794001,0.0,0.0,0.0,0.0,0.0,0.0,0.0,0.0,0.0
23584000000,235,23584000000,imu_link,3.31094916576e-05,-0.365914486639,-9.3569851525e-05,0.930648472097,0.0,0.0,0.0,0.0,0.0,0.0,0.0,0.0,0.0,-0.00299783704237,0.00743509455217,0.00133438801173,0.0,0.0,0.0,0.0,0.0,0.0,0.0,0.0,0.0,5.54343723346,-0.00563119812734,8.00910661556,0.0,0.0,0.0,0.0,0.0,0.0,0.0,0.0,0.0
23588000000,236,23588000000,imu_link,2.62499614164e-05,-0.36590044059,-9.35742342328e-05,0.930653994851,0.0,0.0,0.0,0.0,0.0,0.0,0.0,0.0,0.0,-0.0031934560889,0.00754607379063,0.00125298721626,0.0,0.0,0.0,0.0,0.0,0.0,0.0,0.0,0.0,5.54926503858,-0.00574019419115,8.00237944366,0.0,0.0,0.0,0.0,0.0,0.0,0.0,0.0,0.0
23592000000,237,23592000000,imu_link,1.94446152496e-05,-0.365885811517,-9.38102780867e-05,0.930659746498,0.0,0.0,0.0,0.0,0.0,0.0,0.0,0.0,0.0,-0.00321065551612,0.00785924594253,0.00113527909948,0.0,0.0,0.0,0.0,0.0,0.0,0.0,0.0,0.0,5.55420804759,-0.00578082146567,7.99419773779,0.0,0.0,0.0,0.0,0.0,0.0,0.0,0.0,0.0
23596000000,238,23596000000,imu_link,1.30457057852e-05,-0.365870532759,-9.41514472303e-05,0.930665753224,0.0,0.0,0.0,0.0,0.0,0.0,0.0,0.0,0.0,-0.00304079325648,0.00820824711016,0.00101201209845,0.0,0.0,0.0,0.0,0.0,0.0,0.0,0.0,0.0,5.55869781168,-0.00577285983203,7.9874149784,0.0,0.0,0.0,0.0,0.0,0.0,0.0,0.0,0.0
23600000000,239,23600000000,imu_link,7.29203154842e-06,-0.365854665878,-9.45157580683e-05,0.930671990805,0.0,0.0,0.0,0.0,0.0,0.0,0.0,0.0,0.0,-0.00274480671607,0.00852418166299,0.00088321426036,0.0,0.0,0.0,0.0,0.0,0.0,0.0,0.0,0.0,5.56286486626,-0.00569144724803,7.98071950782,0.0,0.0,0.0,0.0,0.0,0.0,0.0,0.0,0.0
23604000000,240,23604000000,imu_link,2.50047486171e-06,-0.36583821628,-9.48360251145e-05,0.930678457099,0.0,0.0,0.0,0.0,0.0,0.0,0.0,0.0,0.0,-0.00228907034662,0.00883722449298,0.000727720508618,0.0,0.0,0.0,0.0,0.0,0.0,0.0,0.0,0.0,5.56748902106,-0.00558640907517,7.97496296913,0.0,0.0,0.0,0.0,0.0,0.0,0.0,0.0,0.0
23608000000,241,23608000000,imu_link,-1.28142447434e-06,-0.365821367104,-9.51143739213e-05,0.930685080101,0.0,0.0,0.0,0.0,0.0,0.0,0.0,0.0,0.0,-0.00181158867006,0.00905187630364,0.000562548018757,0.0,0.0,0.0,0.0,0.0,0.0,0.0,0.0,0.0,5.57244272496,-0.0053974615261,7.9711130168,0.0,0.0,0.0,0.0,0.0,0.0,0.0,0.0,0.0
23612000000,242,23612000000,imu_link,-4.31081884555e-06,-0.365804559683,-9.54290316295e-05,0.930691686322,0.0,0.0,0.0,0.0,0.0,0.0,0.0,0.0,0.0,-0.00146805540922,0.00902941261884,0.000408009920119,0.0,0.0,0.0,0.0,0.0,0.0,0.0,0.0,0.0,5.57782392925,-0.00512755721591,7.97011526977,0.0,0.0,0.0,0.0,0.0,0.0,0.0,0.0,0.0
23616000000,243,23616000000,imu_link,-6.97654086676e-06,-0.365788233639,-9.58555035254e-05,0.930698102982,0.0,0.0,0.0,0.0,0.0,0.0,0.0,0.0,0.0,-0.00131925050263,0.0087707523361,0.000289451068292,0.0,0.0,0.0,0.0,0.0,0.0,0.0,0.0,0.0,5.58219070379,-0.00486826168135,7.9664255855,0.0,0.0,0.0,0.0,0.0,0.0,0.0,0.0,0.0
23620000000,244,23620000000,imu_link,-9.53073949172e-06,-0.365772815406,-9.64085958675e-05,0.930704162516,0.0,0.0,0.0,0.0,0.0,0.0,0.0,0.0,0.0,-0.00129046906698,0.00828299258143,0.000210111107753,0.0,0.0,0.0,0.0,0.0,0.0,0.0,0.0,0.0,5.58706816886,-0.00470518348435,7.96377211071,0.0,0.0,0.0,0.0,0.0,0.0,0.0,0.0,0.0
23624000000,245,23624000000,imu_link,-1.19735970077e-05,-0.365758599539,-9.70327751707e-05,0.930709749226,0.0,0.0,0.0,0.0,0.0,0.0,0.0,0.0,0.0,-0.00125160138309,0.00763700173117,0.00015663934513,0.0,0.0,0.0,0.0,0.0,0.0,0.0,0.0,0.0,5.59244877043,-0.00462929944615,7.96149485082,0.0,0.0,0.0,0.0,0.0,0.0,0.0,0.0,0.0
23628000000,246,23628000000,imu_link,-1.42232679571e-05,-0.365745833125,-9.76779266429e-05,0.930714766085,0.0,0.0,0.0,0.0,0.0,0.0,0.0,0.0,0.0,-0.00116546953758,0.00685828766815,0.000111513695279,0.0,0.0,0.0,0.0,0.0,0.0,0.0,0.0,0.0,5.59709160774,-0.00455399328227,7.95673088672,0.0,0.0,0.0,0.0,0.0,0.0,0.0,0.0,0.0
23632000000,247,23632000000,imu_link,-1.62309303369e-05,-0.365734674398,-9.83090516125e-05,0.930719150988,0.0,0.0,0.0,0.0,0.0,0.0,0.0,0.0,0.0,-0.00105020997189,0.0059945822499,7.37419215389e-05,0.0,0.0,0.0,0.0,0.0,0.0,0.0,0.0,0.0,5.60201724735,-0.00446074574178,7.95205922471,0.0,0.0,0.0,0.0,0.0,0.0,0.0,0.0,0.0
23636000000,248,23636000000,imu_link,-1.8111810779e-05,-0.365725332706,-9.89637620622e-05,0.930722821733,0.0,0.0,0.0,0.0,0.0,0.0,0.0,0.0,0.0,-0.000995440277357,0.00501841830443,3.95320670453e-05,0.0,0.0,0.0,0.0,0.0,0.0,0.0,0.0,0.0,5.60633927282,-0.0043514400841,7.94649249912,0.0,0.0,0.0,0.0,0.0,0.0,0.0,0.0,0.0
23640000000,249,23640000000,imu_link,-1.98787969921e-05,-0.365717843398,-9.9687958907e-05,0.930725764491,0.0,0.0,0.0,0.0,0.0,0.0,0.0,0.0,0.0,-0.00095505969887,0.0040232744366,-1.36840194723e-05,0.0,0.0,0.0,0.0,0.0,0.0,0.0,0.0,0.0,5.61096448994,-0.00428662571224,7.94081777688,0.0,0.0,0.0,0.0,0.0,0.0,0.0,0.0,0.0
23644000000,250,23644000000,imu_link,-2.12723146905e-05,-0.36571197002,-0.000100495379432,0.930728072227,0.0,0.0,0.0,0.0,0.0,0.0,0.0,0.0,0.0,-0.000796405274181,0.00315518077733,-0.000120752994424,0.0,0.0,0.0,0.0,0.0,0.0,0.0,0.0,0.0,5.61560214724,-0.00425762516728,7.93351364877,0.0,0.0,0.0,0.0,0.0,0.0,0.0,0.0,0.0
23648000000,251,23648000000,imu_link,-2.18470560961e-05,-0.365707366709,-0.000101367196225,0.93072988089,0.0,0.0,0.0,0.0,0.0,0.0,0.0,0.0,0.0,-0.000427092967169,0.00247292039857,-0.000300477433065,0.0,0.0,0.0,0.0,0.0,0.0,0.0,0.0,0.0,5.62073905721,-0.00422032640797,7.92712292582,0.0,0.0,0.0,0.0,0.0,0.0,0.0,0.0,0.0
23652000000,252,23652000000,imu_link,-2.16614443459e-05,-0.365703623053,-0.000102312020727,0.93073135176,0.0,0.0,0.0,0.0,0.0,0.0,0.0,0.0,0.0,-8.65611140372e-05,0.00201113991326,-0.000473512547299,0.0,0.0,0.0,0.0,0.0,0.0,0.0,0.0,0.0,5.62421978903,-0.0040421834733,7.91611046435,0.0,0.0,0.0,0.0,0.0,0.0,0.0,0.0,0.0
23656000000,253,23656000000,imu_link,-2.12801735075e-05,-0.365700345917,-0.000103369014876,0.9307326393,0.0,0.0,0.0,0.0,0.0,0.0,0.0,0.0,0.0,-1.59966338225e-05,0.00176052700284,-0.000561503500976,0.0,0.0,0.0,0.0,0.0,0.0,0.0,0.0,0.0,5.62875312077,-0.0038043622119,7.90831974273,0.0,0.0,0.0,0.0,0.0,0.0,0.0,0.0,0.0
23660000000,254,23660000000,imu_link,-2.14036830066e-05,-0.365697269395,-0.000104604828516,0.93073384797,0.0,0.0,0.0,0.0,0.0,0.0,0.0,0.0,0.0,-0.000283592047033,0.00165272203394,-0.000552427108161,0.0,0.0,0.0,0.0,0.0,0.0,0.0,0.0,0.0,5.63363983984,-0.00361438660445,7.90261759168,0.0,0.0,0.0,0.0,0.0,0.0,0.0,0.0,0.0
23664000000,255,23664000000,imu_link,-2.24081162048e-05,-0.365694396453,-0.000106068060927,0.930734976591,0.0,0.0,0.0,0.0,0.0,0.0,0.0,0.0,0.0,-0.000735118219771,0.00154330193905,-0.000497190951709,0.0,0.0,0.0,0.0,0.0,0.0,0.0,0.0,0.0,5.6382508256,-0.00355615225312,7.89798716215,0.0,0.0,0.0,0.0,0.0,0.0,0.0,0.0,0.0
23668000000,256,23668000000,imu_link,-2.42737157936e-05,-0.365691708766,-0.000107726047438,0.930736032367,0.0,0.0,0.0,0.0,0.0,0.0,0.0,0.0,0.0,-0.00117147829305,0.00144372748464,-0.000430367255495,0.0,0.0,0.0,0.0,0.0,0.0,0.0,0.0,0.0,5.64283922053,-0.00364495190935,7.89325576504,0.0,0.0,0.0,0.0,0.0,0.0,0.0,0.0,0.0
23672000000,257,23672000000,imu_link,-2.67083598438e-05,-0.365688894652,-0.000109490947505,0.930737137771,0.0,0.0,0.0,0.0,0.0,0.0,0.0,0.0,0.0,-0.00145584829289,0.0015116075467,-0.000376069776473,0.0,0.0,0.0,0.0,0.0,0.0,0.0,0.0,0.0,5.64810456589,-0.00376924763896,7.88840308418,0.0,0.0,0.0,0.0,0.0,0.0,0.0,0.0,0.0
23676000000,258,23676000000,imu_link,-2.9555159802e-05,-0.365685553887,-0.000111301557407,0.930738450058,0.0,0.0,0.0,0.0,0.0,0.0,0.0,0.0,0.0,-0.0016560365567,0.00179449988302,-0.000321962919155,0.0,0.0,0.0,0.0,0.0,0.0,0.0,0.0,0.0,5.65201371504,-0.00382572654737,7.87971128795,0.0,0.0,0.0,0.0,0.0,0.0,0.0,0.0,0.0
23680000000,259,23680000000,imu_link,-3.28996068861e-05,-0.365681463229,-0.000113144172261,0.930740056926,0.0,0.0,0.0,0.0,0.0,0.0,0.0,0.0,0.0,-0.00189351546712,0.00219731148918,-0.000245838381012,0.0,0.0,0.0,0.0,0.0,0.0,0.0,0.0,0.0,5.65585768073,-0.00381107315674,7.87226377995,0.0,0.0,0.0,0.0,0.0,0.0,0.0,0.0,0.0
23684000000,260,23684000000,imu_link,-3.68671541552e-05,-0.365676775195,-0.000115028787957,0.930741898429,0.0,0.0,0.0,0.0,0.0,0.0,0.0,0.0,0.0,-0.00219119701771,0.0025181785429,-0.000151433119735,0.0,0.0,0.0,0.0,0.0,0.0,0.0,0.0,0.0,5.66023336653,-0.00381067083112,7.86891757427,0.0,0.0,0.0,0.0,0.0,0.0,0.0,0.0,0.0
23688000000,261,23688000000,imu_link,-4.11818359524e-05,-0.365671726167,-0.000116910688957,0.930743881698,0.0,0.0,0.0,0.0,0.0,0.0,0.0,0.0,0.0,-0.00235226514098,0.00271207509056,-8.66854534541e-05,0.0,0.0,0.0,0.0,0.0,0.0,0.0,0.0,0.0,5.66520405909,-0.00389342465699,7.8677977515,0.0,0.0,0.0,0.0,0.0,0.0,0.0,0.0,0.0
23692000000,262,23692000000,imu_link,-4.51496158847e-05,-0.365666603846,-0.000118694662463,0.930745893735,0.0,0.0,0.0,0.0,0.0,0.0,0.0,0.0,0.0,-0.0021729257811,0.0027514620933,-0.000104535656885,0.0,0.0,0.0,0.0,0.0,0.0,0.0,0.0,0.0,5.6711530074,-0.00399795147479,7.86960432994,0.0,0.0,0.0,0.0,0.0,0.0,0.0,0.0,0.0
23696000000,263,23696000000,imu_link,-4.81005881921e-05,-0.36566159199,-0.000120278292265,0.9307478624,0.0,0.0,0.0,0.0,0.0,0.0,0.0,0.0,0.0,-0.0016630959427,0.00269218019055,-0.000197212480433,0.0,0.0,0.0,0.0,0.0,0.0,0.0,0.0,0.0,5.67546581684,-0.00400571243859,7.86633316508,0.0,0.0,0.0,0.0,0.0,0.0,0.0,0.0,0.0
23700000000,264,23700000000,imu_link,-4.97706741336e-05,-0.365656939693,-0.000121621510322,0.930749689866,0.0,0.0,0.0,0.0,0.0,0.0,0.0,0.0,0.0,-0.00102303192065,0.00249910650437,-0.000319533734107,0.0,0.0,0.0,0.0,0.0,0.0,0.0,0.0,0.0,5.67952916174,-0.00385824728093,7.86267596747,0.0,0.0,0.0,0.0,0.0,0.0,0.0,0.0,0.0
23704000000,265,23704000000,imu_link,-5.02681543523e-05,-0.365652808696,-0.000122772159829,0.930751312592,0.0,0.0,0.0,0.0,0.0,0.0,0.0,0.0,0.0,-0.000442097095251,0.00221914117442,-0.000444328308152,0.0,0.0,0.0,0.0,0.0,0.0,0.0,0.0,0.0,5.68382025334,-0.00358635057674,7.85906033823,0.0,0.0,0.0,0.0,0.0,0.0,0.0,0.0,0.0
23708000000,266,23708000000,imu_link,-4.98717298419e-05,-0.365649194749,-0.000123797364576,0.930752732237,0.0,0.0,0.0,0.0,0.0,0.0,0.0,0.0,0.0,-3.13434552119e-06,0.00194144172275,-0.000549404220244,0.0,0.0,0.0,0.0,0.0,0.0,0.0,0.0,0.0,5.68826499044,-0.00328820723773,7.85481018426,0.0,0.0,0.0,0.0,0.0,0.0,0.0,0.0,0.0
23712000000,267,23712000000,imu_link,-4.86757055779e-05,-0.365645980154,-0.000124716688691,0.930753995035,0.0,0.0,0.0,0.0,0.0,0.0,0.0,0.0,0.0,0.000388358874292,0.00172696428899,-0.000646336046222,0.0,0.0,0.0,0.0,0.0,0.0,0.0,0.0,0.0,5.69181346169,-0.0030906044608,7.8476029668,0.0,0.0,0.0,0.0,0.0,0.0,0.0,0.0,0.0
23716000000,268,23716000000,imu_link,-4.65480260657e-05,-0.365642985551,-0.000125511291757,0.930755171459,0.0,0.0,0.0,0.0,0.0,0.0,0.0,0.0,0.0,0.000844743287886,0.0016088482622,-0.000758632477314,0.0,0.0,0.0,0.0,0.0,0.0,0.0,0.0,0.0,5.6953217223,-0.00296551731582,7.8399600417,0.0,0.0,0.0,0.0,0.0,0.0,0.0,0.0,0.0
23720000000,269,23720000000,imu_link,-4.33723470285e-05,-0.365640245112,-0.000126162081031,0.930756248089,0.0,0.0,0.0,0.0,0.0,0.0,0.0,0.0,0.0,0.00135876465638,0.00147238435284,-0.000883313777588,0.0,0.0,0.0,0.0,0.0,0.0,0.0,0.0,0.0,5.69923045197,-0.0028224500759,7.83490275244,0.0,0.0,0.0,0.0,0.0,0.0,0.0,0.0,0.0
23724000000,270,23724000000,imu_link,-3.90287038699e-05,-0.365637790694,-0.000126704955007,0.930757212402,0.0,0.0,0.0,0.0,0.0,0.0,0.0,0.0,0.0,0.00192205430273,0.00131881419473,-0.00104663299064,0.0,0.0,0.0,0.0,0.0,0.0,0.0,0.0,0.0,5.70396925696,-0.00265312327512,7.83197133546,0.0,0.0,0.0,0.0,0.0,0.0,0.0,0.0,0.0
23728000000,271,23728000000,imu_link,-3.35782404902e-05,-0.365635626222,-0.00012717322715,0.930758062837,0.0,0.0,0.0,0.0,0.0,0.0,0.0,0.0,0.0,0.00245079952593,0.00116312920274,-0.00121427541608,0.0,0.0,0.0,0.0,0.0,0.0,0.0,0.0,0.0,5.70843110284,-0.00244962606866,7.82832900681,0.0,0.0,0.0,0.0,0.0,0.0,0.0,0.0,0.0
23732000000,272,23732000000,imu_link,-2.7139091685e-05,-0.365633590242,-0.000127573533406,0.930758862797,0.0,0.0,0.0,0.0,0.0,0.0,0.0,0.0,0.0,0.00292334568948,0.00109416549573,-0.00136340019148,0.0,0.0,0.0,0.0,0.0,0.0,0.0,0.0,0.0,5.7128952257,-0.00225600655423,7.82380359931,0.0,0.0,0.0,0.0,0.0,0.0,0.0,0.0,0.0
23736000000,273,23736000000,imu_link,-1.98835662101e-05,-0.36563152981,-0.000127895791304,0.930759672341,0.0,0.0,0.0,0.0,0.0,0.0,0.0,0.0,0.0,0.0033175377208,0.00110734799834,-0.00147632451435,0.0,0.0,0.0,0.0,0.0,0.0,0.0,0.0,0.0,5.71592621058,-0.00207472348986,7.81560926744,0.0,0.0,0.0,0.0,0.0,0.0,0.0,0.0,0.0
23740000000,274,23740000000,imu_link,-1.20041596444e-05,-0.365629394027,-0.000128107451532,0.930760511446,0.0,0.0,0.0,0.0,0.0,0.0,0.0,0.0,0.0,0.00362809387374,0.00114785818132,-0.00153890724782,0.0,0.0,0.0,0.0,0.0,0.0,0.0,0.0,0.0,5.72024008015,-0.00192242466683,7.81171162984,0.0,0.0,0.0,0.0,0.0,0.0,0.0,0.0,0.0
23744000000,275,23744000000,imu_link,-3.53621573002e-06,-0.365627220062,-0.000128195189876,0.930761365498,0.0,0.0,0.0,0.0,0.0,0.0,0.0,0.0,0.0,0.0039246399213,0.00116839619276,-0.00158882854054,0.0,0.0,0.0,0.0,0.0,0.0,0.0,0.0,0.0,5.72428556352,-0.00183404445843,7.80779519725,0.0,0.0,0.0,0.0,0.0,0.0,0.0,0.0,0.0
23748000000,276,23748000000,imu_link,5.4824867324e-06,-0.365625410684,-0.000128150769963,0.930762076263,0.0,0.0,0.0,0.0,0.0,0.0,0.0,0.0,0.0,0.00420513575418,0.000972565493343,-0.00162802062808,0.0,0.0,0.0,0.0,0.0,0.0,0.0,0.0,0.0,5.72832434873,-0.00176294419436,7.80635565091,0.0,0.0,0.0,0.0,0.0,0.0,0.0,0.0,0.0
23752000000,277,23752000000,imu_link,1.49983924318e-05,-0.365624517514,-0.000127972706491,0.930762427041,0.0,0.0,0.0,0.0,0.0,0.0,0.0,0.0,0.0,0.0044610161466,0.000480401102027,-0.0016567410736,0.0,0.0,0.0,0.0,0.0,0.0,0.0,0.0,0.0,5.73349734467,-0.00167868370036,7.80861952955,0.0,0.0,0.0,0.0,0.0,0.0,0.0,0.0,0.0
23756000000,278,23756000000,imu_link,2.48507560968e-05,-0.365624886481,-0.000127689914469,0.93076228193,0.0,0.0,0.0,0.0,0.0,0.0,0.0,0.0,0.0,0.004636827504,-0.000197605952314,-0.00166953327971,0.0,0.0,0.0,0.0,0.0,0.0,0.0,0.0,0.0,5.73694135383,-0.00160526761697,7.80497024233,0.0,0.0,0.0,0.0,0.0,0.0,0.0,0.0,0.0
23760000000,279,23760000000,imu_link,3.46397938927e-05,-0.365626568659,-0.000127366176808,0.930761620861,0.0,0.0,0.0,0.0,0.0,0.0,0.0,0.0,0.0,0.004614932464,-0.00090307641293,-0.0016389178187,0.0,0.0,0.0,0.0,0.0,0.0,0.0,0.0,0.0,5.74128465172,-0.0015416214507,7.80169208497,0.0,0.0,0.0,0.0,0.0,0.0,0.0,0.0,0.0
23764000000,280,23764000000,imu_link,4.4047720112e-05,-0.365629392663,-0.000127047956354,0.930760511163,0.0,0.0,0.0,0.0,0.0,0.0,0.0,0.0,0.0,0.00443664231615,-0.00151650035862,-0.00157182195581,0.0,0.0,0.0,0.0,0.0,0.0,0.0,0.0,0.0,5.74502932289,-0.00156798056317,7.79552600906,0.0,0.0,0.0,0.0,0.0,0.0,0.0,0.0,0.0
23768000000,281,23768000000,imu_link,5.271381484e-05,-0.365633145698,-0.000126792539103,0.930759036439,0.0,0.0,0.0,0.0,0.0,0.0,0.0,0.0,0.0,0.00407999429368,-0.00201563322644,-0.00146543435428,0.0,0.0,0.0,0.0,0.0,0.0,0.0,0.0,0.0,5.74812472274,-0.00160840930709,7.78760570804,0.0,0.0,0.0,0.0,0.0,0.0,0.0,0.0,0.0
23772000000,282,23772000000,imu_link,6.02307223347e-05,-0.365637604805,-0.000126648155262,0.930757284304,0.0,0.0,0.0,0.0,0.0,0.0,0.0,0.0,0.0,0.00352493941916,-0.00239501629515,-0.00130701553476,0.0,0.0,0.0,0.0,0.0,0.0,0.0,0.0,0.0,5.75223409583,-0.00168099675352,7.78255769562,0.0,0.0,0.0,0.0,0.0,0.0,0.0,0.0,0.0
23776000000,283,23776000000,imu_link,6.64269253961e-05,-0.365642517382,-0.000126636703237,0.930755354018,0.0,0.0,0.0,0.0,0.0,0.0,0.0,0.0,0.0,0.00288604342851,-0.00263870841181,-0.00112742718488,0.0,0.0,0.0,0.0,0.0,0.0,0.0,0.0,0.0,5.75523856864,-0.00184402460531,7.77454180894,0.0,0.0,0.0,0.0,0.0,0.0,0.0,0.0,0.0
23780000000,284,23780000000,imu_link,7.13787423818e-05,-0.365647467448,-0.000126741825396,0.930753409014,0.0,0.0,0.0,0.0,0.0,0.0,0.0,0.0,0.0,0.00228562455073,-0.00265892795017,-0.000954177665948,0.0,0.0,0.0,0.0,0.0,0.0,0.0,0.0,0.0,5.75933199176,-0.00206032079035,7.76807136291,0.0,0.0,0.0,0.0,0.0,0.0,0.0,0.0,0.0
23784000000,285,23784000000,imu_link,7.53810547718e-05,-0.365652233277,-0.000126916185374,0.930751536399,0.0,0.0,0.0,0.0,0.0,0.0,0.0,0.0,0.0,0.00183107465561,-0.00256001681416,-0.00081280934658,0.0,0.0,0.0,0.0,0.0,0.0,0.0,0.0,0.0,5.76319893855,-0.00228370578184,7.76255103858,0.0,0.0,0.0,0.0,0.0,0.0,0.0,0.0,0.0
23788000000,286,23788000000,imu_link,7.87651882424e-05,-0.365656974104,-0.000127079385581,0.930749673616,0.0,0.0,0.0,0.0,0.0,0.0,0.0,0.0,0.0,0.00154542750659,-0.00254662265669,-0.000694596926824,0.0,0.0,0.0,0.0,0.0,0.0,0.0,0.0,0.0,5.76794406498,-0.00246088312794,7.76207173721,0.0,0.0,0.0,0.0,0.0,0.0,0.0,0.0,0.0
23792000000,287,23792000000,imu_link,8.15874665758e-05,-0.365661966112,-0.000127205012887,0.930747712165,0.0,0.0,0.0,0.0,0.0,0.0,0.0,0.0,0.0,0.00129084350633,-0.0026815899587,-0.000574384696458,0.0,0.0,0.0,0.0,0.0,0.0,0.0,0.0,0.0,5.77227350481,-0.00254627562658,7.76139961929,0.0,0.0,0.0,0.0,0.0,0.0,0.0,0.0,0.0
23796000000,288,23796000000,imu_link,8.39373844251e-05,-0.365667451235,-0.000127273995694,0.930745556993,0.0,0.0,0.0,0.0,0.0,0.0,0.0,0.0,0.0,0.00108141492164,-0.00294651829221,-0.000461653901145,0.0,0.0,0.0,0.0,0.0,0.0,0.0,0.0,0.0,5.77578017002,-0.00261364205949,7.75836503809,0.0,0.0,0.0,0.0,0.0,0.0,0.0,0.0,0.0
23800000000,289,23800000000,imu_link,8.59551298617e-05,-0.365673607718,-0.000127267517218,0.930743138053,0.0,0.0,0.0,0.0,0.0,0.0,0.0,0.0,0.0,0.000940681583949,-0.00330719493448,-0.000365792563703,0.0,0.0,0.0,0.0,0.0,0.0,0.0,0.0,0.0,5.77904641335,-0.00267353738248,7.7541845692,0.0,0.0,0.0,0.0,0.0,0.0,0.0,0.0,0.0
23804000000,290,23804000000,imu_link,8.79161425005e-05,-0.365680534551,-0.0001271637283,0.930740416416,0.0,0.0,0.0,0.0,0.0,0.0,0.0,0.0,0.0,0.000932133712354,-0.00372103710826,-0.000310120361259,0.0,0.0,0.0,0.0,0.0,0.0,0.0,0.0,0.0,5.7827342086,-0.00276913584671,7.75061291812,0.0,0.0,0.0,0.0,0.0,0.0,0.0,0.0,0.0
23808000000,291,23808000000,imu_link,8.99755154077e-05,-0.365688167639,-0.000126971768237,0.93073741723,0.0,0.0,0.0,0.0,0.0,0.0,0.0,0.0,0.0,0.000994085992378,-0.00410044460078,-0.000287058956172,0.0,0.0,0.0,0.0,0.0,0.0,0.0,0.0,0.0,5.78641471188,-0.0028314634978,7.7460302241,0.0,0.0,0.0,0.0,0.0,0.0,0.0,0.0,0.0
23812000000,292,23812000000,imu_link,9.21330418635e-05,-0.365696309489,-0.000126723979169,0.930734218066,0.0,0.0,0.0,0.0,0.0,0.0,0.0,0.0,0.0,0.00105001288143,-0.00437376185157,-0.000279014487594,0.0,0.0,0.0,0.0,0.0,0.0,0.0,0.0,0.0,5.79079968948,-0.00281983143429,7.74247606091,0.0,0.0,0.0,0.0,0.0,0.0,0.0,0.0,0.0
23816000000,293,23816000000,imu_link,9.42493092467e-05,-0.365704773369,-0.000126473654281,0.930730892287,0.0,0.0,0.0,0.0,0.0,0.0,0.0,0.0,0.0,0.00103130217328,-0.00454677873487,-0.000270283443244,0.0,0.0,0.0,0.0,0.0,0.0,0.0,0.0,0.0,5.79386708865,-0.00277084936014,7.73593298528,0.0,0.0,0.0,0.0,0.0,0.0,0.0,0.0,0.0
23820000000,294,23820000000,imu_link,9.64151615395e-05,-0.365713271261,-0.000126235868408,0.930727553043,0.0,0.0,0.0,0.0,0.0,0.0,0.0,0.0,0.0,0.00105208727333,-0.00456506552153,-0.0002851846352,0.0,0.0,0.0,0.0,0.0,0.0,0.0,0.0,0.0,5.79729472424,-0.00276826664511,7.72971025632,0.0,0.0,0.0,0.0,0.0,0.0,0.0,0.0,0.0
23824000000,295,23824000000,imu_link,9.87578489834e-05,-0.365721644902,-0.000126003918263,0.930724262507,0.0,0.0,0.0,0.0,0.0,0.0,0.0,0.0,0.0,0.00113330265503,-0.00449832662265,-0.000320238767608,0.0,0.0,0.0,0.0,0.0,0.0,0.0,0.0,0.0,5.80076045257,-0.00275627530083,7.72478318451,0.0,0.0,0.0,0.0,0.0,0.0,0.0,0.0,0.0
23828000000,296,23828000000,imu_link,0.000101603926266,-0.365730010461,-0.0001257523226,0.930720975003,0.0,0.0,0.0,0.0,0.0,0.0,0.0,0.0,0.0,0.00137115295969,-0.00449397815898,-0.000403146975699,0.0,0.0,0.0,0.0,0.0,0.0,0.0,0.0,0.0,5.80464051053,-0.00275927628007,7.72276351939,0.0,0.0,0.0,0.0,0.0,0.0,0.0,0.0,0.0
23832000000,297,23832000000,imu_link,0.000105199611629,-0.365738694096,-0.000125459610947,0.930717562332,0.0,0.0,0.0,0.0,0.0,0.0,0.0,0.0,0.0,0.00172753597555,-0.0046648377986,-0.00052108201501,0.0,0.0,0.0,0.0,0.0,0.0,0.0,0.0,0.0,5.80958048535,-0.00270145496393,7.72476418449,0.0,0.0,0.0,0.0,0.0,0.0,0.0,0.0,0.0
23836000000,298,23836000000,imu_link,0.000109438438833,-0.365747630655,-0.000125145159192,0.930714050088,0.0,0.0,0.0,0.0,0.0,0.0,0.0,0.0,0.0,0.00203082438046,-0.00480070583564,-0.000628568938725,0.0,0.0,0.0,0.0,0.0,0.0,0.0,0.0,0.0,5.81221224209,-0.00255437942453,7.71823798063,0.0,0.0,0.0,0.0,0.0,0.0,0.0,0.0,0.0
23840000000,299,23840000000,imu_link,0.000114080468277,-0.365756505196,-0.000124879701688,0.930710562042,0.0,0.0,0.0,0.0,0.0,0.0,0.0,0.0,0.0,0.00220949240502,-0.00476739708198,-0.000725105768925,0.0,0.0,0.0,0.0,0.0,0.0,0.0,0.0,0.0,5.81567373291,-0.00240652012461,7.71195255822,0.0,0.0,0.0,0.0,0.0,0.0,0.0,0.0,0.0
23844000000,300,23844000000,imu_link,0.000118996277615,-0.365764937769,-0.000124695956056,0.930707247522,0.0,0.0,0.0,0.0,0.0,0.0,0.0,0.0,0.0,0.00232191650599,-0.00452997873416,-0.000813213584101,0.0,0.0,0.0,0.0,0.0,0.0,0.0,0.0,0.0,5.81923278417,-0.00227608886074,7.70563704192,0.0,0.0,0.0,0.0,0.0,0.0,0.0,0.0,0.0
23848000000,301,23848000000,imu_link,0.000124243309059,-0.365772773284,-0.000124558157053,0.930704167485,0.0,0.0,0.0,0.0,0.0,0.0,0.0,0.0,0.0,0.00246759790321,-0.00420923467515,-0.00089519063488,0.0,0.0,0.0,0.0,0.0,0.0,0.0,0.0,0.0,5.82217399456,-0.00218734937613,7.69960892206,0.0,0.0,0.0,0.0,0.0,0.0,0.0,0.0,0.0
23852000000,302,23852000000,imu_link,0.000129809135698,-0.365780016367,-0.000124406013363,0.930701320134,0.0,0.0,0.0,0.0,0.0,0.0,0.0,0.0,0.0,0.00261852200885,-0.00389096961678,-0.000946840917359,0.0,0.0,0.0,0.0,0.0,0.0,0.0,0.0,0.0,5.82548939643,-0.00212756085419,7.69595898028,0.0,0.0,0.0,0.0,0.0,0.0,0.0,0.0,0.0
23856000000,303,23856000000,imu_link,0.000135644880228,-0.365786715489,-0.000124187764562,0.930698686445,0.0,0.0,0.0,0.0,0.0,0.0,0.0,0.0,0.0,0.00275617073816,-0.0035987388944,-0.000965466161292,0.0,0.0,0.0,0.0,0.0,0.0,0.0,0.0,0.0,5.82798613324,-0.00210144767543,7.69059374306,0.0,0.0,0.0,0.0,0.0,0.0,0.0,0.0,0.0
23860000000,304,23860000000,imu_link,0.000141630721605,-0.365792931372,-0.000123887923153,0.930696242579,0.0,0.0,0.0,0.0,0.0,0.0,0.0,0.0,0.0,0.00284089807287,-0.00333913192945,-0.000954969798292,0.0,0.0,0.0,0.0,0.0,0.0,0.0,0.0,0.0,5.83113248941,-0.00205585951108,7.68698030184,0.0,0.0,0.0,0.0,0.0,0.0,0.0,0.0,0.0
23864000000,305,23864000000,imu_link,0.000147947380823,-0.365798683514,-0.000123483053087,0.930693980857,0.0,0.0,0.0,0.0,0.0,0.0,0.0,0.0,0.0,0.0030140112793,-0.00308998934423,-0.000966621881705,0.0,0.0,0.0,0.0,0.0,0.0,0.0,0.0,0.0,5.83447536618,-0.00206888408746,7.68351512646,0.0,0.0,0.0,0.0,0.0,0.0,0.0,0.0,0.0
23868000000,306,23868000000,imu_link,0.000154800058603,-0.365803856126,-0.000122955245692,0.930691946759,0.0,0.0,0.0,0.0,0.0,0.0,0.0,0.0,0.0,0.00328587844098,-0.00277863246437,-0.00100747962346,0.0,0.0,0.0,0.0,0.0,0.0,0.0,0.0,0.0,5.83662468943,-0.00206816509151,7.67628895908,0.0,0.0,0.0,0.0,0.0,0.0,0.0,0.0,0.0
23872000000,307,23872000000,imu_link,0.000162223370248,-0.365808376872,-0.000122317439907,0.930690168709,0.0,0.0,0.0,0.0,0.0,0.0,0.0,0.0,0.0,0.00357147963731,-0.00242841414237,-0.00106069706312,0.0,0.0,0.0,0.0,0.0,0.0,0.0,0.0,0.0,5.84002308302,-0.00200832903816,7.67243180332,0.0,0.0,0.0,0.0,0.0,0.0,0.0,0.0,0.0
23876000000,308,23876000000,imu_link,0.000169925767039,-0.365812315358,-0.000121640218487,0.93068861939,0.0,0.0,0.0,0.0,0.0,0.0,0.0,0.0,0.0,0.00370850565924,-0.00211560583185,-0.00109343427261,0.0,0.0,0.0,0.0,0.0,0.0,0.0,0.0,0.0,5.84269234929,-0.0018902394015,7.66773884038,0.0,0.0,0.0,0.0,0.0,0.0,0.0,0.0,0.0
23880000000,309,23880000000,imu_link,0.000177458180952,-0.365815644265,-0.000120993251607,0.930687309616,0.0,0.0,0.0,0.0,0.0,0.0,0.0,0.0,0.0,0.00362381392568,-0.0017881406797,-0.00107645935754,0.0,0.0,0.0,0.0,0.0,0.0,0.0,0.0,0.0,5.84632304207,-0.00177711407608,7.66489593388,0.0,0.0,0.0,0.0,0.0,0.0,0.0,0.0,0.0
23884000000,310,23884000000,imu_link,0.000184695878653,-0.36581843139,-0.00012040206779,0.930686212773,0.0,0.0,0.0,0.0,0.0,0.0,0.0,0.0,0.0,0.00347641477843,-0.00149710158347,-0.00104854694184,0.0,0.0,0.0,0.0,0.0,0.0,0.0,0.0,0.0,5.8496406864,-0.00178106797881,7.66190885781,0.0,0.0,0.0,0.0,0.0,0.0,0.0,0.0,0.0
23888000000,311,23888000000,imu_link,0.000191538361497,-0.365820997319,-0.000119884831874,0.930685202881,0.0,0.0,0.0,0.0,0.0,0.0,0.0,0.0,0.0,0.00327895717128,-0.00137829625612,-0.00101068484096,0.0,0.0,0.0,0.0,0.0,0.0,0.0,0.0,0.0,5.85377089472,-0.00178167534889,7.66262770559,0.0,0.0,0.0,0.0,0.0,0.0,0.0,0.0,0.0
23892000000,312,23892000000,imu_link,0.000197521126552,-0.365823909592,-0.000119474910531,0.930684056961,0.0,0.0,0.0,0.0,0.0,0.0,0.0,0.0,0.0,0.00285929868426,-0.00156440776786,-0.000903346458961,0.0,0.0,0.0,0.0,0.0,0.0,0.0,0.0,0.0,5.85870827561,-0.00173214568585,7.66697222674,0.0,0.0,0.0,0.0,0.0,0.0,0.0,0.0,0.0
23896000000,313,23896000000,imu_link,0.000202144699687,-0.365827756998,-0.000119234356662,0.930682543691,0.0,0.0,0.0,0.0,0.0,0.0,0.0,0.0,0.0,0.00219592236524,-0.00206685497304,-0.000733477401753,0.0,0.0,0.0,0.0,0.0,0.0,0.0,0.0,0.0,5.86268295904,-0.00180197353285,7.66910014228,0.0,0.0,0.0,0.0,0.0,0.0,0.0,0.0,0.0
23900000000,314,23900000000,imu_link,0.000205332972081,-0.365832973581,-0.000119200284274,0.930680492473,0.0,0.0,0.0,0.0,0.0,0.0,0.0,0.0,0.0,0.00149038536295,-0.00280249417839,-0.000566919016414,0.0,0.0,0.0,0.0,0.0,0.0,0.0,0.0,0.0,5.86604816176,-0.00203069487548,7.66846810407,0.0,0.0,0.0,0.0,0.0,0.0,0.0,0.0,0.0
23904000000,315,23904000000,imu_link,0.000207462889991,-0.36583972117,-0.000119346373601,0.930677839604,0.0,0.0,0.0,0.0,0.0,0.0,0.0,0.0,0.0,0.000965088896494,-0.00362506609577,-0.000457043704595,0.0,0.0,0.0,0.0,0.0,0.0,0.0,0.0,0.0,5.86952901379,-0.00230476042063,7.66611786744,0.0,0.0,0.0,0.0,0.0,0.0,0.0,0.0,0.0
23908000000,316,23908000000,imu_link,0.000209349352669,-0.365848227366,-0.000119519565227,0.930674495418,0.0,0.0,0.0,0.0,0.0,0.0,0.0,0.0,0.0,0.000847018805847,-0.00456988748789,-0.000424981492457,0.0,0.0,0.0,0.0,0.0,0.0,0.0,0.0,0.0,5.8735877181,-0.00257322752666,7.66564759633,0.0,0.0,0.0,0.0,0.0,0.0,0.0,0.0,0.0
23912000000,317,23912000000,imu_link,0.000211718109609,-0.365858699746,-0.0001194997539,0.930670378123,0.0,0.0,0.0,0.0,0.0,0.0,0.0,0.0,0.0,0.00110695160825,-0.00562619724393,-0.000423233671092,0.0,0.0,0.0,0.0,0.0,0.0,0.0,0.0,0.0,5.87806694703,-0.00269901828873,7.66591418655,0.0,0.0,0.0,0.0,0.0,0.0,0.0,0.0,0.0
23916000000,318,23916000000,imu_link,0.000214886673961,-0.365871011704,-0.000119190534664,0.930665537351,0.0,0.0,0.0,0.0,0.0,0.0,0.0,0.0,0.0,0.00153225784301,-0.00661448489974,-0.000434718728766,0.0,0.0,0.0,0.0,0.0,0.0,0.0,0.0,0.0,5.880462805,-0.00264093321262,7.65900512922,0.0,0.0,0.0,0.0,0.0,0.0,0.0,0.0,0.0
23920000000,319,23920000000,imu_link,0.00021886052158,-0.365885020159,-0.000118607069816,0.930660029256,0.0,0.0,0.0,0.0,0.0,0.0,0.0,0.0,0.0,0.00195732459802,-0.00752591959441,-0.000454275652235,0.0,0.0,0.0,0.0,0.0,0.0,0.0,0.0,0.0,5.88274061955,-0.00248112824936,7.65171647092,0.0,0.0,0.0,0.0,0.0,0.0,0.0,0.0,0.0
23924000000,320,23924000000,imu_link,0.000223427719444,-0.36590046267,-0.000117839066837,0.930653956963,0.0,0.0,0.0,0.0,0.0,0.0,0.0,0.0,0.0,0.00226733492988,-0.00829638953348,-0.000476830034503,0.0,0.0,0.0,0.0,0.0,0.0,0.0,0.0,0.0,5.88596822597,-0.00228721939299,7.64603245069,0.0,0.0,0.0,0.0,0.0,0.0,0.0,0.0,0.0
23928000000,321,23928000000,imu_link,0.000228315264772,-0.365917014383,-0.000116992011763,0.930647448162,0.0,0.0,0.0,0.0,0.0,0.0,0.0,0.0,0.0,0.00243097796465,-0.0088923628244,-0.000498554410041,0.0,0.0,0.0,0.0,0.0,0.0,0.0,0.0,0.0,5.88912901496,-0.00214043825329,7.63998294531,0.0,0.0,0.0,0.0,0.0,0.0,0.0,0.0,0.0
23932000000,322,23932000000,imu_link,0.000233383207919,-0.365934555819,-0.000116179317134,0.930640549779,0.0,0.0,0.0,0.0,0.0,0.0,0.0,0.0,0.0,0.00250873718198,-0.00942417486714,-0.000547458260642,0.0,0.0,0.0,0.0,0.0,0.0,0.0,0.0,0.0,5.89273579318,-0.00207559158291,7.636728412,0.0,0.0,0.0,0.0,0.0,0.0,0.0,0.0,0.0
23936000000,323,23936000000,imu_link,0.000238688026914,-0.365953156417,-0.000115454664847,0.93063323442,0.0,0.0,0.0,0.0,0.0,0.0,0.0,0.0,0.0,0.0026029616332,-0.00999331388569,-0.000631667303394,0.0,0.0,0.0,0.0,0.0,0.0,0.0,0.0,0.0,5.89489927295,-0.00203608676613,7.63150082278,0.0,0.0,0.0,0.0,0.0,0.0,0.0,0.0,0.0
23940000000,324,23940000000,imu_link,0.000244045590748,-0.365972957137,-0.00011485466406,0.930625446619,0.0,0.0,0.0,0.0,0.0,0.0,0.0,0.0,0.0,0.00260482204153,-0.0106382084322,-0.000699204832919,0.0,0.0,0.0,0.0,0.0,0.0,0.0,0.0,0.0,5.89712391165,-0.00193348891758,7.62694295152,0.0,0.0,0.0,0.0,0.0,0.0,0.0,0.0,0.0
23944000000,325,23944000000,imu_link,0.000249070787332,-0.365993781353,-0.000114376411358,0.930617255854,0.0,0.0,0.0,0.0,0.0,0.0,0.0,0.0,0.0,0.00242799702554,-0.0111882248427,-0.000694935304744,0.0,0.0,0.0,0.0,0.0,0.0,0.0,0.0,0.0,5.90016165646,-0.00185864663392,7.62234860016,0.0,0.0,0.0,0.0,0.0,0.0,0.0,0.0,0.0
23948000000,326,23948000000,imu_link,0.00025351778537,-0.366015297893,-0.000113975978123,0.930608792376,0.0,0.0,0.0,0.0,0.0,0.0,0.0,0.0,0.0,0.00214478908769,-0.0115603177353,-0.000625266215023,0.0,0.0,0.0,0.0,0.0,0.0,0.0,0.0,0.0,5.90260537316,-0.00189169705665,7.61535904631,0.0,0.0,0.0,0.0,0.0,0.0,0.0,0.0,0.0
23952000000,327,23952000000,imu_link,0.000257253451561,-0.366037261596,-0.000113615712144,0.930600152609,0.0,0.0,0.0,0.0,0.0,0.0,0.0,0.0,0.0,0.00180650016597,-0.0118006925052,-0.000513730411586,0.0,0.0,0.0,0.0,0.0,0.0,0.0,0.0,0.0,5.9058670235,-0.00196449104664,7.61127111371,0.0,0.0,0.0,0.0,0.0,0.0,0.0,0.0,0.0
23956000000,328,23956000000,imu_link,0.000260468667221,-0.366059579352,-0.000113271781488,0.930591373101,0.0,0.0,0.0,0.0,0.0,0.0,0.0,0.0,0.0,0.00156138291348,-0.0119910398859,-0.000426041492319,0.0,0.0,0.0,0.0,0.0,0.0,0.0,0.0,0.0,5.90828885499,-0.00209194253911,7.60615693898,0.0,0.0,0.0,0.0,0.0,0.0,0.0,0.0,0.0
23960000000,329,23960000000,imu_link,0.000263584788244,-0.366082432463,-0.000112930210257,0.930582382389,0.0,0.0,0.0,0.0,0.0,0.0,0.0,0.0,0.0,0.0015149005877,-0.012278801288,-0.000408944292998,0.0,0.0,0.0,0.0,0.0,0.0,0.0,0.0,0.0,5.91217194861,-0.0022121139357,7.60666827879,0.0,0.0,0.0,0.0,0.0,0.0,0.0,0.0,0.0
23964000000,330,23964000000,imu_link,0.000266936095575,-0.366106140125,-0.000112604441543,0.930573054751,0.0,0.0,0.0,0.0,0.0,0.0,0.0,0.0,0.0,0.00162153084939,-0.0127380766745,-0.000459252253125,0.0,0.0,0.0,0.0,0.0,0.0,0.0,0.0,0.0,5.91541702679,-0.00224122242489,7.60622244414,0.0,0.0,0.0,0.0,0.0,0.0,0.0,0.0,0.0
23968000000,331,23968000000,imu_link,0.000270700875373,-0.366130789661,-0.000112274034823,0.930563355703,0.0,0.0,0.0,0.0,0.0,0.0,0.0,0.0,0.0,0.00181486562067,-0.0132442811719,-0.000532676857404,0.0,0.0,0.0,0.0,0.0,0.0,0.0,0.0,0.0,5.91790190798,-0.00220255743756,7.60201972063,0.0,0.0,0.0,0.0,0.0,0.0,0.0,0.0,0.0
23972000000,332,23972000000,imu_link,0.000275228964547,-0.366156070859,-0.000111852207578,0.930553407125,0.0,0.0,0.0,0.0,0.0,0.0,0.0,0.0,0.0,0.00218682465543,-0.013583807331,-0.000629804606924,0.0,0.0,0.0,0.0,0.0,0.0,0.0,0.0,0.0,5.92123698713,-0.00217226063065,7.59701605861,0.0,0.0,0.0,0.0,0.0,0.0,0.0,0.0,0.0
23976000000,333,23976000000,imu_link,0.000280812086644,-0.366181612306,-0.000111246580153,0.930543355023,0.0,0.0,0.0,0.0,0.0,0.0,0.0,0.0,0.0,0.0027113854739,-0.0137237639904,-0.00073740999523,0.0,0.0,0.0,0.0,0.0,0.0,0.0,0.0,0.0,5.9243749027,-0.0021028419469,7.59116693368,0.0,0.0,0.0,0.0,0.0,0.0,0.0,0.0,0.0
23980000000,334,23980000000,imu_link,0.000287415331571,-0.366207238774,-0.000110453174048,0.930533268326,0.0,0.0,0.0,0.0,0.0,0.0,0.0,0.0,0.0,0.00322040987034,-0.0137695725374,-0.000836806992309,0.0,0.0,0.0,0.0,0.0,0.0,0.0,0.0,0.0,5.92713921409,-0.00189460643001,7.58634192985,0.0,0.0,0.0,0.0,0.0,0.0,0.0,0.0,0.0
23984000000,335,23984000000,imu_link,0.000294792926874,-0.366233046856,-0.000109548016643,0.930523109056,0.0,0.0,0.0,0.0,0.0,0.0,0.0,0.0,0.0,0.00360117179073,-0.0138673011088,-0.000926577105754,0.0,0.0,0.0,0.0,0.0,0.0,0.0,0.0,0.0,5.92955899697,-0.00163915876321,7.58282174108,0.0,0.0,0.0,0.0,0.0,0.0,0.0,0.0,0.0
23988000000,336,23988000000,imu_link,0.000302600094321,-0.36625918276,-0.000108629815219,0.930512819727,0.0,0.0,0.0,0.0,0.0,0.0,0.0,0.0,0.0,0.00380346089582,-0.0140436144496,-0.000999128787115,0.0,0.0,0.0,0.0,0.0,0.0,0.0,0.0,0.0,5.93248386656,-0.00146694596727,7.58088025437,0.0,0.0,0.0,0.0,0.0,0.0,0.0,0.0,0.0
23992000000,337,23992000000,imu_link,0.000310712638095,-0.366285500114,-0.000107715703216,0.930502457956,0.0,0.0,0.0,0.0,0.0,0.0,0.0,0.0,0.0,0.00394481111135,-0.0141412852537,-0.00105693134036,0.0,0.0,0.0,0.0,0.0,0.0,0.0,0.0,0.0,5.93449771233,-0.00142417385183,7.57498460547,0.0,0.0,0.0,0.0,0.0,0.0,0.0,0.0,0.0
23996000000,338,23996000000,imu_link,0.000319096019314,-0.366311774824,-0.000106794949642,0.930492111948,0.0,0.0,0.0,0.0,0.0,0.0,0.0,0.0,0.0,0.00407203017588,-0.014118543028,-0.00110344903117,0.0,0.0,0.0,0.0,0.0,0.0,0.0,0.0,0.0,5.93669644006,-0.00142330122021,7.5692256524,0.0,0.0,0.0,0.0,0.0,0.0,0.0,0.0,0.0
24000000000,339,24000000000,imu_link,0.000327711273374,-0.36633779477,-0.000105861420715,0.93048186523,0.0,0.0,0.0,0.0,0.0,0.0,0.0,0.0,0.0,0.00418221853617,-0.01398181509,-0.00114000956968,0.0,0.0,0.0,0.0,0.0,0.0,0.0,0.0,0.0,5.93909904907,-0.00140927208462,7.5642574781,0.0,0.0,0.0,0.0,0.0,0.0,0.0,0.0,0.0
24004000000,340,24004000000,imu_link,0.0003365015692,-0.366363356158,-0.000104916331151,0.930471798081,0.0,0.0,0.0,0.0,0.0,0.0,0.0,0.0,0.0,0.00426571898481,-0.0137355722747,-0.00116675892861,0.0,0.0,0.0,0.0,0.0,0.0,0.0,0.0,0.0,5.94174769992,-0.00136655379698,7.55994250682,0.0,0.0,0.0,0.0,0.0,0.0,0.0,0.0,0.0
24008000000,341,24008000000,imu_link,0.000345346839951,-0.366388368449,-0.000103986900367,0.930461946233,0.0,0.0,0.0,0.0,0.0,0.0,0.0,0.0,0.0,0.00428836186282,-0.013440673667,-0.00118419544541,0.0,0.0,0.0,0.0,0.0,0.0,0.0,0.0,0.0,5.9444933498,-0.00130913157498,7.55693447216,0.0,0.0,0.0,0.0,0.0,0.0,0.0,0.0,0.0
24012000000,342,24012000000,imu_link,0.000353849927236,-0.366412873729,-0.000103125253968,0.930452293307,0.0,0.0,0.0,0.0,0.0,0.0,0.0,0.0,0.0,0.00411668910051,-0.0131683842661,-0.00115312202505,0.0,0.0,0.0,0.0,0.0,0.0,0.0,0.0,0.0,5.94787830618,-0.00123595151996,7.55586710724,0.0,0.0,0.0,0.0,0.0,0.0,0.0,0.0,0.0
24016000000,343,24016000000,imu_link,0.000361289297387,-0.366436855089,-0.000102393845619,0.930442846293,0.0,0.0,0.0,0.0,0.0,0.0,0.0,0.0,0.0,0.00359789618216,-0.0128869961579,-0.00101891442177,0.0,0.0,0.0,0.0,0.0,0.0,0.0,0.0,0.0,5.95100839847,-0.00116918143084,7.55406244533,0.0,0.0,0.0,0.0,0.0,0.0,0.0,0.0,0.0
24020000000,344,24020000000,imu_link,0.000367128146932,-0.36646038273,-0.00010183755358,0.93043357782,0.0,0.0,0.0,0.0,0.0,0.0,0.0,0.0,0.0,0.00282115969113,-0.0126433185679,-0.00080721023315,0.0,0.0,0.0,0.0,0.0,0.0,0.0,0.0,0.0,5.95396511597,-0.00123604747326,7.5522351873,0.0,0.0,0.0,0.0,0.0,0.0,0.0,0.0,0.0
24024000000,345,24024000000,imu_link,0.000371129542324,-0.366483523487,-0.000101486916591,0.930424461725,0.0,0.0,0.0,0.0,0.0,0.0,0.0,0.0,0.0,0.00192861528533,-0.0124355441308,-0.000566270598884,0.0,0.0,0.0,0.0,0.0,0.0,0.0,0.0,0.0,5.95645484876,-0.00142480453438,7.54909727077,0.0,0.0,0.0,0.0,0.0,0.0,0.0,0.0,0.0
24028000000,346,24028000000,imu_link,0.000373468884722,-0.366506192421,-0.000101327912616,0.930415531454,0.0,0.0,0.0,0.0,0.0,0.0,0.0,0.0,0.0,0.00112023430819,-0.0121821158325,-0.000350941225588,0.0,0.0,0.0,0.0,0.0,0.0,0.0,0.0,0.0,5.95903437523,-0.00165446215812,7.54500641724,0.0,0.0,0.0,0.0,0.0,0.0,0.0,0.0,0.0
24032000000,347,24032000000,imu_link,0.000374972303953,-0.366528328495,-0.00010122365549,0.930406810788,0.0,0.0,0.0,0.0,0.0,0.0,0.0,0.0,0.0,0.000721257692805,-0.0118958669634,-0.000223313260587,0.0,0.0,0.0,0.0,0.0,0.0,0.0,0.0,0.0,5.96367529436,-0.0019355276054,7.54598815563,0.0,0.0,0.0,0.0,0.0,0.0,0.0,0.0,0.0
24036000000,348,24036000000,imu_link,0.000376546564877,-0.366550085922,-0.000101030518784,0.930398238668,0.0,0.0,0.0,0.0,0.0,0.0,0.0,0.0,0.0,0.000770454916701,-0.0116924755019,-0.000195012393407,0.0,0.0,0.0,0.0,0.0,0.0,0.0,0.0,0.0,5.96711582234,-0.00216690300037,7.54623952025,0.0,0.0,0.0,0.0,0.0,0.0,0.0,0.0,0.0
24040000000,349,24040000000,imu_link,0.000378987303305,-0.36657179445,-0.00010062120307,0.930389684894,0.0,0.0,0.0,0.0,0.0,0.0,0.0,0.0,0.0,0.00121315378165,-0.0116662811525,-0.000253258090723,0.0,0.0,0.0,0.0,0.0,0.0,0.0,0.0,0.0,5.97035036092,-0.00230687622405,7.54724079494,0.0,0.0,0.0,0.0,0.0,0.0,0.0,0.0,0.0
24044000000,350,24044000000,imu_link,0.000382594674793,-0.366593696926,-9.99574882386e-05,0.930381053657,0.0,0.0,0.0,0.0,0.0,0.0,0.0,0.0,0.0,0.00180251767146,-0.0117705959552,-0.000348707466093,0.0,0.0,0.0,0.0,0.0,0.0,0.0,0.0,0.0,5.97217048454,-0.0022255106884,7.54432549629,0.0,0.0,0.0,0.0,0.0,0.0,0.0,0.0,0.0
24048000000,351,24048000000,imu_link,0.000387292938792,-0.366615931636,-9.90803741386e-05,0.930372290461,0.0,0.0,0.0,0.0,0.0,0.0,0.0,0.0,0.0,0.00234914779498,-0.0119492398881,-0.000449336347007,0.0,0.0,0.0,0.0,0.0,0.0,0.0,0.0,0.0,5.97472006992,-0.00202045333851,7.54207072989,0.0,0.0,0.0,0.0,0.0,0.0,0.0,0.0,0.0
24052000000,352,24052000000,imu_link,0.000392826034059,-0.366638491976,-9.80513867289e-05,0.930363397966,0.0,0.0,0.0,0.0,0.0,0.0,0.0,0.0,0.0,0.00276538049171,-0.0121243495009,-0.000531661557156,0.0,0.0,0.0,0.0,0.0,0.0,0.0,0.0,0.0,5.97730546584,-0.0018096825789,7.53902485278,0.0,0.0,0.0,0.0,0.0,0.0,0.0,0.0,0.0
24056000000,353,24056000000,imu_link,0.000399042583166,-0.366661294159,-9.68919051391e-05,0.930354409213,0.0,0.0,0.0,0.0,0.0,0.0,0.0,0.0,0.0,0.00310726356797,-0.01225443699,-0.000596205513549,0.0,0.0,0.0,0.0,0.0,0.0,0.0,0.0,0.0,5.97903035714,-0.00164557978079,7.53331384531,0.0,0.0,0.0,0.0,0.0,0.0,0.0,0.0,0.0
24060000000,354,24060000000,imu_link,0.000406161366706,-0.366684401243,-9.55371893734e-05,0.930345299225,0.0,0.0,0.0,0.0,0.0,0.0,0.0,0.0,0.0,0.00356279382799,-0.0124184133757,-0.000670739287069,0.0,0.0,0.0,0.0,0.0,0.0,0.0,0.0,0.0,5.98152964038,-0.00158054132376,7.53027546967,0.0,0.0,0.0,0.0,0.0,0.0,0.0,0.0,0.0
24064000000,355,24064000000,imu_link,0.000414625484797,-0.366708092576,-9.38596950238e-05,0.93033595766,0.0,0.0,0.0,0.0,0.0,0.0,0.0,0.0,0.0,0.00424786053904,-0.0127325185962,-0.000767140527234,0.0,0.0,0.0,0.0,0.0,0.0,0.0,0.0,0.0,5.98487152659,-0.00151992617478,7.53079204699,0.0,0.0,0.0,0.0,0.0,0.0,0.0,0.0,0.0
24068000000,356,24068000000,imu_link,0.000424846250592,-0.36673270279,-9.17790395434e-05,0.930326252337,0.0,0.0,0.0,0.0,0.0,0.0,0.0,0.0,0.0,0.00513903656137,-0.0132264827742,-0.000901517919105,0.0,0.0,0.0,0.0,0.0,0.0,0.0,0.0,0.0,5.98821231782,-0.00139967072607,7.53194218764,0.0,0.0,0.0,0.0,0.0,0.0,0.0,0.0,0.0
24072000000,357,24072000000,imu_link,0.000436770659239,-0.366758426544,-8.93135017493e-05,0.930316106393,0.0,0.0,0.0,0.0,0.0,0.0,0.0,0.0,0.0,0.00600222755979,-0.013825095619,-0.00103465931079,0.0,0.0,0.0,0.0,0.0,0.0,0.0,0.0,0.0,5.99159563229,-0.00110821052866,7.53208784135,0.0,0.0,0.0,0.0,0.0,0.0,0.0,0.0,0.0
24076000000,358,24076000000,imu_link,0.00044981236032,-0.366785423426,-8.65553510673e-05,0.930305457008,0.0,0.0,0.0,0.0,0.0,0.0,0.0,0.0,0.0,0.00657577105299,-0.0145095079352,-0.00110318072685,0.0,0.0,0.0,0.0,0.0,0.0,0.0,0.0,0.0,5.99495470742,-0.000733569477176,7.53179369895,0.0,0.0,0.0,0.0,0.0,0.0,0.0,0.0,0.0
24084000000,359,24084000000,imu_link,0.000475486432491,-0.366842163794,-8.06253459768e-05,0.930283072121,0.0,0.0,0.0,0.0,0.0,0.0,0.0,0.0,0.0,0.0063693274432,-0.015400182934,-0.000892263458371,0.0,0.0,0.0,0.0,0.0,0.0,0.0,0.0,0.0,6.00204805053,-0.000306298872015,7.53058259722,0.0,0.0,0.0,0.0,0.0,0.0,0.0,0.0,0.0
24088000000,360,24088000000,imu_link,0.000486857334482,-0.366870793159,-7.7645796537e-05,0.930271776455,0.0,0.0,0.0,0.0,0.0,0.0,0.0,0.0,0.0,0.0058394305978,-0.0153874031912,-0.000693399863881,0.0,0.0,0.0,0.0,0.0,0.0,0.0,0.0,0.0,6.00646602225,-0.000491122146965,7.52220584897,0.0,0.0,0.0,0.0,0.0,0.0,0.0,0.0,0.0
24092000000,361,24092000000,imu_link,0.000496980318916,-0.366898984077,-7.47215610241e-05,0.93026065321,0.0,0.0,0.0,0.0,0.0,0.0,0.0,0.0,0.0,0.00524877382979,-0.0151518996777,-0.000490316140813,0.0,0.0,0.0,0.0,0.0,0.0,0.0,0.0,0.0,6.0089728305,-0.000697585537221,7.516625551,0.0,0.0,0.0,0.0,0.0,0.0,0.0,0.0,0.0
24096000000,362,24096000000,imu_link,0.000505937146716,-0.366926396627,-7.18610280708e-05,0.930249836507,0.0,0.0,0.0,0.0,0.0,0.0,0.0,0.0,0.0,0.00469456755778,-0.0147336817875,-0.000306197254787,0.0,0.0,0.0,0.0,0.0,0.0,0.0,0.0,0.0,6.01039433377,-0.000912301740284,7.50919429845,0.0,0.0,0.0,0.0,0.0,0.0,0.0,0.0,0.0
24100000000,363,24100000000,imu_link,0.000513763342793,-0.366952799815,-6.90596207546e-05,0.930239417562,0.0,0.0,0.0,0.0,0.0,0.0,0.0,0.0,0.0,0.00415769830409,-0.0141912838367,-0.00012650979525,0.0,0.0,0.0,0.0,0.0,0.0,0.0,0.0,0.0,6.01202098549,-0.00108262901397,7.50310340683,0.0,0.0,0.0,0.0,0.0,0.0,0.0,0.0,0.0
24104000000,364,24104000000,imu_link,0.000520283677777,-0.366977995671,-6.63116845735e-05,0.9302294747,0.0,0.0,0.0,0.0,0.0,0.0,0.0,0.0,0.0,0.00354034189507,-0.0135424381549,8.79207154612e-05,0.0,0.0,0.0,0.0,0.0,0.0,0.0,0.0,0.0,6.01443680652,-0.00122993492499,7.49893747873,0.0,0.0,0.0,0.0,0.0,0.0,0.0,0.0,0.0
24108000000,365,24108000000,imu_link,0.000525315887407,-0.367001811475,-6.36223580771e-05,0.93022007631,0.0,0.0,0.0,0.0,0.0,0.0,0.0,0.0,0.0,0.00283725123291,-0.0128007166087,0.000333374160828,0.0,0.0,0.0,0.0,0.0,0.0,0.0,0.0,0.0,6.01673774359,-0.00140922177107,7.49502374613,0.0,0.0,0.0,0.0,0.0,0.0,0.0,0.0,0.0
24112000000,366,24112000000,imu_link,0.000528768031179,-0.367024188783,-6.10114317738e-05,0.930211245648,0.0,0.0,0.0,0.0,0.0,0.0,0.0,0.0,0.0,0.00208776535525,-0.012027549306,0.000586493187833,0.0,0.0,0.0,0.0,0.0,0.0,0.0,0.0,0.0,6.01889146642,-0.00165696093631,7.49146512726,0.0,0.0,0.0,0.0,0.0,0.0,0.0,0.0,0.0
24116000000,367,24116000000,imu_link,0.000530632713612,-0.36704514397,-5.84915856044e-05,0.930202976396,0.0,0.0,0.0,0.0,0.0,0.0,0.0,0.0,0.0,0.00133252204398,-0.0112631599523,0.000835090800608,0.0,0.0,0.0,0.0,0.0,0.0,0.0,0.0,0.0,6.02079408168,-0.00189802789205,7.48803256532,0.0,0.0,0.0,0.0,0.0,0.0,0.0,0.0,0.0
24120000000,368,24120000000,imu_link,0.000530956006053,-0.367064950495,-5.60769251689e-05,0.930195160737,0.0,0.0,0.0,0.0,0.0,0.0,0.0,0.0,0.0,0.000596161368666,-0.0106457440424,0.00106875712205,0.0,0.0,0.0,0.0,0.0,0.0,0.0,0.0,0.0,6.02301407852,-0.00209397813843,7.48719099554,0.0,0.0,0.0,0.0,0.0,0.0,0.0,0.0,0.0
24124000000,369,24124000000,imu_link,0.000529954325434,-0.367084101156,-5.37752473995e-05,0.930187604161,0.0,0.0,0.0,0.0,0.0,0.0,0.0,0.0,0.0,-4.09035538282e-05,-0.0102932203874,0.00125921788941,0.0,0.0,0.0,0.0,0.0,0.0,0.0,0.0,0.0,6.02629352254,-0.00226336475631,7.49035574954,0.0,0.0,0.0,0.0,0.0,0.0,0.0,0.0,0.0
24128000000,370,24128000000,imu_link,0.000528103851681,-0.36710308937,-5.16125173015e-05,0.930180111708,0.0,0.0,0.0,0.0,0.0,0.0,0.0,0.0,0.0,-0.000461196079591,-0.0102059572923,0.00135034210027,0.0,0.0,0.0,0.0,0.0,0.0,0.0,0.0,0.0,6.02994155494,-0.00250309651315,7.49468663264,0.0,0.0,0.0,0.0,0.0,0.0,0.0,0.0,0.0
24132000000,371,24132000000,imu_link,0.000525740839308,-0.36712241943,-4.96415110529e-05,0.930172484158,0.0,0.0,0.0,0.0,0.0,0.0,0.0,0.0,0.0,-0.000734719409506,-0.0103898078032,0.0013553372788,0.0,0.0,0.0,0.0,0.0,0.0,0.0,0.0,0.0,6.03327257588,-0.00270213956424,7.49821195903,0.0,0.0,0.0,0.0,0.0,0.0,0.0,0.0,0.0
24136000000,372,24136000000,imu_link,0.000522985418364,-0.36714228331,-4.7888975766e-05,0.93016464564,0.0,0.0,0.0,0.0,0.0,0.0,0.0,0.0,0.0,-0.000957257324166,-0.010676872764,0.00132589552131,0.0,0.0,0.0,0.0,0.0,0.0,0.0,0.0,0.0,6.0344081109,-0.00277536500748,7.49426856732,0.0,0.0,0.0,0.0,0.0,0.0,0.0,0.0,0.0
24140000000,373,24140000000,imu_link,0.000519807843901,-0.367162768767,-4.63726522729e-05,0.930156561489,0.0,0.0,0.0,0.0,0.0,0.0,0.0,0.0,0.0,-0.00119687601717,-0.0110111203467,0.00129368945118,0.0,0.0,0.0,0.0,0.0,0.0,0.0,0.0,0.0,6.0362588497,-0.00277746581952,7.49082253952,0.0,0.0,0.0,0.0,0.0,0.0,0.0,0.0,0.0
24144000000,374,24144000000,imu_link,0.000516328340588,-0.367183833529,-4.50520336897e-05,0.930148248276,0.0,0.0,0.0,0.0,0.0,0.0,0.0,0.0,0.0,-0.00137315138049,-0.0113226518702,0.00125824511723,0.0,0.0,0.0,0.0,0.0,0.0,0.0,0.0,0.0,6.03842166876,-0.00279949199122,7.48703870833,0.0,0.0,0.0,0.0,0.0,0.0,0.0,0.0,0.0
24148000000,375,24148000000,imu_link,0.000512809457532,-0.367205444961,-4.38347969246e-05,0.930139718696,0.0,0.0,0.0,0.0,0.0,0.0,0.0,0.0,0.0,-0.00141037777337,-0.0116166449916,0.00121753096792,0.0,0.0,0.0,0.0,0.0,0.0,0.0,0.0,0.0,6.04135793503,-0.00281738995252,7.48487226654,0.0,0.0,0.0,0.0,0.0,0.0,0.0,0.0,0.0
24152000000,376,24152000000,imu_link,0.000509487743496,-0.367227589368,-4.26430316295e-05,0.930130977987,0.0,0.0,0.0,0.0,0.0,0.0,0.0,0.0,0.0,-0.00132329122012,-0.0119032815579,0.00116961621593,0.0,0.0,0.0,0.0,0.0,0.0,0.0,0.0,0.0,6.04384980382,-0.00280169631797,7.48173257391,0.0,0.0,0.0,0.0,0.0,0.0,0.0,0.0,0.0
24156000000,377,24156000000,imu_link,0.000506405576578,-0.367250212216,-4.14678094107e-05,0.930122047616,0.0,0.0,0.0,0.0,0.0,0.0,0.0,0.0,0.0,-0.00121486514321,-0.0121606111988,0.00111805628245,0.0,0.0,0.0,0.0,0.0,0.0,0.0,0.0,0.0,6.04595162748,-0.00272177703264,7.47760370607,0.0,0.0,0.0,0.0,0.0,0.0,0.0,0.0,0.0
24160000000,378,24160000000,imu_link,0.000503226137628,-0.367273428643,-4.03872055555e-05,0.93011288226,0.0,0.0,0.0,0.0,0.0,0.0,0.0,0.0,0.0,-0.00127740507533,-0.0124798373185,0.00109205998073,0.0,0.0,0.0,0.0,0.0,0.0,0.0,0.0,0.0,6.04892843433,-0.00258035507681,7.47678886565,0.0,0.0,0.0,0.0,0.0,0.0,0.0,0.0,0.0
24164000000,379,24164000000,imu_link,0.000499461042359,-0.367297212332,-3.94812938316e-05,0.930103492517,0.0,0.0,0.0,0.0,0.0,0.0,0.0,0.0,0.0,-0.00158178029424,-0.0127849072198,0.00111850448124,0.0,0.0,0.0,0.0,0.0,0.0,0.0,0.0,0.0,6.051788547,-0.00240437186491,7.47495873251,0.0,0.0,0.0,0.0,0.0,0.0,0.0,0.0,0.0
24168000000,380,24168000000,imu_link,0.000494846049073,-0.367321459108,-3.87654902358e-05,0.930093919614,0.0,0.0,0.0,0.0,0.0,0.0,0.0,0.0,0.0,-0.00201188506132,-0.0130339681277,0.00118628898163,0.0,0.0,0.0,0.0,0.0,0.0,0.0,0.0,0.0,6.05459486033,-0.0022931526026,7.47246014033,0.0,0.0,0.0,0.0,0.0,0.0,0.0,0.0,0.0
24172000000,381,24172000000,imu_link,0.000489691464749,-0.367346091523,-3.81954653575e-05,0.930084193924,0.0,0.0,0.0,0.0,0.0,0.0,0.0,0.0,0.0,-0.00228954878127,-0.0132414159067,0.00121768917063,0.0,0.0,0.0,0.0,0.0,0.0,0.0,0.0,0.0,6.05706430151,-0.0023617429324,7.46937133473,0.0,0.0,0.0,0.0,0.0,0.0,0.0,0.0,0.0
