%time,field.header.seq,field.header.stamp,field.header.frame_id,field.orientation.x,field.orientation.y,field.orientation.z,field.orientation.w,field.orientation_covariance0,field.orientation_covariance1,field.orientation_covariance2,field.orientation_covariance3,field.orientation_covariance4,field.orientation_covariance5,field.orientation_covariance6,field.orientation_covariance7,field.orientation_covariance8,field.angular_velocity.x,field.angular_velocity.y,field.angular_velocity.z,field.angular_velocity_covariance0,field.angular_velocity_covariance1,field.angular_velocity_covariance2,field.angular_velocity_covariance3,field.angular_velocity_covariance4,field.angular_velocity_covariance5,field.angular_velocity_covariance6,field.angular_velocity_covariance7,field.angular_velocity_covariance8,field.linear_acceleration.x,field.linear_acceleration.y,field.linear_acceleration.z,field.linear_acceleration_covariance0,field.linear_acceleration_covariance1,field.linear_acceleration_covariance2,field.linear_acceleration_covariance3,field.linear_acceleration_covariance4,field.linear_acceleration_covariance5,field.linear_acceleration_covariance6,field.linear_acceleration_covariance7,field.linear_acceleration_covariance8
24476000000,0,24476000000,imu_link,0.000749108664124,-0.375252695334,0.000114527412762,0.926922240732,0.0,0.0,0.0,0.0,0.0,0.0,0.0,0.0,0.0,-0.000480012263098,-0.00702779331155,0.000721309962515,0.0,0.0,0.0,0.0,0.0,0.0,0.0,0.0,0.0,6.56371771179,0.00173116631588,7.05830942818,0.0,0.0,0.0,0.0,0.0,0.0,0.0,0.0,0.0
24480000000,1,24480000000,imu_link,0.000747740180885,-0.375266988388,0.000115525632704,0.926916455224,0.0,0.0,0.0,0.0,0.0,0.0,0.0,0.0,0.0,-0.000445597899186,-0.00770933651399,0.000725084469908,0.0,0.0,0.0,0.0,0.0,0.0,0.0,0.0,0.0,6.56289155259,0.00168004685007,7.0544634875,0.0,0.0,0.0,0.0,0.0,0.0,0.0,0.0,0.0
24484000000,2,24484000000,imu_link,0.000746761746742,-0.375282138273,0.000116551088795,0.92691032223,0.0,0.0,0.0,0.0,0.0,0.0,0.0,0.0,0.0,-0.000259635601268,-0.00817165402722,0.00066486142747,0.0,0.0,0.0,0.0,0.0,0.0,0.0,0.0,0.0,6.56385944893,0.00168055204732,7.05013980641,0.0,0.0,0.0,0.0,0.0,0.0,0.0,0.0,0.0
24488000000,3,24488000000,imu_link,0.000746124332411,-0.375297619805,0.000117585574486,0.926904054388,0.0,0.0,0.0,0.0,0.0,0.0,0.0,0.0,0.0,-9.98628624532e-05,-0.00835067711276,0.000605188609145,0.0,0.0,0.0,0.0,0.0,0.0,0.0,0.0,0.0,6.56475479615,0.00183615223089,7.04449528546,0.0,0.0,0.0,0.0,0.0,0.0,0.0,0.0,0.0
24492000000,4,24492000000,imu_link,0.000745349610498,-0.375313280361,0.000118613881336,0.926897713866,0.0,0.0,0.0,0.0,0.0,0.0,0.0,0.0,0.0,-0.00016464120351,-0.00844727834439,0.000628161677007,0.0,0.0,0.0,0.0,0.0,0.0,0.0,0.0,0.0,6.56532406659,0.00207862108679,7.04219247884,0.0,0.0,0.0,0.0,0.0,0.0,0.0,0.0,0.0
24496000000,5,24496000000,imu_link,0.000743875714185,-0.375329195649,0.000119615726399,0.926891270449,0.0,0.0,0.0,0.0,0.0,0.0,0.0,0.0,0.0,-0.000493615271195,-0.00858461157026,0.000747203745705,0.0,0.0,0.0,0.0,0.0,0.0,0.0,0.0,0.0,6.56608149488,0.00223024860428,7.0424119455,0.0,0.0,0.0,0.0,0.0,0.0,0.0,0.0,0.0
24500000000,6,24500000000,imu_link,0.000741354942057,-0.375345532375,0.000120603401943,0.926884656888,0.0,0.0,0.0,0.0,0.0,0.0,0.0,0.0,0.0,-0.00098140633734,-0.00881179740466,0.000937265397296,0.0,0.0,0.0,0.0,0.0,0.0,0.0,0.0,0.0,6.56679125248,0.00222324700528,7.04341955806,0.0,0.0,0.0,0.0,0.0,0.0,0.0,0.0,0.0
24504000000,7,24504000000,imu_link,0.000737802473707,-0.375362420629,0.00012158997323,0.926877820451,0.0,0.0,0.0,0.0,0.0,0.0,0.0,0.0,0.0,-0.00145969591885,-0.00910916480006,0.00113059280096,0.0,0.0,0.0,0.0,0.0,0.0,0.0,0.0,0.0,6.5666497478,0.00208134347777,7.04210725346,0.0,0.0,0.0,0.0,0.0,0.0,0.0,0.0,0.0
24508000000,8,24508000000,imu_link,0.000733396101465,-0.37537970137,0.000122565123195,0.926870825362,0.0,0.0,0.0,0.0,0.0,0.0,0.0,0.0,0.0,-0.00185753711022,-0.00932078688486,0.001285715866,0.0,0.0,0.0,0.0,0.0,0.0,0.0,0.0,0.0,6.56647361731,0.00193990703116,7.03840105067,0.0,0.0,0.0,0.0,0.0,0.0,0.0,0.0,0.0
24512000000,9,24512000000,imu_link,0.000728210091172,-0.375396922107,0.000123501382211,0.926863854797,0.0,0.0,0.0,0.0,0.0,0.0,0.0,0.0,0.0,-0.00222615374399,-0.00928834264403,0.00141399906561,0.0,0.0,0.0,0.0,0.0,0.0,0.0,0.0,0.0,6.56799411741,0.00185027644462,7.03519954864,0.0,0.0,0.0,0.0,0.0,0.0,0.0,0.0,0.0
24516000000,10,24516000000,imu_link,0.000722204554393,-0.375413740137,0.000124372769368,0.926857047591,0.0,0.0,0.0,0.0,0.0,0.0,0.0,0.0,0.0,-0.00261815944356,-0.00907102600274,0.0015376025209,0.0,0.0,0.0,0.0,0.0,0.0,0.0,0.0,0.0,6.56832896123,0.00180328938295,7.03069109626,0.0,0.0,0.0,0.0,0.0,0.0,0.0,0.0,0.0
24520000000,11,24520000000,imu_link,0.000715381676076,-0.375430197756,0.000125186167503,0.926850386616,0.0,0.0,0.0,0.0,0.0,0.0,0.0,0.0,0.0,-0.00300785415566,-0.00887652257856,0.00166401013628,0.0,0.0,0.0,0.0,0.0,0.0,0.0,0.0,0.0,6.56867393058,0.00173465230284,7.02956178635,0.0,0.0,0.0,0.0,0.0,0.0,0.0,0.0,0.0
24524000000,12,24524000000,imu_link,0.000707902120768,-0.375446758143,0.000125980415983,0.926843684125,0.0,0.0,0.0,0.0,0.0,0.0,0.0,0.0,0.0,-0.00331576107947,-0.00893190729,0.00177844324848,0.0,0.0,0.0,0.0,0.0,0.0,0.0,0.0,0.0,6.56967984764,0.00163604727855,7.03311770722,0.0,0.0,0.0,0.0,0.0,0.0,0.0,0.0,0.0
24528000000,13,24528000000,imu_link,0.000700074826906,-0.375464018126,0.000126787004558,0.926836698083,0.0,0.0,0.0,0.0,0.0,0.0,0.0,0.0,0.0,-0.00347453790051,-0.00930931791289,0.00184970605774,0.0,0.0,0.0,0.0,0.0,0.0,0.0,0.0,0.0,6.57204871383,0.00152746672708,7.04017514311,0.0,0.0,0.0,0.0,0.0,0.0,0.0,0.0,0.0
24532000000,14,24532000000,imu_link,0.000691988726558,-0.375482157519,0.000127574244759,0.926829355524,0.0,0.0,0.0,0.0,0.0,0.0,0.0,0.0,0.0,-0.003598036839,-0.009783772883,0.00188965635507,0.0,0.0,0.0,0.0,0.0,0.0,0.0,0.0,0.0,6.57258501043,0.00156151127221,7.04040383947,0.0,0.0,0.0,0.0,0.0,0.0,0.0,0.0,0.0
24536000000,15,24536000000,imu_link,0.000683559735764,-0.375501084082,0.00012832647082,0.926821693818,0.0,0.0,0.0,0.0,0.0,0.0,0.0,0.0,0.0,-0.00376345068539,-0.0102084661475,0.00193809762505,0.0,0.0,0.0,0.0,0.0,0.0,0.0,0.0,0.0,6.57269490008,0.00167977428684,7.03747052005,0.0,0.0,0.0,0.0,0.0,0.0,0.0,0.0,0.0
24540000000,16,24540000000,imu_link,0.000674466425296,-0.375520502553,0.000128998156034,0.926813832772,0.0,0.0,0.0,0.0,0.0,0.0,0.0,0.0,0.0,-0.00408638864767,-0.0104738328059,0.00202568141643,0.0,0.0,0.0,0.0,0.0,0.0,0.0,0.0,0.0,6.57370808513,0.00181416224956,7.03448806038,0.0,0.0,0.0,0.0,0.0,0.0,0.0,0.0,0.0
24544000000,17,24544000000,imu_link,0.000664439091654,-0.37554020847,0.00012954892752,0.926805855376,0.0,0.0,0.0,0.0,0.0,0.0,0.0,0.0,0.0,-0.00454190354212,-0.0106288633791,0.00214512602521,0.0,0.0,0.0,0.0,0.0,0.0,0.0,0.0,0.0,6.5738940496,0.00185019034859,7.03101060037,0.0,0.0,0.0,0.0,0.0,0.0,0.0,0.0,0.0
24548000000,18,24548000000,imu_link,0.000653524359854,-0.375560208219,0.000129982306794,0.92679775896,0.0,0.0,0.0,0.0,0.0,0.0,0.0,0.0,0.0,-0.00497514868614,-0.0107873562952,0.00225745830117,0.0,0.0,0.0,0.0,0.0,0.0,0.0,0.0,0.0,6.57399446881,0.0017746488909,7.02933599943,0.0,0.0,0.0,0.0,0.0,0.0,0.0,0.0,0.0
24552000000,19,24552000000,imu_link,0.000642014448205,-0.375580666274,0.000130325581472,0.926789476609,0.0,0.0,0.0,0.0,0.0,0.0,0.0,0.0,0.0,-0.00526784324171,-0.0110346400387,0.00232762870782,0.0,0.0,0.0,0.0,0.0,0.0,0.0,0.0,0.0,6.57457390094,0.00168997760722,7.02982780883,0.0,0.0,0.0,0.0,0.0,0.0,0.0,0.0,0.0
24556000000,20,24556000000,imu_link,0.000630195652909,-0.375601603823,0.0001306179986,0.926780999481,0.0,0.0,0.0,0.0,0.0,0.0,0.0,0.0,0.0,-0.00542049757472,-0.0112934088508,0.00236223356291,0.0,0.0,0.0,0.0,0.0,0.0,0.0,0.0,0.0,6.57529741501,0.00166066030809,7.02914894781,0.0,0.0,0.0,0.0,0.0,0.0,0.0,0.0,0.0
24560000000,21,24560000000,imu_link,0.000618257360783,-0.375622741014,0.000130878195178,0.926772440819,0.0,0.0,0.0,0.0,0.0,0.0,0.0,0.0,0.0,-0.00548190966313,-0.011401235592,0.00236981269866,0.0,0.0,0.0,0.0,0.0,0.0,0.0,0.0,0.0,6.57670477773,0.00167896268132,7.02724825056,0.0,0.0,0.0,0.0,0.0,0.0,0.0,0.0,0.0
24564000000,22,24564000000,imu_link,0.000606216037215,-0.375643578195,0.000131093935962,0.926764003119,0.0,0.0,0.0,0.0,0.0,0.0,0.0,0.0,0.0,-0.00553802007768,-0.0112395038795,0.00236846231481,0.0,0.0,0.0,0.0,0.0,0.0,0.0,0.0,0.0,6.5792058633,0.00174762018355,7.02567273928,0.0,0.0,0.0,0.0,0.0,0.0,0.0,0.0,0.0
24568000000,23,24568000000,imu_link,0.000594092062234,-0.375663734121,0.000131251834631,0.926755840928,0.0,0.0,0.0,0.0,0.0,0.0,0.0,0.0,0.0,-0.00558722211897,-0.0108720882045,0.00235695850391,0.0,0.0,0.0,0.0,0.0,0.0,0.0,0.0,0.0,6.58053165894,0.00179011564723,7.0228856641,0.0,0.0,0.0,0.0,0.0,0.0,0.0,0.0,0.0
24572000000,24,24572000000,imu_link,0.000581945293241,-0.37568300781,0.000131346742986,0.926748035731,0.0,0.0,0.0,0.0,0.0,0.0,0.0,0.0,0.0,-0.0056096640951,-0.0103962411558,0.0023317661315,0.0,0.0,0.0,0.0,0.0,0.0,0.0,0.0,0.0,6.5805120109,0.00180831298274,7.01914109087,0.0,0.0,0.0,0.0,0.0,0.0,0.0,0.0,0.0
24576000000,25,24576000000,imu_link,0.000569938568566,-0.37570140447,0.000131409024291,0.926740585375,0.0,0.0,0.0,0.0,0.0,0.0,0.0,0.0,0.0,-0.00555094556268,-0.0099232136871,0.00229006297395,0.0,0.0,0.0,0.0,0.0,0.0,0.0,0.0,0.0,6.58072380467,0.00189694688753,7.01775807269,0.0,0.0,0.0,0.0,0.0,0.0,0.0,0.0,0.0
24580000000,26,24580000000,imu_link,0.000558217979548,-0.375719151223,0.000131471346278,0.926733397754,0.0,0.0,0.0,0.0,0.0,0.0,0.0,0.0,0.0,-0.00541838332636,-0.00957272999161,0.00223612857408,0.0,0.0,0.0,0.0,0.0,0.0,0.0,0.0,0.0,6.58129761394,0.00205414550347,7.01920223015,0.0,0.0,0.0,0.0,0.0,0.0,0.0,0.0,0.0
24584000000,27,24584000000,imu_link,0.000546953394053,-0.375736382569,0.000131582071098,0.926726418282,0.0,0.0,0.0,0.0,0.0,0.0,0.0,0.0,0.0,-0.00519801775943,-0.00929482107272,0.00217273466929,0.0,0.0,0.0,0.0,0.0,0.0,0.0,0.0,0.0,6.58122026526,0.00222983105855,7.01848106096,0.0,0.0,0.0,0.0,0.0,0.0,0.0,0.0,0.0
24588000000,28,24588000000,imu_link,0.000536227409508,-0.375753023335,0.000131754881661,0.926719677441,0.0,0.0,0.0,0.0,0.0,0.0,0.0,0.0,0.0,-0.00493681236316,-0.00897635541214,0.00210013972233,0.0,0.0,0.0,0.0,0.0,0.0,0.0,0.0,0.0,6.58159296632,0.00240202426319,7.01668616238,0.0,0.0,0.0,0.0,0.0,0.0,0.0,0.0,0.0
24592000000,29,24592000000,imu_link,0.00052618652683,-0.375768792439,0.000132004565457,0.926713289174,0.0,0.0,0.0,0.0,0.0,0.0,0.0,0.0,0.0,-0.00460495810507,-0.00850624657337,0.00200678821114,0.0,0.0,0.0,0.0,0.0,0.0,0.0,0.0,0.0,6.5821087453,0.00253228149057,7.0131917176,0.0,0.0,0.0,0.0,0.0,0.0,0.0,0.0,0.0
24596000000,30,24596000000,imu_link,0.000516764410929,-0.375783520741,0.000132304686533,0.926707322184,0.0,0.0,0.0,0.0,0.0,0.0,0.0,0.0,0.0,-0.00430881416891,-0.00794485994337,0.00191360040405,0.0,0.0,0.0,0.0,0.0,0.0,0.0,0.0,0.0,6.58211192285,0.00269755121898,7.0099841094,0.0,0.0,0.0,0.0,0.0,0.0,0.0,0.0,0.0
24600000000,31,24600000000,imu_link,0.000507746599169,-0.375797147276,0.000132647102648,0.926701801389,0.0,0.0,0.0,0.0,0.0,0.0,0.0,0.0,0.0,-0.00411357388037,-0.00735053172117,0.0018569183547,0.0,0.0,0.0,0.0,0.0,0.0,0.0,0.0,0.0,6.58264431359,0.00287908746172,7.00867331486,0.0,0.0,0.0,0.0,0.0,0.0,0.0,0.0,0.0
24604000000,32,24604000000,imu_link,0.000498970878015,-0.375809830688,0.000133018989092,0.92669666261,0.0,0.0,0.0,0.0,0.0,0.0,0.0,0.0,0.0,-0.00399589797931,-0.00684176328307,0.0018248202084,0.0,0.0,0.0,0.0,0.0,0.0,0.0,0.0,0.0,6.58387032373,0.00299965267993,7.01068409882,0.0,0.0,0.0,0.0,0.0,0.0,0.0,0.0,0.0
24608000000,33,24608000000,imu_link,0.000490416116732,-0.375821858952,0.000133442485124,0.926691789118,0.0,0.0,0.0,0.0,0.0,0.0,0.0,0.0,0.0,-0.00388384150787,-0.00648835459847,0.00180703288479,0.0,0.0,0.0,0.0,0.0,0.0,0.0,0.0,0.0,6.5847992122,0.00308264831721,7.01329349442,0.0,0.0,0.0,0.0,0.0,0.0,0.0,0.0,0.0
24612000000,34,24612000000,imu_link,0.000482190682882,-0.375833466486,0.000133983200745,0.926687085812,0.0,0.0,0.0,0.0,0.0,0.0,0.0,0.0,0.0,-0.00370923581124,-0.00626142424347,0.00179934735481,0.0,0.0,0.0,0.0,0.0,0.0,0.0,0.0,0.0,6.58591417756,0.00312284226672,7.01552881349,0.0,0.0,0.0,0.0,0.0,0.0,0.0,0.0,0.0
24616000000,35,24616000000,imu_link,0.000474325739734,-0.375844933758,0.000134670443977,0.926682438944,0.0,0.0,0.0,0.0,0.0,0.0,0.0,0.0,0.0,-0.00351467399317,-0.00618581832944,0.00179946014433,0.0,0.0,0.0,0.0,0.0,0.0,0.0,0.0,0.0,6.58744582783,0.00319934391774,7.0186632722,0.0,0.0,0.0,0.0,0.0,0.0,0.0,0.0,0.0
24620000000,36,24620000000,imu_link,0.000466930002216,-0.375856315652,0.000135501009078,0.926677826216,0.0,0.0,0.0,0.0,0.0,0.0,0.0,0.0,0.0,-0.00327034063254,-0.00613984044199,0.00177767024747,0.0,0.0,0.0,0.0,0.0,0.0,0.0,0.0,0.0,6.58854777539,0.00328699937469,7.0190474203,0.0,0.0,0.0,0.0,0.0,0.0,0.0,0.0,0.0
24624000000,37,24624000000,imu_link,0.000460279158126,-0.375867636968,0.000136473828688,0.926673237446,0.0,0.0,0.0,0.0,0.0,0.0,0.0,0.0,0.0,-0.00289847038266,-0.00610728779611,0.00170358008119,0.0,0.0,0.0,0.0,0.0,0.0,0.0,0.0,0.0,6.58949972726,0.0033958233583,7.01940233851,0.0,0.0,0.0,0.0,0.0,0.0,0.0,0.0,0.0
24628000000,38,24628000000,imu_link,0.000454717213993,-0.375879136716,0.000137617276371,0.92666857553,0.0,0.0,0.0,0.0,0.0,0.0,0.0,0.0,0.0,-0.00236187171508,-0.00620374322373,0.00157804324449,0.0,0.0,0.0,0.0,0.0,0.0,0.0,0.0,0.0,6.58956616905,0.00357155160857,7.01979898575,0.0,0.0,0.0,0.0,0.0,0.0,0.0,0.0,0.0
24632000000,39,24632000000,imu_link,0.000450359151727,-0.375891142146,0.000138921077101,0.926663707681,0.0,0.0,0.0,0.0,0.0,0.0,0.0,0.0,0.0,-0.00177392325964,-0.00647679261611,0.00142621241157,0.0,0.0,0.0,0.0,0.0,0.0,0.0,0.0,0.0,6.59045491083,0.00380280021309,7.02244874717,0.0,0.0,0.0,0.0,0.0,0.0,0.0,0.0,0.0
24636000000,40,24636000000,imu_link,0.000447217633866,-0.375903887026,0.000140324493767,0.926658539066,0.0,0.0,0.0,0.0,0.0,0.0,0.0,0.0,0.0,-0.00119152074742,-0.00687599272224,0.00124391091557,0.0,0.0,0.0,0.0,0.0,0.0,0.0,0.0,0.0,6.59134558534,0.00400173154994,7.02409732475,0.0,0.0,0.0,0.0,0.0,0.0,0.0,0.0,0.0
24640000000,41,24640000000,imu_link,0.000445138875849,-0.375917347611,0.000141754254137,0.926653079379,0.0,0.0,0.0,0.0,0.0,0.0,0.0,0.0,0.0,-0.000694146784376,-0.00726237661439,0.00105654940692,0.0,0.0,0.0,0.0,0.0,0.0,0.0,0.0,0.0,6.59370970374,0.00419813887065,7.0261351512,0.0,0.0,0.0,0.0,0.0,0.0,0.0,0.0,0.0
24644000000,42,24644000000,imu_link,0.000443859295033,-0.375931337667,0.000143164835535,0.926647404277,0.0,0.0,0.0,0.0,0.0,0.0,0.0,0.0,0.0,-0.000327461213354,-0.00754824426088,0.000897584105486,0.0,0.0,0.0,0.0,0.0,0.0,0.0,0.0,0.0,6.59430371109,0.00439225129304,7.0234626646,0.0,0.0,0.0,0.0,0.0,0.0,0.0,0.0,0.0
24648000000,43,24648000000,imu_link,0.000443054010054,-0.375945602375,0.000144540170982,0.926641617275,0.0,0.0,0.0,0.0,0.0,0.0,0.0,0.0,0.0,-0.000114328565663,-0.00769657184101,0.000792171449534,0.0,0.0,0.0,0.0,0.0,0.0,0.0,0.0,0.0,6.59520159615,0.00454481607704,7.02095028057,0.0,0.0,0.0,0.0,0.0,0.0,0.0,0.0,0.0
24652000000,44,24652000000,imu_link,0.000442583576725,-0.375960008433,0.000145922625764,0.926635772505,0.0,0.0,0.0,0.0,0.0,0.0,0.0,0.0,0.0,4.21559946981e-05,-0.00777294433986,0.000732562471369,0.0,0.0,0.0,0.0,0.0,0.0,0.0,0.0,0.0,6.596140582,0.00461822739024,7.01943175564,0.0,0.0,0.0,0.0,0.0,0.0,0.0,0.0,0.0
24656000000,45,24656000000,imu_link,0.000442332501918,-0.375974532971,0.000147337448688,0.926629879289,0.0,0.0,0.0,0.0,0.0,0.0,0.0,0.0,0.0,0.000149875361546,-0.00783695360958,0.000706353947769,0.0,0.0,0.0,0.0,0.0,0.0,0.0,0.0,0.0,6.59689190135,0.00465894709441,7.01846344037,0.0,0.0,0.0,0.0,0.0,0.0,0.0,0.0,0.0
24660000000,46,24660000000,imu_link,0.000442159344942,-0.375989281422,0.000148776564894,0.926623894909,0.0,0.0,0.0,0.0,0.0,0.0,0.0,0.0,0.0,0.000190546351122,-0.00795783395128,0.000703018066087,0.0,0.0,0.0,0.0,0.0,0.0,0.0,0.0,0.0,6.59802139544,0.00467588960262,7.01941449062,0.0,0.0,0.0,0.0,0.0,0.0,0.0,0.0,0.0
24664000000,47,24664000000,imu_link,0.000441925248146,-0.376004399503,0.000150187967793,0.926617760298,0.0,0.0,0.0,0.0,0.0,0.0,0.0,0.0,0.0,0.000157107968032,-0.00815733159776,0.000701727412291,0.0,0.0,0.0,0.0,0.0,0.0,0.0,0.0,0.0,6.59871505358,0.00467171810405,7.01961992592,0.0,0.0,0.0,0.0,0.0,0.0,0.0,0.0,0.0
24668000000,48,24668000000,imu_link,0.000441461171687,-0.376019818842,0.000151565308809,0.926611503262,0.0,0.0,0.0,0.0,0.0,0.0,0.0,0.0,0.0,4.41570676117e-05,-0.00831991418429,0.000729258682278,0.0,0.0,0.0,0.0,0.0,0.0,0.0,0.0,0.0,6.59917478408,0.00469764323347,7.0177703448,0.0,0.0,0.0,0.0,0.0,0.0,0.0,0.0,0.0
24672000000,49,24672000000,imu_link,0.000440598407532,-0.376035314949,0.000152900041384,0.926605214968,0.0,0.0,0.0,0.0,0.0,0.0,0.0,0.0,0.0,-0.000148566961882,-0.00836133719996,0.000784494498009,0.0,0.0,0.0,0.0,0.0,0.0,0.0,0.0,0.0,6.5995209981,0.00473700050355,7.01438058911,0.0,0.0,0.0,0.0,0.0,0.0,0.0,0.0,0.0
24676000000,50,24676000000,imu_link,0.000439311777517,-0.376050647086,0.000154182103646,0.926598993125,0.0,0.0,0.0,0.0,0.0,0.0,0.0,0.0,0.0,-0.000354850172493,-0.00827285446349,0.000839745268367,0.0,0.0,0.0,0.0,0.0,0.0,0.0,0.0,0.0,6.60060948083,0.00472942020223,7.01215813687,0.0,0.0,0.0,0.0,0.0,0.0,0.0,0.0,0.0
24680000000,51,24680000000,imu_link,0.000437730787154,-0.376065656678,0.000155404255119,0.926592902039,0.0,0.0,0.0,0.0,0.0,0.0,0.0,0.0,0.0,-0.000502495775673,-0.00809882447629,0.000867254900084,0.0,0.0,0.0,0.0,0.0,0.0,0.0,0.0,0.0,6.60142479197,0.00465306865897,7.01072104821,0.0,0.0,0.0,0.0,0.0,0.0,0.0,0.0,0.0
24684000000,52,24684000000,imu_link,0.000435921941947,-0.376080329849,0.000156581519411,0.926586947326,0.0,0.0,0.0,0.0,0.0,0.0,0.0,0.0,0.0,-0.000616504086231,-0.00791731144834,0.000889218792192,0.0,0.0,0.0,0.0,0.0,0.0,0.0,0.0,0.0,6.60121975478,0.00456431889827,7.00853191812,0.0,0.0,0.0,0.0,0.0,0.0,0.0,0.0,0.0
24688000000,53,24688000000,imu_link,0.000433787105409,-0.376094891485,0.000157729424123,0.926581037767,0.0,0.0,0.0,0.0,0.0,0.0,0.0,0.0,0.0,-0.000773055632422,-0.00785712831396,0.000936888308274,0.0,0.0,0.0,0.0,0.0,0.0,0.0,0.0,0.0,6.60206950718,0.00452312514208,7.01036375287,0.0,0.0,0.0,0.0,0.0,0.0,0.0,0.0,0.0
24692000000,54,24692000000,imu_link,0.000431463968147,-0.376109404053,0.000158882970755,0.926575147939,0.0,0.0,0.0,0.0,0.0,0.0,0.0,0.0,0.0,-0.000859233034222,-0.00783066891952,0.000974899428112,0.0,0.0,0.0,0.0,0.0,0.0,0.0,0.0,0.0,6.60249800476,0.00444108171303,7.00987303532,0.0,0.0,0.0,0.0,0.0,0.0,0.0,0.0,0.0
24696000000,55,24696000000,imu_link,0.000429095109624,-0.376123771855,0.000160041628979,0.926569316624,0.0,0.0,0.0,0.0,0.0,0.0,0.0,0.0,0.0,-0.000879454989433,-0.00775259178226,0.000985829784245,0.0,0.0,0.0,0.0,0.0,0.0,0.0,0.0,0.0,6.60354432679,0.00437664645839,7.00954215018,0.0,0.0,0.0,0.0,0.0,0.0,0.0,0.0,0.0
24700000000,56,24700000000,imu_link,0.000426860865253,-0.376137785536,0.000161208496085,0.926563628735,0.0,0.0,0.0,0.0,0.0,0.0,0.0,0.0,0.0,-0.000815548974898,-0.00756156964419,0.000964229589197,0.0,0.0,0.0,0.0,0.0,0.0,0.0,0.0,0.0,6.60572456388,0.00433461707554,7.0100409565,0.0,0.0,0.0,0.0,0.0,0.0,0.0,0.0,0.0
24704000000,57,24704000000,imu_link,0.000424871474769,-0.376151240658,0.000162378291549,0.926558167234,0.0,0.0,0.0,0.0,0.0,0.0,0.0,0.0,0.0,-0.000701565184929,-0.0072602416623,0.000919399383394,0.0,0.0,0.0,0.0,0.0,0.0,0.0,0.0,0.0,6.60572342065,0.00431753796328,7.00645245181,0.0,0.0,0.0,0.0,0.0,0.0,0.0,0.0,0.0
24708000000,58,24708000000,imu_link,0.00042323134025,-0.376164151421,0.000163545448126,0.926552926343,0.0,0.0,0.0,0.0,0.0,0.0,0.0,0.0,0.0,-0.000540261180717,-0.00696658917117,0.000852356757443,0.0,0.0,0.0,0.0,0.0,0.0,0.0,0.0,0.0,6.60602419613,0.00431450347432,7.00517747564,0.0,0.0,0.0,0.0,0.0,0.0,0.0,0.0,0.0
24712000000,59,24712000000,imu_link,0.000422042108252,-0.37617649897,0.000164716319353,0.926547913694,0.0,0.0,0.0,0.0,0.0,0.0,0.0,0.0,0.0,-0.000330672241098,-0.0066627733919,0.000769133136503,0.0,0.0,0.0,0.0,0.0,0.0,0.0,0.0,0.0,6.60650619229,0.00437976162522,7.0039751664,0.0,0.0,0.0,0.0,0.0,0.0,0.0,0.0,0.0
24716000000,60,24716000000,imu_link,0.000421579203606,-0.376188288756,0.000165897727172,0.926543126979,0.0,0.0,0.0,0.0,0.0,0.0,0.0,0.0,0.0,7.79637405148e-06,-0.00636193804651,0.000637264517773,0.0,0.0,0.0,0.0,0.0,0.0,0.0,0.0,0.0,6.60693195256,0.00445611195577,7.00317559791,0.0,0.0,0.0,0.0,0.0,0.0,0.0,0.0,0.0
24720000000,61,24720000000,imu_link,0.000422124055883,-0.376199635474,0.000167123735,0.926538519518,0.0,0.0,0.0,0.0,0.0,0.0,0.0,0.0,0.0,0.000483049467279,-0.0061230351861,0.000468264994145,0.0,0.0,0.0,0.0,0.0,0.0,0.0,0.0,0.0,6.60815013641,0.00456755114992,7.00463240577,0.0,0.0,0.0,0.0,0.0,0.0,0.0,0.0,0.0
24724000000,62,24724000000,imu_link,0.000423651010332,-0.376210513055,0.000168391960907,0.926534101925,0.0,0.0,0.0,0.0,0.0,0.0,0.0,0.0,0.0,0.000945967554464,-0.00587005723702,0.000302975210241,0.0,0.0,0.0,0.0,0.0,0.0,0.0,0.0,0.0,6.60863419316,0.00474897897517,7.00332866798,0.0,0.0,0.0,0.0,0.0,0.0,0.0,0.0,0.0
24728000000,63,24728000000,imu_link,0.00042608484142,-0.376220881607,0.000169702957596,0.926529890449,0.0,0.0,0.0,0.0,0.0,0.0,0.0,0.0,0.0,0.00137413822718,-0.00559553625498,0.000152076061915,0.0,0.0,0.0,0.0,0.0,0.0,0.0,0.0,0.0,6.60870448542,0.00487746895611,7.00128036332,0.0,0.0,0.0,0.0,0.0,0.0,0.0,0.0,0.0
24732000000,64,24732000000,imu_link,0.00042924653581,-0.376230955985,0.000171054184399,0.926525797939,0.0,0.0,0.0,0.0,0.0,0.0,0.0,0.0,0.0,0.00171889909996,-0.00543693055619,3.37218110153e-05,0.0,0.0,0.0,0.0,0.0,0.0,0.0,0.0,0.0,6.61040198194,0.0049701054903,7.00467051857,0.0,0.0,0.0,0.0,0.0,0.0,0.0,0.0,0.0
24736000000,65,24736000000,imu_link,0.00043308332483,-0.376241311912,0.000172474894454,0.926521590629,0.0,0.0,0.0,0.0,0.0,0.0,0.0,0.0,0.0,0.00204471683004,-0.00558899989194,-6.10146799667e-05,0.0,0.0,0.0,0.0,0.0,0.0,0.0,0.0,0.0,6.61295148251,0.00503386162572,7.01269489831,0.0,0.0,0.0,0.0,0.0,0.0,0.0,0.0,0.0
24740000000,66,24740000000,imu_link,0.000437543055399,-0.376252385221,0.000173982710544,0.926517091532,0.0,0.0,0.0,0.0,0.0,0.0,0.0,0.0,0.0,0.00234968899012,-0.00597626120958,-0.000137669535655,0.0,0.0,0.0,0.0,0.0,0.0,0.0,0.0,0.0,6.61473357202,0.00509004401619,7.01807534301,0.0,0.0,0.0,0.0,0.0,0.0,0.0,0.0,0.0
24744000000,67,24744000000,imu_link,0.000442373207455,-0.376264262856,0.000175585922043,0.92651226542,0.0,0.0,0.0,0.0,0.0,0.0,0.0,0.0,0.0,0.00253923785726,-0.00641040352804,-0.000162958370085,0.0,0.0,0.0,0.0,0.0,0.0,0.0,0.0,0.0,6.61525478593,0.00518413710348,7.01805551947,0.0,0.0,0.0,0.0,0.0,0.0,0.0,0.0,0.0
24748000000,68,24748000000,imu_link,0.000447093397387,-0.376276609171,0.000177256682384,0.9265072488,0.0,0.0,0.0,0.0,0.0,0.0,0.0,0.0,0.0,0.00250100632753,-0.00666333860397,-0.000110858155058,0.0,0.0,0.0,0.0,0.0,0.0,0.0,0.0,0.0,6.61616232222,0.00526918821659,7.01486122713,0.0,0.0,0.0,0.0,0.0,0.0,0.0,0.0,0.0
24752000000,69,24752000000,imu_link,0.000451291697503,-0.376288834958,0.000178966416377,0.926502281159,0.0,0.0,0.0,0.0,0.0,0.0,0.0,0.0,0.0,0.00226657114832,-0.00659823343133,5.35271143911e-06,0.0,0.0,0.0,0.0,0.0,0.0,0.0,0.0,0.0,6.61845071554,0.00526562433417,7.01187026477,0.0,0.0,0.0,0.0,0.0,0.0,0.0,0.0,0.0
24756000000,70,24756000000,imu_link,0.000454936879669,-0.376300550011,0.000180714780243,0.926497521009,0.0,0.0,0.0,0.0,0.0,0.0,0.0,0.0,0.0,0.00201760550496,-0.00632253902217,0.000127180286352,0.0,0.0,0.0,0.0,0.0,0.0,0.0,0.0,0.0,6.61990944892,0.00513971861541,7.0090994501,0.0,0.0,0.0,0.0,0.0,0.0,0.0,0.0,0.0
24760000000,71,24760000000,imu_link,0.000458230128197,-0.376311585497,0.00018252229262,0.92649303685,0.0,0.0,0.0,0.0,0.0,0.0,0.0,0.0,0.0,0.00186570011663,-0.00595575741235,0.00022061765353,0.0,0.0,0.0,0.0,0.0,0.0,0.0,0.0,0.0,6.62021179244,0.00501004911441,7.00657563544,0.0,0.0,0.0,0.0,0.0,0.0,0.0,0.0,0.0
24764000000,72,24764000000,imu_link,0.000461627505652,-0.376321872728,0.000184448242054,0.926488856374,0.0,0.0,0.0,0.0,0.0,0.0,0.0,0.0,0.0,0.00193622080585,-0.00555197360939,0.000255691596434,0.0,0.0,0.0,0.0,0.0,0.0,0.0,0.0,0.0,6.62049305595,0.00489434554944,7.00507011583,0.0,0.0,0.0,0.0,0.0,0.0,0.0,0.0,0.0
24768000000,73,24768000000,imu_link,0.000465598353261,-0.376331432351,0.000186568676535,0.926484970971,0.0,0.0,0.0,0.0,0.0,0.0,0.0,0.0,0.0,0.00223847114442,-0.00515939971946,0.000237685874667,0.0,0.0,0.0,0.0,0.0,0.0,0.0,0.0,0.0,6.6219306958,0.00483959631597,7.00619623409,0.0,0.0,0.0,0.0,0.0,0.0,0.0,0.0,0.0
24772000000,74,24772000000,imu_link,0.000470381841636,-0.376340538076,0.000188944969171,0.926481269342,0.0,0.0,0.0,0.0,0.0,0.0,0.0,0.0,0.0,0.0026630641646,-0.00491457149476,0.000203176300705,0.0,0.0,0.0,0.0,0.0,0.0,0.0,0.0,0.0,6.62201177237,0.00482894303495,7.00703426799,0.0,0.0,0.0,0.0,0.0,0.0,0.0,0.0,0.0
24776000000,75,24776000000,imu_link,0.000476037773117,-0.376349616675,0.000191576283238,0.926477578096,0.0,0.0,0.0,0.0,0.0,0.0,0.0,0.0,0.0,0.00311520283497,-0.00490007382869,0.000157137374831,0.0,0.0,0.0,0.0,0.0,0.0,0.0,0.0,0.0,6.62315307595,0.00482826447272,7.01098913945,0.0,0.0,0.0,0.0,0.0,0.0,0.0,0.0,0.0
24780000000,76,24780000000,imu_link,0.000482373970841,-0.37635924982,0.000194402644035,0.926473661038,0.0,0.0,0.0,0.0,0.0,0.0,0.0,0.0,0.0,0.00346703205465,-0.00519947259922,0.000119635239201,0.0,0.0,0.0,0.0,0.0,0.0,0.0,0.0,0.0,6.62533938189,0.00491113574237,7.01831844021,0.0,0.0,0.0,0.0,0.0,0.0,0.0,0.0,0.0
24784000000,77,24784000000,imu_link,0.000489097734617,-0.37636984328,0.000197350552178,0.926469353463,0.0,0.0,0.0,0.0,0.0,0.0,0.0,0.0,0.0,0.00366944050256,-0.00571782097785,0.000103277985767,0.0,0.0,0.0,0.0,0.0,0.0,0.0,0.0,0.0,6.625059113,0.00498550542608,7.01953207939,0.0,0.0,0.0,0.0,0.0,0.0,0.0,0.0,0.0
24788000000,78,24788000000,imu_link,0.000495993073742,-0.376381668308,0.000200366024078,0.92646454525,0.0,0.0,0.0,0.0,0.0,0.0,0.0,0.0,0.0,0.00376163553923,-0.00638253925904,0.000102638547098,0.0,0.0,0.0,0.0,0.0,0.0,0.0,0.0,0.0,6.6253220589,0.00502011390456,7.02036791689,0.0,0.0,0.0,0.0,0.0,0.0,0.0,0.0,0.0
24792000000,79,24792000000,imu_link,0.000503039477861,-0.376394805692,0.000203441107628,0.926459203533,0.0,0.0,0.0,0.0,0.0,0.0,0.0,0.0,0.0,0.00384283291766,-0.00709086579099,0.000102202447533,0.0,0.0,0.0,0.0,0.0,0.0,0.0,0.0,0.0,6.62525556067,0.00499557262621,7.01904971224,0.0,0.0,0.0,0.0,0.0,0.0,0.0,0.0,0.0
24796000000,80,24796000000,imu_link,0.000510411346989,-0.376409314246,0.000206615401138,0.926453304241,0.0,0.0,0.0,0.0,0.0,0.0,0.0,0.0,0.0,0.00401226976567,-0.00783097475413,8.73093612423e-05,0.0,0.0,0.0,0.0,0.0,0.0,0.0,0.0,0.0,6.62571216899,0.00492248998914,7.01820628254,0.0,0.0,0.0,0.0,0.0,0.0,0.0,0.0,0.0
24800000000,81,24800000000,imu_link,0.000518068399094,-0.37642511805,0.000209895918041,0.926446878158,0.0,0.0,0.0,0.0,0.0,0.0,0.0,0.0,0.0,0.00416436648943,-0.00853011577207,8.32270806399e-05,0.0,0.0,0.0,0.0,0.0,0.0,0.0,0.0,0.0,6.6260748331,0.00488925142966,7.01592663804,0.0,0.0,0.0,0.0,0.0,0.0,0.0,0.0,0.0
24804000000,82,24804000000,imu_link,0.000525717744341,-0.376442089048,0.000213271339452,0.926439977402,0.0,0.0,0.0,0.0,0.0,0.0,0.0,0.0,0.0,0.00417865917446,-0.00916010146671,0.000128991759833,0.0,0.0,0.0,0.0,0.0,0.0,0.0,0.0,0.0,6.62644360993,0.00491679618267,7.01338424625,0.0,0.0,0.0,0.0,0.0,0.0,0.0,0.0,0.0
24808000000,83,24808000000,imu_link,0.000533060856913,-0.376459994838,0.000216714342765,0.926432696513,0.0,0.0,0.0,0.0,0.0,0.0,0.0,0.0,0.0,0.00404952665418,-0.00966461421962,0.000218222735533,0.0,0.0,0.0,0.0,0.0,0.0,0.0,0.0,0.0,6.62717192962,0.00490592558947,7.01059107232,0.0,0.0,0.0,0.0,0.0,0.0,0.0,0.0,0.0
24812000000,84,24812000000,imu_link,0.000540022162029,-0.376478666104,0.000220202546899,0.926425104288,0.0,0.0,0.0,0.0,0.0,0.0,0.0,0.0,0.0,0.00388117538432,-0.010077744866,0.000311265869424,0.0,0.0,0.0,0.0,0.0,0.0,0.0,0.0,0.0,6.62739894527,0.00483571228686,7.00740697056,0.0,0.0,0.0,0.0,0.0,0.0,0.0,0.0,0.0
24816000000,85,24816000000,imu_link,0.000546603746531,-0.376497841471,0.000223731969424,0.926417306906,0.0,0.0,0.0,0.0,0.0,0.0,0.0,0.0,0.0,0.00371304284428,-0.0103498163167,0.000401995801551,0.0,0.0,0.0,0.0,0.0,0.0,0.0,0.0,0.0,6.62787198136,0.0047111697596,7.00401691273,0.0,0.0,0.0,0.0,0.0,0.0,0.0,0.0,0.0
24820000000,86,24820000000,imu_link,0.000552995817585,-0.376517279147,0.00022730516997,0.926409402495,0.0,0.0,0.0,0.0,0.0,0.0,0.0,0.0,0.0,0.00363349964897,-0.0104914350789,0.000458033524634,0.0,0.0,0.0,0.0,0.0,0.0,0.0,0.0,0.0,6.62851680875,0.00452590158298,7.00163348685,0.0,0.0,0.0,0.0,0.0,0.0,0.0,0.0,0.0
24824000000,87,24824000000,imu_link,0.000559088592373,-0.376536718541,0.000230901871821,0.926401497027,0.0,0.0,0.0,0.0,0.0,0.0,0.0,0.0,0.0,0.00349928863149,-0.0104923893109,0.000525265142255,0.0,0.0,0.0,0.0,0.0,0.0,0.0,0.0,0.0,6.62851533091,0.00439979395687,6.99788355521,0.0,0.0,0.0,0.0,0.0,0.0,0.0,0.0,0.0
24828000000,88,24828000000,imu_link,0.000564580892697,-0.376555995347,0.000234491336199,0.926393657486,0.0,0.0,0.0,0.0,0.0,0.0,0.0,0.0,0.0,0.00321978616464,-0.010404598992,0.000634910019429,0.0,0.0,0.0,0.0,0.0,0.0,0.0,0.0,0.0,6.62937036473,0.00431775584192,6.99679526753,0.0,0.0,0.0,0.0,0.0,0.0,0.0,0.0,0.0
24832000000,89,24832000000,imu_link,0.000569135982999,-0.376575245687,0.000238029218869,0.926385828779,0.0,0.0,0.0,0.0,0.0,0.0,0.0,0.0,0.0,0.0027759617986,-0.0103902052445,0.000787464821684,0.0,0.0,0.0,0.0,0.0,0.0,0.0,0.0,0.0,6.62952721026,0.0042131831982,6.99699179764,0.0,0.0,0.0,0.0,0.0,0.0,0.0,0.0,0.0
24836000000,90,24836000000,imu_link,0.000572444956006,-0.376594689207,0.000241441104939,0.926377921841,0.0,0.0,0.0,0.0,0.0,0.0,0.0,0.0,0.0,0.00217504476734,-0.0104943020912,0.000963796835422,0.0,0.0,0.0,0.0,0.0,0.0,0.0,0.0,0.0,6.63059529992,0.00408683109833,6.99955595267,0.0,0.0,0.0,0.0,0.0,0.0,0.0,0.0,0.0
24840000000,91,24840000000,imu_link,0.000574532747166,-0.3766145976,0.000244702635846,0.926369826207,0.0,0.0,0.0,0.0,0.0,0.0,0.0,0.0,0.0,0.00158109322749,-0.0107450525397,0.00112425511939,0.0,0.0,0.0,0.0,0.0,0.0,0.0,0.0,0.0,6.63181971098,0.00385630611136,7.00240025005,0.0,0.0,0.0,0.0,0.0,0.0,0.0,0.0,0.0
24844000000,92,24844000000,imu_link,0.000575617164969,-0.376634933586,0.000247801829282,0.926361556878,0.0,0.0,0.0,0.0,0.0,0.0,0.0,0.0,0.0,0.00108577407606,-0.0109757397875,0.00123814946373,0.0,0.0,0.0,0.0,0.0,0.0,0.0,0.0,0.0,6.63261308377,0.00359991307112,7.00173685312,0.0,0.0,0.0,0.0,0.0,0.0,0.0,0.0,0.0
24848000000,93,24848000000,imu_link,0.000575896507591,-0.376655495198,0.000250727086235,0.926353195826,0.0,0.0,0.0,0.0,0.0,0.0,0.0,0.0,0.0,0.000680121892648,-0.0110974678774,0.00130927144844,0.0,0.0,0.0,0.0,0.0,0.0,0.0,0.0,0.0,6.63272653721,0.00340962023443,6.99826704082,0.0,0.0,0.0,0.0,0.0,0.0,0.0,0.0,0.0
24852000000,94,24852000000,imu_link,0.000575491739456,-0.376675789587,0.00025347205957,0.926344943366,0.0,0.0,0.0,0.0,0.0,0.0,0.0,0.0,0.0,0.000329307622366,-0.0109532123633,0.00135451477364,0.0,0.0,0.0,0.0,0.0,0.0,0.0,0.0,0.0,6.63485852479,0.00328080334696,6.99603626797,0.0,0.0,0.0,0.0,0.0,0.0,0.0,0.0,0.0
24856000000,95,24856000000,imu_link,0.000574441991337,-0.376695275874,0.000256035517972,0.926337019446,0.0,0.0,0.0,0.0,0.0,0.0,0.0,0.0,0.0,-3.60761120829e-06,-0.0105170151275,0.00139164205991,0.0,0.0,0.0,0.0,0.0,0.0,0.0,0.0,0.0,6.63548355342,0.00320761761817,6.99060457252,0.0,0.0,0.0,0.0,0.0,0.0,0.0,0.0,0.0
24860000000,96,24860000000,imu_link,0.000572733072518,-0.376713575572,0.000258430222023,0.92632957805,0.0,0.0,0.0,0.0,0.0,0.0,0.0,0.0,0.0,-0.000340685892298,-0.00987650681485,0.00143723101807,0.0,0.0,0.0,0.0,0.0,0.0,0.0,0.0,0.0,6.6367581179,0.00315740617163,6.98812693399,0.0,0.0,0.0,0.0,0.0,0.0,0.0,0.0,0.0
24864000000,97,24864000000,imu_link,0.000570396202376,-0.376730568411,0.000260651696801,0.926322668153,0.0,0.0,0.0,0.0,0.0,0.0,0.0,0.0,0.0,-0.000664143081321,-0.0091710725538,0.00147483329412,0.0,0.0,0.0,0.0,0.0,0.0,0.0,0.0,0.0,6.63573622733,0.00303281624339,6.98405911542,0.0,0.0,0.0,0.0,0.0,0.0,0.0,0.0,0.0
24868000000,98,24868000000,imu_link,0.000567494647023,-0.376746296283,0.000262711330194,0.926316272754,0.0,0.0,0.0,0.0,0.0,0.0,0.0,0.0,0.0,-0.000956150611977,-0.00848824788684,0.00150581389401,0.0,0.0,0.0,0.0,0.0,0.0,0.0,0.0,0.0,6.63436562679,0.00286859601266,6.98082321712,0.0,0.0,0.0,0.0,0.0,0.0,0.0,0.0,0.0
24872000000,99,24872000000,imu_link,0.000563958699907,-0.376760982085,0.00026462726613,0.926310301304,0.0,0.0,0.0,0.0,0.0,0.0,0.0,0.0,0.0,-0.00127702647259,-0.00792570171062,0.00155841024886,0.0,0.0,0.0,0.0,0.0,0.0,0.0,0.0,0.0,6.63462280749,0.00277727124182,6.9819985639,0.0,0.0,0.0,0.0,0.0,0.0,0.0,0.0,0.0
24876000000,100,24876000000,imu_link,0.000559619346019,-0.376774889076,0.000266440408553,0.926304646862,0.0,0.0,0.0,0.0,0.0,0.0,0.0,0.0,0.0,-0.00166847909289,-0.00750519519487,0.00166188551229,0.0,0.0,0.0,0.0,0.0,0.0,0.0,0.0,0.0,6.63606823454,0.00270912301466,6.98582393132,0.0,0.0,0.0,0.0,0.0,0.0,0.0,0.0,0.0
24880000000,101,24880000000,imu_link,0.000554328470493,-0.376788386142,0.000268149384746,0.926299159497,0.0,0.0,0.0,0.0,0.0,0.0,0.0,0.0,0.0,-0.00212879429928,-0.00728376517758,0.00179275845164,0.0,0.0,0.0,0.0,0.0,0.0,0.0,0.0,0.0,6.63747963783,0.00262003656688,6.99056136354,0.0,0.0,0.0,0.0,0.0,0.0,0.0,0.0,0.0
24884000000,102,24884000000,imu_link,0.000548239147003,-0.376801857547,0.000269784769825,0.926293682802,0.0,0.0,0.0,0.0,0.0,0.0,0.0,0.0,0.0,-0.00251245879404,-0.00726978341976,0.0019090891757,0.0,0.0,0.0,0.0,0.0,0.0,0.0,0.0,0.0,6.63929143949,0.00246208872851,6.99580162627,0.0,0.0,0.0,0.0,0.0,0.0,0.0,0.0,0.0
24888000000,103,24888000000,imu_link,0.000541727640555,-0.376815651048,0.000271368408752,0.926288075069,0.0,0.0,0.0,0.0,0.0,0.0,0.0,0.0,0.0,-0.00271774804875,-0.0074436060281,0.00196476873848,0.0,0.0,0.0,0.0,0.0,0.0,0.0,0.0,0.0,6.64011363554,0.00227938043541,6.9986137348,0.0,0.0,0.0,0.0,0.0,0.0,0.0,0.0,0.0
24892000000,104,24892000000,imu_link,0.000535190549464,-0.376829881188,0.00027289215287,0.926282289448,0.0,0.0,0.0,0.0,0.0,0.0,0.0,0.0,0.0,-0.0027408931356,-0.0076793611321,0.00194199156847,0.0,0.0,0.0,0.0,0.0,0.0,0.0,0.0,0.0,6.64066526265,0.00217822865416,6.99897173626,0.0,0.0,0.0,0.0,0.0,0.0,0.0,0.0,0.0
24896000000,105,24896000000,imu_link,0.000528946720334,-0.37684440332,0.000274354863105,0.92627638458,0.0,0.0,0.0,0.0,0.0,0.0,0.0,0.0,0.0,-0.00261657908237,-0.00783711887941,0.00185856373742,0.0,0.0,0.0,0.0,0.0,0.0,0.0,0.0,0.0,6.64100884199,0.00218415232832,6.9967845489,0.0,0.0,0.0,0.0,0.0,0.0,0.0,0.0,0.0
24900000000,106,24900000000,imu_link,0.000523063068704,-0.376858860588,0.000275778784938,0.926270505602,0.0,0.0,0.0,0.0,0.0,0.0,0.0,0.0,0.0,-0.00245707367149,-0.00780225918106,0.00177271320338,0.0,0.0,0.0,0.0,0.0,0.0,0.0,0.0,0.0,6.64213016947,0.00231678133198,6.99394014462,0.0,0.0,0.0,0.0,0.0,0.0,0.0,0.0,0.0
24904000000,107,24904000000,imu_link,0.000517541578747,-0.376872735766,0.00027718659108,0.92626486296,0.0,0.0,0.0,0.0,0.0,0.0,0.0,0.0,0.0,-0.00229236204906,-0.00748819440211,0.00169682271787,0.0,0.0,0.0,0.0,0.0,0.0,0.0,0.0,0.0,6.64334451781,0.00245965166088,6.98964707842,0.0,0.0,0.0,0.0,0.0,0.0,0.0,0.0,0.0
24908000000,108,24908000000,imu_link,0.000512352144115,-0.376885807557,0.000278584393003,0.926259546751,0.0,0.0,0.0,0.0,0.0,0.0,0.0,0.0,0.0,-0.00214043474499,-0.00705465665461,0.00162936500545,0.0,0.0,0.0,0.0,0.0,0.0,0.0,0.0,0.0,6.64265090377,0.00255927014824,6.98492880056,0.0,0.0,0.0,0.0,0.0,0.0,0.0,0.0,0.0
24912000000,109,24912000000,imu_link,0.00050773209176,-0.376898065796,0.000280020953874,0.926254561012,0.0,0.0,0.0,0.0,0.0,0.0,0.0,0.0,0.0,-0.00186940434845,-0.00661567101774,0.00153976493461,0.0,0.0,0.0,0.0,0.0,0.0,0.0,0.0,0.0,6.64295721004,0.00256919629248,6.98403554824,0.0,0.0,0.0,0.0,0.0,0.0,0.0,0.0,0.0
24916000000,110,24916000000,imu_link,0.000503842969299,-0.376909857757,0.000281522164397,0.92624976438,0.0,0.0,0.0,0.0,0.0,0.0,0.0,0.0,0.0,-0.00151869033344,-0.00636417365615,0.00143181807056,0.0,0.0,0.0,0.0,0.0,0.0,0.0,0.0,0.0,6.64389403949,0.00263151265562,6.98728664612,0.0,0.0,0.0,0.0,0.0,0.0,0.0,0.0,0.0
24920000000,111,24920000000,imu_link,0.000500705396471,-0.376921630801,0.000283074149433,0.92624497483,0.0,0.0,0.0,0.0,0.0,0.0,0.0,0.0,0.0,-0.00116105941303,-0.00635417166361,0.0013136940164,0.0,0.0,0.0,0.0,0.0,0.0,0.0,0.0,0.0,6.64438196336,0.00273112837842,6.99075110567,0.0,0.0,0.0,0.0,0.0,0.0,0.0,0.0,0.0
24924000000,112,24924000000,imu_link,0.00049789585682,-0.376933653373,0.000284591135094,0.926240083381,0.0,0.0,0.0,0.0,0.0,0.0,0.0,0.0,0.0,-0.00101574568923,-0.00648899209043,0.0012357405108,0.0,0.0,0.0,0.0,0.0,0.0,0.0,0.0,0.0,6.64435348365,0.00290951908297,6.99150062554,0.0,0.0,0.0,0.0,0.0,0.0,0.0,0.0,0.0
24928000000,113,24928000000,imu_link,0.00049498111037,-0.376945837674,0.000286020961596,0.926235126005,0.0,0.0,0.0,0.0,0.0,0.0,0.0,0.0,0.0,-0.00108090227804,-0.0065763244423,0.00121525299249,0.0,0.0,0.0,0.0,0.0,0.0,0.0,0.0,0.0,6.6452155888,0.0030305210573,6.99082984938,0.0,0.0,0.0,0.0,0.0,0.0,0.0,0.0,0.0
24932000000,114,24932000000,imu_link,0.000491701114356,-0.376958003653,0.000287345831615,0.926230176114,0.0,0.0,0.0,0.0,0.0,0.0,0.0,0.0,0.0,-0.00126983645214,-0.0065664018741,0.00123547984831,0.0,0.0,0.0,0.0,0.0,0.0,0.0,0.0,0.0,6.6456954821,0.00304788565232,6.98838476913,0.0,0.0,0.0,0.0,0.0,0.0,0.0,0.0,0.0
24936000000,115,24936000000,imu_link,0.000488017659501,-0.376970026002,0.000288552632372,0.92622528473,0.0,0.0,0.0,0.0,0.0,0.0,0.0,0.0,0.0,-0.00147893165404,-0.00648882850742,0.00125679999396,0.0,0.0,0.0,0.0,0.0,0.0,0.0,0.0,0.0,6.6457311697,0.00300439833625,6.98550178105,0.0,0.0,0.0,0.0,0.0,0.0,0.0,0.0,0.0
24940000000,116,24940000000,imu_link,0.000483959808166,-0.376981872183,0.000289649663508,0.926220465079,0.0,0.0,0.0,0.0,0.0,0.0,0.0,0.0,0.0,-0.00167300141216,-0.00639369524582,0.00127647908404,0.0,0.0,0.0,0.0,0.0,0.0,0.0,0.0,0.0,6.64568773352,0.00300161791985,6.98359171419,0.0,0.0,0.0,0.0,0.0,0.0,0.0,0.0,0.0
24944000000,117,24944000000,imu_link,0.000479526564562,-0.376993562159,0.000290640071491,0.92621570904,0.0,0.0,0.0,0.0,0.0,0.0,0.0,0.0,0.0,-0.00186693968194,-0.00630933573637,0.00129781184012,0.0,0.0,0.0,0.0,0.0,0.0,0.0,0.0,0.0,6.64520506287,0.00305090122875,6.98145286357,0.0,0.0,0.0,0.0,0.0,0.0,0.0,0.0,0.0
24948000000,118,24948000000,imu_link,0.000474822596487,-0.377005204885,0.000291557498903,0.926210972202,0.0,0.0,0.0,0.0,0.0,0.0,0.0,0.0,0.0,-0.0020060686504,-0.00628381327252,0.00131503053673,0.0,0.0,0.0,0.0,0.0,0.0,0.0,0.0,0.0,6.64574750666,0.00305644100306,6.98191940254,0.0,0.0,0.0,0.0,0.0,0.0,0.0,0.0,0.0
24952000000,119,24952000000,imu_link,0.000469865933323,-0.377016901829,0.000292427291012,0.926206213242,0.0,0.0,0.0,0.0,0.0,0.0,0.0,0.0,0.0,-0.00213207516297,-0.00631306617963,0.00134062014539,0.0,0.0,0.0,0.0,0.0,0.0,0.0,0.0,0.0,6.64574371098,0.00306949288921,6.98112071437,0.0,0.0,0.0,0.0,0.0,0.0,0.0,0.0,0.0
24956000000,120,24956000000,imu_link,0.000464814666391,-0.377028569155,0.000293290409789,0.926201466188,0.0,0.0,0.0,0.0,0.0,0.0,0.0,0.0,0.0,-0.00217714290808,-0.00629709323554,0.00135535461516,0.0,0.0,0.0,0.0,0.0,0.0,0.0,0.0,0.0,6.64678606593,0.00302174135494,6.9808401813,0.0,0.0,0.0,0.0,0.0,0.0,0.0,0.0,0.0
24960000000,121,24960000000,imu_link,0.000459885011764,-0.377040016876,0.000294150985872,0.926196808273,0.0,0.0,0.0,0.0,0.0,0.0,0.0,0.0,0.0,-0.00212129200677,-0.00617860857948,0.00133118732557,0.0,0.0,0.0,0.0,0.0,0.0,0.0,0.0,0.0,6.64804478281,0.0029625327637,6.98003677702,0.0,0.0,0.0,0.0,0.0,0.0,0.0,0.0,0.0
24964000000,122,24964000000,imu_link,0.00045530122627,-0.377050963712,0.00029502417339,0.926192353902,0.0,0.0,0.0,0.0,0.0,0.0,0.0,0.0,0.0,-0.00195871619115,-0.00590832534035,0.00127167929792,0.0,0.0,0.0,0.0,0.0,0.0,0.0,0.0,0.0,6.64950164967,0.00294998517423,6.97865841779,0.0,0.0,0.0,0.0,0.0,0.0,0.0,0.0,0.0
24968000000,123,24968000000,imu_link,0.000451160047951,-0.377061252385,0.0002959227531,0.926188167077,0.0,0.0,0.0,0.0,0.0,0.0,0.0,0.0,0.0,-0.00174892324539,-0.00555315282543,0.00119980629639,0.0,0.0,0.0,0.0,0.0,0.0,0.0,0.0,0.0,6.64921632239,0.00298421934672,6.97519464229,0.0,0.0,0.0,0.0,0.0,0.0,0.0,0.0,0.0
24972000000,124,24972000000,imu_link,0.000447692593691,-0.37707081604,0.000296882500439,0.926184274927,0.0,0.0,0.0,0.0,0.0,0.0,0.0,0.0,0.0,-0.00142535284636,-0.00516193226478,0.00110090789485,0.0,0.0,0.0,0.0,0.0,0.0,0.0,0.0,0.0,6.65047755535,0.00301113146572,6.97558200552,0.0,0.0,0.0,0.0,0.0,0.0,0.0,0.0,0.0
24976000000,125,24976000000,imu_link,0.000445116681798,-0.377079847196,0.000297949397172,0.926180598985,0.0,0.0,0.0,0.0,0.0,0.0,0.0,0.0,0.0,-0.000992254483599,-0.0048746813147,0.00098228934078,0.0,0.0,0.0,0.0,0.0,0.0,0.0,0.0,0.0,6.65165097464,0.00305892122766,6.97798815621,0.0,0.0,0.0,0.0,0.0,0.0,0.0,0.0,0.0
24980000000,126,24980000000,imu_link,0.000443435559474,-0.377088772845,0.00029916171419,0.926176965413,0.0,0.0,0.0,0.0,0.0,0.0,0.0,0.0,0.0,-0.00055046229657,-0.00481793448006,0.000880898713186,0.0,0.0,0.0,0.0,0.0,0.0,0.0,0.0,0.0,6.65343765059,0.00315869540426,6.98335648173,0.0,0.0,0.0,0.0,0.0,0.0,0.0,0.0,0.0
24984000000,127,24984000000,imu_link,0.000442402416907,-0.377098054829,0.000300523848995,0.926173186294,0.0,0.0,0.0,0.0,0.0,0.0,0.0,0.0,0.0,-0.00022216406239,-0.00501045503201,0.000828205436216,0.0,0.0,0.0,0.0,0.0,0.0,0.0,0.0,0.0,6.65512813363,0.00335212959525,6.98911853518,0.0,0.0,0.0,0.0,0.0,0.0,0.0,0.0,0.0
24988000000,128,24988000000,imu_link,0.000441805603322,-0.377108009939,0.000302036342194,0.92616913273,0.0,0.0,0.0,0.0,0.0,0.0,0.0,0.0,0.0,8.20353129559e-06,-0.00537394924237,0.000815755122398,0.0,0.0,0.0,0.0,0.0,0.0,0.0,0.0,0.0,6.65672892301,0.00352819195052,6.9932916193,0.0,0.0,0.0,0.0,0.0,0.0,0.0,0.0,0.0
24992000000,129,24992000000,imu_link,0.000441417025887,-0.37711879474,0.000303672777477,0.926164741063,0.0,0.0,0.0,0.0,0.0,0.0,0.0,0.0,0.0,0.000127953644208,-0.00582192121185,0.000834121369661,0.0,0.0,0.0,0.0,0.0,0.0,0.0,0.0,0.0,6.65705022827,0.00365329209988,6.99367128798,0.0,0.0,0.0,0.0,0.0,0.0,0.0,0.0,0.0
24996000000,130,24996000000,imu_link,0.0004408954794,-0.377130655405,0.000305382568831,0.926159911196,0.0,0.0,0.0,0.0,0.0,0.0,0.0,0.0,0.0,8.01433559169e-05,-0.00640272529563,0.00089346782368,0.0,0.0,0.0,0.0,0.0,0.0,0.0,0.0,0.0,6.65770553663,0.00375965642132,6.99513841698,0.0,0.0,0.0,0.0,0.0,0.0,0.0,0.0,0.0
25000000000,131,25000000000,imu_link,0.00043997933309,-0.377143759209,0.000307128256442,0.926154575101,0.0,0.0,0.0,0.0,0.0,0.0,0.0,0.0,0.0,-9.58973424483e-05,-0.00707378674517,0.000984849850252,0.0,0.0,0.0,0.0,0.0,0.0,0.0,0.0,0.0,6.65821246822,0.00376301960299,6.995736465,0.0,0.0,0.0,0.0,0.0,0.0,0.0,0.0,0.0
25004000000,132,25004000000,imu_link,0.000438777799233,-0.377158086502,0.000308908727077,0.926148740665,0.0,0.0,0.0,0.0,0.0,0.0,0.0,0.0,0.0,-0.000221572988209,-0.00773427823905,0.0010551188267,0.0,0.0,0.0,0.0,0.0,0.0,0.0,0.0,0.0,6.65892327314,0.00364523633224,6.99513386471,0.0,0.0,0.0,0.0,0.0,0.0,0.0,0.0,0.0
25008000000,133,25008000000,imu_link,0.00043779459808,-0.377173238012,0.000310739851626,0.926142570182,0.0,0.0,0.0,0.0,0.0,0.0,0.0,0.0,0.0,-0.000110970020624,-0.00817934603675,0.00103763511127,0.0,0.0,0.0,0.0,0.0,0.0,0.0,0.0,0.0,6.66154857636,0.00349666229222,6.99468138425,0.0,0.0,0.0,0.0,0.0,0.0,0.0,0.0,0.0
25012000000,134,25012000000,imu_link,0.000437507691395,-0.37718873675,0.000312635380729,0.92613625764,0.0,0.0,0.0,0.0,0.0,0.0,0.0,0.0,0.0,0.000223586938046,-0.00836702226733,0.000936245270894,0.0,0.0,0.0,0.0,0.0,0.0,0.0,0.0,0.0,6.66267294468,0.00342423983533,6.99086041507,0.0,0.0,0.0,0.0,0.0,0.0,0.0,0.0,0.0
25016000000,135,25016000000,imu_link,0.000437874376649,-0.377204367295,0.000314567791331,0.926129890786,0.0,0.0,0.0,0.0,0.0,0.0,0.0,0.0,0.0,0.000533191454672,-0.00843839424951,0.000830097481189,0.0,0.0,0.0,0.0,0.0,0.0,0.0,0.0,0.0,6.66347945269,0.00350672579241,6.98904191045,0.0,0.0,0.0,0.0,0.0,0.0,0.0,0.0,0.0
25020000000,136,25020000000,imu_link,0.000438379949703,-0.377220319501,0.000316462946788,0.926123392551,0.0,0.0,0.0,0.0,0.0,0.0,0.0,0.0,0.0,0.000590457296283,-0.00861215339889,0.000786742475053,0.0,0.0,0.0,0.0,0.0,0.0,0.0,0.0,0.0,6.66374604609,0.00366041469676,6.99021302607,0.0,0.0,0.0,0.0,0.0,0.0,0.0,0.0,0.0
25024000000,137,25024000000,imu_link,0.000438220815711,-0.377236731463,0.000318270932241,0.926116707063,0.0,0.0,0.0,0.0,0.0,0.0,0.0,0.0,0.0,0.000266184072257,-0.00886028047068,0.000871878290974,0.0,0.0,0.0,0.0,0.0,0.0,0.0,0.0,0.0,6.66420689542,0.00376077421135,6.99100593735,0.0,0.0,0.0,0.0,0.0,0.0,0.0,0.0,0.0
25028000000,138,25028000000,imu_link,0.000436868315019,-0.377253407143,0.000319990146344,0.926109914401,0.0,0.0,0.0,0.0,0.0,0.0,0.0,0.0,0.0,-0.00030317673859,-0.00900244164369,0.00105593769075,0.0,0.0,0.0,0.0,0.0,0.0,0.0,0.0,0.0,6.66491563252,0.00371968553285,6.98895096911,0.0,0.0,0.0,0.0,0.0,0.0,0.0,0.0,0.0
25032000000,139,25032000000,imu_link,0.000434147580687,-0.37726982059,0.000321633077167,0.926103228879,0.0,0.0,0.0,0.0,0.0,0.0,0.0,0.0,0.0,-0.000951114618787,-0.00886060170735,0.00127862531827,0.0,0.0,0.0,0.0,0.0,0.0,0.0,0.0,0.0,6.66599159831,0.00357681963012,6.98451638411,0.0,0.0,0.0,0.0,0.0,0.0,0.0,0.0,0.0
25036000000,140,25036000000,imu_link,0.000430271516331,-0.377285570047,0.000323218109646,0.92609681407,0.0,0.0,0.0,0.0,0.0,0.0,0.0,0.0,0.0,-0.00149696568481,-0.00850190149516,0.00146956330238,0.0,0.0,0.0,0.0,0.0,0.0,0.0,0.0,0.0,6.66631847037,0.00338590142601,6.97989227068,0.0,0.0,0.0,0.0,0.0,0.0,0.0,0.0,0.0
25040000000,141,25040000000,imu_link,0.000425623562392,-0.377300508392,0.000324776063282,0.926090729752,0.0,0.0,0.0,0.0,0.0,0.0,0.0,0.0,0.0,-0.00185943617209,-0.00806385284215,0.00160240797814,0.0,0.0,0.0,0.0,0.0,0.0,0.0,0.0,0.0,6.66569941102,0.00319982178185,6.97620563454,0.0,0.0,0.0,0.0,0.0,0.0,0.0,0.0,0.0
25044000000,142,25044000000,imu_link,0.00042079657453,-0.37731475663,0.000326389325052,0.926084926359,0.0,0.0,0.0,0.0,0.0,0.0,0.0,0.0,0.0,-0.00193185082588,-0.00769126485961,0.00166160046715,0.0,0.0,0.0,0.0,0.0,0.0,0.0,0.0,0.0,6.66670760489,0.00301773984446,6.97807002052,0.0,0.0,0.0,0.0,0.0,0.0,0.0,0.0,0.0
25048000000,143,25048000000,imu_link,0.000416255064791,-0.377328492893,0.000328104611398,0.926079331121,0.0,0.0,0.0,0.0,0.0,0.0,0.0,0.0,0.0,-0.00178037488765,-0.00741495430175,0.00165484293504,0.0,0.0,0.0,0.0,0.0,0.0,0.0,0.0,0.0,6.66661428521,0.00290082257685,6.97843512119,0.0,0.0,0.0,0.0,0.0,0.0,0.0,0.0,0.0
25052000000,144,25052000000,imu_link,0.000412350164133,-0.377341867214,0.000329955246814,0.926073882768,0.0,0.0,0.0,0.0,0.0,0.0,0.0,0.0,0.0,-0.00146003529445,-0.00721972487458,0.00159731012387,0.0,0.0,0.0,0.0,0.0,0.0,0.0,0.0,0.0,6.66644871947,0.00284820425703,6.97806425499,0.0,0.0,0.0,0.0,0.0,0.0,0.0,0.0,0.0
25056000000,145,25056000000,imu_link,0.000409173770471,-0.377354776267,0.0003319552137,0.926068623381,0.0,0.0,0.0,0.0,0.0,0.0,0.0,0.0,0.0,-0.0010944973371,-0.00696872539601,0.00152888091384,0.0,0.0,0.0,0.0,0.0,0.0,0.0,0.0,0.0,6.66583125574,0.00288707547961,6.97460443613,0.0,0.0,0.0,0.0,0.0,0.0,0.0,0.0,0.0
25060000000,146,25060000000,imu_link,0.000406490006644,-0.377367121776,0.000334119804011,0.926063593136,0.0,0.0,0.0,0.0,0.0,0.0,0.0,0.0,0.0,-0.000835285445838,-0.00666459938614,0.00151200577105,0.0,0.0,0.0,0.0,0.0,0.0,0.0,0.0,0.0,6.66585278844,0.00300327975996,6.97256140984,0.0,0.0,0.0,0.0,0.0,0.0,0.0,0.0,0.0
25064000000,147,25064000000,imu_link,0.000403869537973,-0.377378912373,0.000336442279767,0.926058788734,0.0,0.0,0.0,0.0,0.0,0.0,0.0,0.0,0.0,-0.000776140586581,-0.00636502303825,0.00157301848493,0.0,0.0,0.0,0.0,0.0,0.0,0.0,0.0,0.0,6.66608660788,0.00310924675312,6.97205039976,0.0,0.0,0.0,0.0,0.0,0.0,0.0,0.0,0.0
25068000000,148,25068000000,imu_link,0.000401088073163,-0.377390312999,0.00033889078861,0.926054143091,0.0,0.0,0.0,0.0,0.0,0.0,0.0,0.0,0.0,-0.000826871873449,-0.00615444645581,0.00166164832722,0.0,0.0,0.0,0.0,0.0,0.0,0.0,0.0,0.0,6.66626642488,0.00312120722478,6.97232435046,0.0,0.0,0.0,0.0,0.0,0.0,0.0,0.0,0.0
25072000000,149,25072000000,imu_link,0.000398019596329,-0.377401598491,0.000341410772662,0.926049544288,0.0,0.0,0.0,0.0,0.0,0.0,0.0,0.0,0.0,-0.000946269069893,-0.00609223489031,0.00174887003685,0.0,0.0,0.0,0.0,0.0,0.0,0.0,0.0,0.0,6.66669254007,0.00308120565235,6.97395462982,0.0,0.0,0.0,0.0,0.0,0.0,0.0,0.0,0.0
25076000000,150,25076000000,imu_link,0.00039456957036,-0.377412944706,0.000343963137717,0.92604492071,0.0,0.0,0.0,0.0,0.0,0.0,0.0,0.0,0.0,-0.00111683088537,-0.0061249544813,0.00183587818328,0.0,0.0,0.0,0.0,0.0,0.0,0.0,0.0,0.0,6.66705197276,0.0030678005535,6.97479017998,0.0,0.0,0.0,0.0,0.0,0.0,0.0,0.0,0.0
25080000000,151,25080000000,imu_link,0.000390752127919,-0.37742436416,0.00034654806055,0.926040267243,0.0,0.0,0.0,0.0,0.0,0.0,0.0,0.0,0.0,-0.00128081579959,-0.00616443665025,0.00192030662207,0.0,0.0,0.0,0.0,0.0,0.0,0.0,0.0,0.0,6.66693034388,0.00305996503405,6.97325816991,0.0,0.0,0.0,0.0,0.0,0.0,0.0,0.0,0.0
25084000000,152,25084000000,imu_link,0.00038654327436,-0.377435814726,0.000349150267301,0.926035601065,0.0,0.0,0.0,0.0,0.0,0.0,0.0,0.0,0.0,-0.0014587882491,-0.00618116936578,0.00200218175069,0.0,0.0,0.0,0.0,0.0,0.0,0.0,0.0,0.0,6.66643491468,0.00303530108458,6.9706245131,0.0,0.0,0.0,0.0,0.0,0.0,0.0,0.0,0.0
25088000000,153,25088000000,imu_link,0.000382101908775,-0.377447261152,0.000351758993094,0.926030936477,0.0,0.0,0.0,0.0,0.0,0.0,0.0,0.0,0.0,-0.00156521478103,-0.00617891080081,0.00204907828865,0.0,0.0,0.0,0.0,0.0,0.0,0.0,0.0,0.0,6.66648111426,0.00297173950872,6.96908255957,0.0,0.0,0.0,0.0,0.0,0.0,0.0,0.0,0.0
25092000000,154,25092000000,imu_link,0.000377851022998,-0.377458833746,0.000354404336961,0.926026220176,0.0,0.0,0.0,0.0,0.0,0.0,0.0,0.0,0.0,-0.00147012129808,-0.00624711486233,0.00203011818235,0.0,0.0,0.0,0.0,0.0,0.0,0.0,0.0,0.0,6.66805382828,0.00283748225764,6.97187575073,0.0,0.0,0.0,0.0,0.0,0.0,0.0,0.0,0.0
25096000000,155,25096000000,imu_link,0.000374357149356,-0.377470762538,0.000357128774292,0.926021358147,0.0,0.0,0.0,0.0,0.0,0.0,0.0,0.0,0.0,-0.00110472307904,-0.00643966082165,0.00192396215185,0.0,0.0,0.0,0.0,0.0,0.0,0.0,0.0,0.0,6.67011182008,0.00271672538165,6.97626213855,0.0,0.0,0.0,0.0,0.0,0.0,0.0,0.0,0.0
25100000000,156,25100000000,imu_link,0.000371891460334,-0.377483232766,0.000359972130275,0.926016274747,0.0,0.0,0.0,0.0,0.0,0.0,0.0,0.0,0.0,-0.000606273708253,-0.00673229382166,0.00178510881647,0.0,0.0,0.0,0.0,0.0,0.0,0.0,0.0,0.0,6.67111508012,0.00274167798935,6.97810623425,0.0,0.0,0.0,0.0,0.0,0.0,0.0,0.0,0.0
25104000000,157,25104000000,imu_link,0.00037038075938,-0.377496307303,0.000362936152684,0.926010944356,0.0,0.0,0.0,0.0,0.0,0.0,0.0,0.0,0.0,-0.000141394525524,-0.00705886050122,0.00166088918506,0.0,0.0,0.0,0.0,0.0,0.0,0.0,0.0,0.0,6.67022969275,0.00285559145842,6.97536490585,0.0,0.0,0.0,0.0,0.0,0.0,0.0,0.0,0.0
25108000000,158,25108000000,imu_link,0.0003694842044,-0.377510125882,0.000365990969988,0.92600531013,0.0,0.0,0.0,0.0,0.0,0.0,0.0,0.0,0.0,0.000160017037908,-0.00746079891752,0.00158720172557,0.0,0.0,0.0,0.0,0.0,0.0,0.0,0.0,0.0,6.67087238237,0.00300402761726,6.97615708357,0.0,0.0,0.0,0.0,0.0,0.0,0.0,0.0,0.0
25112000000,159,25112000000,imu_link,0.000368887931656,-0.377524775435,0.000369100983939,0.925999336727,0.0,0.0,0.0,0.0,0.0,0.0,0.0,0.0,0.0,0.000309377752057,-0.00790960862281,0.00155629371132,0.0,0.0,0.0,0.0,0.0,0.0,0.0,0.0,0.0,6.67039925938,0.0030955165673,6.97444075343,0.0,0.0,0.0,0.0,0.0,0.0,0.0,0.0,0.0
25116000000,160,25116000000,imu_link,0.000368363756587,-0.377540286066,0.000372239986827,0.92599301193,0.0,0.0,0.0,0.0,0.0,0.0,0.0,0.0,0.0,0.000348136873365,-0.00837462483481,0.00155632992065,0.0,0.0,0.0,0.0,0.0,0.0,0.0,0.0,0.0,6.67058605658,0.00310988409255,6.97312520242,0.0,0.0,0.0,0.0,0.0,0.0,0.0,0.0,0.0
25120000000,161,25120000000,imu_link,0.000367664561224,-0.377556563867,0.000375411374391,0.925986374074,0.0,0.0,0.0,0.0,0.0,0.0,0.0,0.0,0.0,0.000273131223039,-0.00878887969799,0.00160456208373,0.0,0.0,0.0,0.0,0.0,0.0,0.0,0.0,0.0,6.67107200322,0.00312859123173,6.97170085113,0.0,0.0,0.0,0.0,0.0,0.0,0.0,0.0,0.0
25124000000,162,25124000000,imu_link,0.000366602075244,-0.377573660772,0.000378638792729,0.925979401999,0.0,0.0,0.0,0.0,0.0,0.0,0.0,0.0,0.0,0.000115415224828,-0.0092311340221,0.00169929864151,0.0,0.0,0.0,0.0,0.0,0.0,0.0,0.0,0.0,6.67104368832,0.00311631251186,6.97050292507,0.0,0.0,0.0,0.0,0.0,0.0,0.0,0.0,0.0
25128000000,163,25128000000,imu_link,0.000365192514533,-0.377591622071,0.00038193962451,0.92597207717,0.0,0.0,0.0,0.0,0.0,0.0,0.0,0.0,0.0,-3.15162962214e-05,-0.00969785619289,0.00179903667583,0.0,0.0,0.0,0.0,0.0,0.0,0.0,0.0,0.0,6.67067177631,0.00304045894762,6.96860318305,0.0,0.0,0.0,0.0,0.0,0.0,0.0,0.0,0.0
25132000000,164,25132000000,imu_link,0.000363596382049,-0.377610393104,0.000385328907858,0.925964421746,0.0,0.0,0.0,0.0,0.0,0.0,0.0,0.0,0.0,-0.000101291406003,-0.0101351141549,0.00187542347284,0.0,0.0,0.0,0.0,0.0,0.0,0.0,0.0,0.0,6.67190052687,0.00295761456749,6.96850929713,0.0,0.0,0.0,0.0,0.0,0.0,0.0,0.0,0.0
25136000000,165,25136000000,imu_link,0.000361985228924,-0.377629865069,0.000388834277494,0.925956479961,0.0,0.0,0.0,0.0,0.0,0.0,0.0,0.0,0.0,-8.64109864343e-05,-0.0105136763374,0.0019321879349,0.0,0.0,0.0,0.0,0.0,0.0,0.0,0.0,0.0,6.67242219743,0.00285765828518,6.9668567523,0.0,0.0,0.0,0.0,0.0,0.0,0.0,0.0,0.0
25140000000,166,25140000000,imu_link,0.000360568546835,-0.377649848159,0.000392459035865,0.925948329094,0.0,0.0,0.0,0.0,0.0,0.0,0.0,0.0,0.0,2.61057186176e-05,-0.0107898099051,0.0019508764444,0.0,0.0,0.0,0.0,0.0,0.0,0.0,0.0,0.0,6.67329969093,0.00274698540808,6.9655728322,0.0,0.0,0.0,0.0,0.0,0.0,0.0,0.0,0.0
25144000000,167,25144000000,imu_link,0.000359431049631,-0.377670060817,0.000396188186573,0.925940083918,0.0,0.0,0.0,0.0,0.0,0.0,0.0,0.0,0.0,0.000175044937033,-0.0109139371715,0.0019465502284,0.0,0.0,0.0,0.0,0.0,0.0,0.0,0.0,0.0,6.67441905626,0.00268710359414,6.96383828237,0.0,0.0,0.0,0.0,0.0,0.0,0.0,0.0,0.0
25148000000,168,25148000000,imu_link,0.000358561833181,-0.377690154924,0.000399989832855,0.925931886434,0.0,0.0,0.0,0.0,0.0,0.0,0.0,0.0,0.0,0.000312955506648,-0.0108500867187,0.00192942195007,0.0,0.0,0.0,0.0,0.0,0.0,0.0,0.0,0.0,6.67555727854,0.00265385059629,6.96172269014,0.0,0.0,0.0,0.0,0.0,0.0,0.0,0.0,0.0
25152000000,169,25152000000,imu_link,0.000357779396538,-0.377709709404,0.000403840422198,0.925923908498,0.0,0.0,0.0,0.0,0.0,0.0,0.0,0.0,0.0,0.000362442819072,-0.0105588052222,0.00193555232766,0.0,0.0,0.0,0.0,0.0,0.0,0.0,0.0,0.0,6.67813780703,0.00265361558889,6.96157712511,0.0,0.0,0.0,0.0,0.0,0.0,0.0,0.0,0.0
25156000000,170,25156000000,imu_link,0.00035686567004,-0.377728407598,0.000407713846975,0.925916279428,0.0,0.0,0.0,0.0,0.0,0.0,0.0,0.0,0.0,0.000306083687238,-0.0100964620877,0.00197069536768,0.0,0.0,0.0,0.0,0.0,0.0,0.0,0.0,0.0,6.6794004816,0.00263703500671,6.96001268518,0.0,0.0,0.0,0.0,0.0,0.0,0.0,0.0,0.0
25160000000,171,25160000000,imu_link,0.000355680490939,-0.377746089345,0.000411586241943,0.925909064689,0.0,0.0,0.0,0.0,0.0,0.0,0.0,0.0,0.0,0.000180351280596,-0.00954758216528,0.00202122045736,0.0,0.0,0.0,0.0,0.0,0.0,0.0,0.0,0.0,6.67942355327,0.00255784254678,6.95725302037,0.0,0.0,0.0,0.0,0.0,0.0,0.0,0.0,0.0
25164000000,172,25164000000,imu_link,0.000354103926136,-0.377762671574,0.000415446001145,0.925902298291,0.0,0.0,0.0,0.0,0.0,0.0,0.0,0.0,0.0,-3.08251993728e-06,-0.00895379703634,0.00208900507661,0.0,0.0,0.0,0.0,0.0,0.0,0.0,0.0,0.0,6.67875632442,0.00248843517281,6.95401931107,0.0,0.0,0.0,0.0,0.0,0.0,0.0,0.0,0.0
25168000000,173,25168000000,imu_link,0.000351955340208,-0.377778092181,0.000419300012742,0.925896005706,0.0,0.0,0.0,0.0,0.0,0.0,0.0,0.0,0.0,-0.000268828566073,-0.00832641094639,0.00219408424156,0.0,0.0,0.0,0.0,0.0,0.0,0.0,0.0,0.0,6.67971627062,0.0024397633713,6.95430793055,0.0,0.0,0.0,0.0,0.0,0.0,0.0,0.0,0.0
25172000000,174,25172000000,imu_link,0.000349180175345,-0.377792245202,0.000423172284386,0.925890230245,0.0,0.0,0.0,0.0,0.0,0.0,0.0,0.0,0.0,-0.000555278162686,-0.00764177102365,0.00232056010951,0.0,0.0,0.0,0.0,0.0,0.0,0.0,0.0,0.0,6.680130024,0.0023749455408,6.95319194163,0.0,0.0,0.0,0.0,0.0,0.0,0.0,0.0,0.0
25176000000,175,25176000000,imu_link,0.000345871931085,-0.377805004944,0.000427085323109,0.925885023213,0.0,0.0,0.0,0.0,0.0,0.0,0.0,0.0,0.0,-0.000794168365583,-0.00688926528668,0.00243976613577,0.0,0.0,0.0,0.0,0.0,0.0,0.0,0.0,0.0,6.68055164764,0.00226944667054,6.95159656196,0.0,0.0,0.0,0.0,0.0,0.0,0.0,0.0,0.0
25180000000,176,25180000000,imu_link,0.000342307782528,-0.377816485494,0.000431083323562,0.925880337993,0.0,0.0,0.0,0.0,0.0,0.0,0.0,0.0,0.0,-0.000896404938626,-0.00619843163448,0.00252710684746,0.0,0.0,0.0,0.0,0.0,0.0,0.0,0.0,0.0,6.68042978568,0.00213533796522,6.95129996501,0.0,0.0,0.0,0.0,0.0,0.0,0.0,0.0,0.0
25184000000,177,25184000000,imu_link,0.000338474528813,-0.377826991945,0.00043514751909,0.925876050149,0.0,0.0,0.0,0.0,0.0,0.0,0.0,0.0,0.0,-0.00100833778399,-0.00567234546134,0.00260833501697,0.0,0.0,0.0,0.0,0.0,0.0,0.0,0.0,0.0,6.68013832984,0.00202532267604,6.95247196992,0.0,0.0,0.0,0.0,0.0,0.0,0.0,0.0,0.0
25188000000,178,25188000000,imu_link,0.000334136772139,-0.377836784406,0.000439209568957,0.925872053686,0.0,0.0,0.0,0.0,0.0,0.0,0.0,0.0,0.0,-0.00124219069926,-0.00528665707698,0.00270246489584,0.0,0.0,0.0,0.0,0.0,0.0,0.0,0.0,0.0,6.68059571601,0.00191879051165,6.95445948182,0.0,0.0,0.0,0.0,0.0,0.0,0.0,0.0,0.0
25192000000,179,25192000000,imu_link,0.000329110730225,-0.377846057976,0.000443216220734,0.925868269095,0.0,0.0,0.0,0.0,0.0,0.0,0.0,0.0,0.0,-0.00157120989719,-0.00500627565381,0.00280671564716,0.0,0.0,0.0,0.0,0.0,0.0,0.0,0.0,0.0,6.68084515339,0.00179372262052,6.95558874591,0.0,0.0,0.0,0.0,0.0,0.0,0.0,0.0,0.0
25196000000,180,25196000000,imu_link,0.000323485357106,-0.377855074581,0.000447151980361,0.925864589465,0.0,0.0,0.0,0.0,0.0,0.0,0.0,0.0,0.0,-0.00186201425635,-0.00486736676849,0.00288705917233,0.0,0.0,0.0,0.0,0.0,0.0,0.0,0.0,0.0,6.68154447855,0.00162496046662,6.95809422249,0.0,0.0,0.0,0.0,0.0,0.0,0.0,0.0,0.0
25200000000,181,25200000000,imu_link,0.000317612109576,-0.377864401111,0.000451034227799,0.925860783306,0.0,0.0,0.0,0.0,0.0,0.0,0.0,0.0,0.0,-0.0019869220789,-0.0050346989461,0.00290919537054,0.0,0.0,0.0,0.0,0.0,0.0,0.0,0.0,0.0,6.68421236759,0.00142963127076,6.96681331645,0.0,0.0,0.0,0.0,0.0,0.0,0.0,0.0,0.0
25204000000,182,25204000000,imu_link,0.000311753173338,-0.377874236325,0.000454876880314,0.925856769387,0.0,0.0,0.0,0.0,0.0,0.0,0.0,0.0,0.0,-0.00198785942626,-0.00530944660082,0.00288828944974,0.0,0.0,0.0,0.0,0.0,0.0,0.0,0.0,0.0,6.68475074793,0.00129070762285,6.96810573917,0.0,0.0,0.0,0.0,0.0,0.0,0.0,0.0,0.0
25208000000,183,25208000000,imu_link,0.0003058760868,-0.3778846294,0.000458669150729,0.925852527634,0.0,0.0,0.0,0.0,0.0,0.0,0.0,0.0,0.0,-0.00200587212948,-0.00561074612749,0.00286853418606,0.0,0.0,0.0,0.0,0.0,0.0,0.0,0.0,0.0,6.68461401998,0.00124008439204,6.96657826328,0.0,0.0,0.0,0.0,0.0,0.0,0.0,0.0,0.0
25212000000,184,25212000000,imu_link,0.000299587422649,-0.377895387793,0.000462406595911,0.925848136744,0.0,0.0,0.0,0.0,0.0,0.0,0.0,0.0,0.0,-0.00220682199358,-0.00580795366704,0.00292100864591,0.0,0.0,0.0,0.0,0.0,0.0,0.0,0.0,0.0,6.68515985326,0.00129536700518,6.96461421966,0.0,0.0,0.0,0.0,0.0,0.0,0.0,0.0,0.0
25216000000,185,25216000000,imu_link,0.000292378374711,-0.377906386412,0.000466069898957,0.925843647925,0.0,0.0,0.0,0.0,0.0,0.0,0.0,0.0,0.0,-0.00264693965821,-0.00593746208158,0.0030606494871,0.0,0.0,0.0,0.0,0.0,0.0,0.0,0.0,0.0,6.68696138126,0.00134983396686,6.96556089455,0.0,0.0,0.0,0.0,0.0,0.0,0.0,0.0,0.0
25220000000,186,25220000000,imu_link,0.00028383938837,-0.377917569068,0.000469641461141,0.925839084216,0.0,0.0,0.0,0.0,0.0,0.0,0.0,0.0,0.0,-0.00327996383782,-0.00603651119707,0.00326952110385,0.0,0.0,0.0,0.0,0.0,0.0,0.0,0.0,0.0,6.68763338058,0.00128848055295,6.96516276454,0.0,0.0,0.0,0.0,0.0,0.0,0.0,0.0,0.0
25224000000,187,25224000000,imu_link,0.00027408244117,-0.377928919128,0.000473134911966,0.925834452323,0.0,0.0,0.0,0.0,0.0,0.0,0.0,0.0,0.0,-0.00385857118149,-0.00612661427242,0.00346354600224,0.0,0.0,0.0,0.0,0.0,0.0,0.0,0.0,0.0,6.6875621782,0.00108481045048,6.96334311443,0.0,0.0,0.0,0.0,0.0,0.0,0.0,0.0,0.0
25228000000,188,25228000000,imu_link,0.000263650333413,-0.377940515706,0.000476589738248,0.925829719732,0.0,0.0,0.0,0.0,0.0,0.0,0.0,0.0,0.0,-0.00417845781796,-0.00625960621974,0.00357330499054,0.0,0.0,0.0,0.0,0.0,0.0,0.0,0.0,0.0,6.6888802979,0.000796704380167,6.96518225086,0.0,0.0,0.0,0.0,0.0,0.0,0.0,0.0,0.0
25232000000,189,25232000000,imu_link,0.000253117664389,-0.377952147017,0.000480022573048,0.9258249727,0.0,0.0,0.0,0.0,0.0,0.0,0.0,0.0,0.0,-0.00422917123183,-0.00627839168476,0.00358213591472,0.0,0.0,0.0,0.0,0.0,0.0,0.0,0.0,0.0,6.69042661594,0.000573920313298,6.96461567673,0.0,0.0,0.0,0.0,0.0,0.0,0.0,0.0,0.0
25236000000,190,25236000000,imu_link,0.000243094357665,-0.377963577059,0.000483449648328,0.925820307402,0.0,0.0,0.0,0.0,0.0,0.0,0.0,0.0,0.0,-0.00399443151205,-0.00616989944372,0.00348316738468,0.0,0.0,0.0,0.0,0.0,0.0,0.0,0.0,0.0,6.69261276483,0.000437496911395,6.96517398118,0.0,0.0,0.0,0.0,0.0,0.0,0.0,0.0,0.0
25240000000,191,25240000000,imu_link,0.000233836714738,-0.377974588069,0.000486870719846,0.925815812703,0.0,0.0,0.0,0.0,0.0,0.0,0.0,0.0,0.0,-0.00364105201324,-0.00594387122405,0.00333559949774,0.0,0.0,0.0,0.0,0.0,0.0,0.0,0.0,0.0,6.69305257075,0.000435595424106,6.96274069859,0.0,0.0,0.0,0.0,0.0,0.0,0.0,0.0,0.0
25244000000,192,25244000000,imu_link,0.000225314014742,-0.377985033072,0.000490285923724,0.925811548657,0.0,0.0,0.0,0.0,0.0,0.0,0.0,0.0,0.0,-0.00330183921023,-0.0056384507256,0.00319386611961,0.0,0.0,0.0,0.0,0.0,0.0,0.0,0.0,0.0,6.69240530416,0.000511280686996,6.95881507536,0.0,0.0,0.0,0.0,0.0,0.0,0.0,0.0,0.0
25248000000,193,25248000000,imu_link,0.000217359741845,-0.377994893714,0.00049367654021,0.925807522849,0.0,0.0,0.0,0.0,0.0,0.0,0.0,0.0,0.0,-0.00304324144393,-0.00532306375242,0.00307493177134,0.0,0.0,0.0,0.0,0.0,0.0,0.0,0.0,0.0,6.69236266177,0.000596274577502,6.95736281148,0.0,0.0,0.0,0.0,0.0,0.0,0.0,0.0,0.0
25252000000,194,25252000000,imu_link,0.000209761881617,-0.378004511188,0.000496992866297,0.925803596083,0.0,0.0,0.0,0.0,0.0,0.0,0.0,0.0,0.0,-0.0028922481152,-0.00519187799154,0.00297313050652,0.0,0.0,0.0,0.0,0.0,0.0,0.0,0.0,0.0,6.6938270632,0.000650374407634,6.96152419857,0.0,0.0,0.0,0.0,0.0,0.0,0.0,0.0,0.0
25256000000,195,25256000000,imu_link,0.000202575664057,-0.378013995204,0.000500231955695,0.925799723569,0.0,0.0,0.0,0.0,0.0,0.0,0.0,0.0,0.0,-0.00271626841912,-0.00511995650953,0.00285954863286,0.0,0.0,0.0,0.0,0.0,0.0,0.0,0.0,0.0,6.69408348513,0.000702682558162,6.96182122845,0.0,0.0,0.0,0.0,0.0,0.0,0.0,0.0,0.0
25260000000,196,25260000000,imu_link,0.000195841794443,-0.378023215041,0.000503393270253,0.925795958693,0.0,0.0,0.0,0.0,0.0,0.0,0.0,0.0,0.0,-0.00252152143309,-0.00497744469934,0.00273799606336,0.0,0.0,0.0,0.0,0.0,0.0,0.0,0.0,0.0,6.6942461402,0.000821578942256,6.95975497098,0.0,0.0,0.0,0.0,0.0,0.0,0.0,0.0,0.0
25264000000,197,25264000000,imu_link,0.000189772645143,-0.378031809327,0.000506475555541,0.925792448989,0.0,0.0,0.0,0.0,0.0,0.0,0.0,0.0,0.0,-0.00222862872983,-0.00463982312214,0.00257564823787,0.0,0.0,0.0,0.0,0.0,0.0,0.0,0.0,0.0,6.69567197576,0.000890109174538,6.95797711535,0.0,0.0,0.0,0.0,0.0,0.0,0.0,0.0,0.0
25268000000,198,25268000000,imu_link,0.000184365986484,-0.378039511406,0.000509480467021,0.925789303381,0.0,0.0,0.0,0.0,0.0,0.0,0.0,0.0,0.0,-0.00193639780111,-0.004158179037,0.00241443406606,0.0,0.0,0.0,0.0,0.0,0.0,0.0,0.0,0.0,6.69617909307,0.00100429740648,6.95532597971,0.0,0.0,0.0,0.0,0.0,0.0,0.0,0.0,0.0
25272000000,199,25272000000,imu_link,0.000179284720885,-0.378046317896,0.000512412629048,0.92578652335,0.0,0.0,0.0,0.0,0.0,0.0,0.0,0.0,0.0,-0.0017993317346,-0.00367460359355,0.0023190773306,0.0,0.0,0.0,0.0,0.0,0.0,0.0,0.0,0.0,6.69669573901,0.00115912736269,6.95531292644,0.0,0.0,0.0,0.0,0.0,0.0,0.0,0.0,0.0
25276000000,200,25276000000,imu_link,0.000174234991427,-0.37805242801,0.000515268000264,0.925784027631,0.0,0.0,0.0,0.0,0.0,0.0,0.0,0.0,0.0,-0.0017990961801,-0.00329852959394,0.0022774350538,0.0,0.0,0.0,0.0,0.0,0.0,0.0,0.0,0.0,6.69834462132,0.0012146458845,6.95904909567,0.0,0.0,0.0,0.0,0.0,0.0,0.0,0.0,0.0
25280000000,201,25280000000,imu_link,0.000169094104291,-0.378058192519,0.000518015695072,0.92578167304,0.0,0.0,0.0,0.0,0.0,0.0,0.0,0.0,0.0,-0.00186156925965,-0.00311186092525,0.00224475722734,0.0,0.0,0.0,0.0,0.0,0.0,0.0,0.0,0.0,6.69901376703,0.00117853331935,6.96219348589,0.0,0.0,0.0,0.0,0.0,0.0,0.0,0.0,0.0
25284000000,202,25284000000,imu_link,0.000164004933953,-0.378063896484,0.000520691494595,0.925779343126,0.0,0.0,0.0,0.0,0.0,0.0,0.0,0.0,0.0,-0.00185120673398,-0.00307919028114,0.00220169006882,0.0,0.0,0.0,0.0,0.0,0.0,0.0,0.0,0.0,6.69889856303,0.00107728802929,6.96320547074,0.0,0.0,0.0,0.0,0.0,0.0,0.0,0.0,0.0
25288000000,203,25288000000,imu_link,0.000159154827567,-0.378069531979,0.000523305066915,0.925777041091,0.0,0.0,0.0,0.0,0.0,0.0,0.0,0.0,0.0,-0.00175229388912,-0.00304229332104,0.0021276821417,0.0,0.0,0.0,0.0,0.0,0.0,0.0,0.0,0.0,6.69870089798,0.00100121102078,6.96156175146,0.0,0.0,0.0,0.0,0.0,0.0,0.0,0.0,0.0
25292000000,204,25292000000,imu_link,0.000154562504548,-0.378074909512,0.000525861017389,0.925774844321,0.0,0.0,0.0,0.0,0.0,0.0,0.0,0.0,0.0,-0.00164380234053,-0.00290305949351,0.00205223156117,0.0,0.0,0.0,0.0,0.0,0.0,0.0,0.0,0.0,6.69811071662,0.000980320405318,6.95730912823,0.0,0.0,0.0,0.0,0.0,0.0,0.0,0.0,0.0
25296000000,205,25296000000,imu_link,0.000149889878518,-0.378080027499,0.000528331210844,0.925772753544,0.0,0.0,0.0,0.0,0.0,0.0,0.0,0.0,0.0,-0.00169712483132,-0.00276286746724,0.00202766806585,0.0,0.0,0.0,0.0,0.0,0.0,0.0,0.0,0.0,6.69943858711,0.00100657324601,6.958342637,0.0,0.0,0.0,0.0,0.0,0.0,0.0,0.0,0.0
25300000000,206,25300000000,imu_link,0.00014445587659,-0.378085027201,0.000530671485369,0.925770711206,0.0,0.0,0.0,0.0,0.0,0.0,0.0,0.0,0.0,-0.00207408762159,-0.00269876638199,0.00211143921243,0.0,0.0,0.0,0.0,0.0,0.0,0.0,0.0,0.0,6.70109835856,0.00108300474197,6.96164647119,0.0,0.0,0.0,0.0,0.0,0.0,0.0,0.0,0.0
25304000000,207,25304000000,imu_link,0.000137988064651,-0.378090239131,0.000532896279366,0.925768582344,0.0,0.0,0.0,0.0,0.0,0.0,0.0,0.0,0.0,-0.00257450392807,-0.00281309477875,0.00225345729755,0.0,0.0,0.0,0.0,0.0,0.0,0.0,0.0,0.0,6.70224122786,0.00101858011542,6.96538415028,0.0,0.0,0.0,0.0,0.0,0.0,0.0,0.0,0.0
25308000000,208,25308000000,imu_link,0.000130511415591,-0.37809569766,0.000535011582667,0.925766352888,0.0,0.0,0.0,0.0,0.0,0.0,0.0,0.0,0.0,-0.00306223623105,-0.00294599711404,0.00239353532477,0.0,0.0,0.0,0.0,0.0,0.0,0.0,0.0,0.0,6.70184445898,0.000877251911804,6.96366142868,0.0,0.0,0.0,0.0,0.0,0.0,0.0,0.0,0.0
25312000000,209,25312000000,imu_link,0.000122055537474,-0.378101349171,0.000537004667869,0.925764044713,0.0,0.0,0.0,0.0,0.0,0.0,0.0,0.0,0.0,-0.00353865644303,-0.00304995272704,0.00252211742067,0.0,0.0,0.0,0.0,0.0,0.0,0.0,0.0,0.0,6.70113204066,0.000724217386605,6.9604392325,0.0,0.0,0.0,0.0,0.0,0.0,0.0,0.0,0.0
25316000000,210,25316000000,imu_link,0.000112539924918,-0.378107113989,0.000538863776779,0.925761690346,0.0,0.0,0.0,0.0,0.0,0.0,0.0,0.0,0.0,-0.00405454437577,-0.0031108567701,0.00266046503253,0.0,0.0,0.0,0.0,0.0,0.0,0.0,0.0,0.0,6.70153835767,0.00059328221519,6.95907428343,0.0,0.0,0.0,0.0,0.0,0.0,0.0,0.0,0.0
25320000000,211,25320000000,imu_link,0.000101767435675,-0.378113013403,0.000540549428306,0.925759281101,0.0,0.0,0.0,0.0,0.0,0.0,0.0,0.0,0.0,-0.00466915443078,-0.00318320500063,0.00281781429959,0.0,0.0,0.0,0.0,0.0,0.0,0.0,0.0,0.0,6.70229056266,0.000449544846789,6.95917328836,0.0,0.0,0.0,0.0,0.0,0.0,0.0,0.0,0.0
25324000000,212,25324000000,imu_link,8.97821265964e-05,-0.378119181645,0.000542052890687,0.925756762109,0.0,0.0,0.0,0.0,0.0,0.0,0.0,0.0,0.0,-0.00526505515709,-0.00332806940655,0.00296281747618,0.0,0.0,0.0,0.0,0.0,0.0,0.0,0.0,0.0,6.70285234772,0.000237156444562,6.95993289234,0.0,0.0,0.0,0.0,0.0,0.0,0.0,0.0,0.0
25328000000,213,25328000000,imu_link,7.70584962848e-05,-0.37812575839,0.000543416341941,0.925754076201,0.0,0.0,0.0,0.0,0.0,0.0,0.0,0.0,0.0,-0.00563338176291,-0.00354852011401,0.00303765963876,0.0,0.0,0.0,0.0,0.0,0.0,0.0,0.0,0.0,6.70435597291,-1.84950079653e-05,6.96288818321,0.0,0.0,0.0,0.0,0.0,0.0,0.0,0.0,0.0
25332000000,214,25332000000,imu_link,6.40187584828e-05,-0.378132871823,0.000544670444364,0.925751170932,0.0,0.0,0.0,0.0,0.0,0.0,0.0,0.0,0.0,-0.00580051183736,-0.00383833228581,0.00304688904874,0.0,0.0,0.0,0.0,0.0,0.0,0.0,0.0,0.0,6.70486546618,-0.000194699236238,6.96363401073,0.0,0.0,0.0,0.0,0.0,0.0,0.0,0.0,0.0
25336000000,215,25336000000,imu_link,5.09261766765e-05,-0.378140541046,0.000545812447802,0.92574803846,0.0,0.0,0.0,0.0,0.0,0.0,0.0,0.0,0.0,-0.00584631028051,-0.00413853896141,0.00300507185907,0.0,0.0,0.0,0.0,0.0,0.0,0.0,0.0,0.0,6.70435838475,-0.000277957922015,6.96154777964,0.0,0.0,0.0,0.0,0.0,0.0,0.0,0.0,0.0
25340000000,216,25340000000,imu_link,3.78924741439e-05,-0.378148627456,0.000546825462951,0.925744735388,0.0,0.0,0.0,0.0,0.0,0.0,0.0,0.0,0.0,-0.00584355395448,-0.00436391906404,0.00293429139137,0.0,0.0,0.0,0.0,0.0,0.0,0.0,0.0,0.0,6.70525133446,-0.000306237389249,6.96048703552,0.0,0.0,0.0,0.0,0.0,0.0,0.0,0.0,0.0
25344000000,217,25344000000,imu_link,2.49859940895e-05,-0.378156933083,0.000547701536322,0.925741342579,0.0,0.0,0.0,0.0,0.0,0.0,0.0,0.0,0.0,-0.00581061659396,-0.00448239290146,0.00284687901229,0.0,0.0,0.0,0.0,0.0,0.0,0.0,0.0,0.0,6.70698432394,-0.000299487265344,6.96032014622,0.0,0.0,0.0,0.0,0.0,0.0,0.0,0.0,0.0
25348000000,218,25348000000,imu_link,1.23296571175e-05,-0.378165136138,0.000548454174032,0.925737991472,0.0,0.0,0.0,0.0,0.0,0.0,0.0,0.0,0.0,-0.00571814415467,-0.00442710068244,0.00274243489287,0.0,0.0,0.0,0.0,0.0,0.0,0.0,0.0,0.0,6.70879597557,-0.000252577778473,6.95949084334,0.0,0.0,0.0,0.0,0.0,0.0,0.0,0.0,0.0
25352000000,219,25352000000,imu_link,3.61300998422e-07,-0.378172929951,0.000549138679026,0.925734807328,0.0,0.0,0.0,0.0,0.0,0.0,0.0,0.0,0.0,-0.00541247066064,-0.0042062941212,0.00258076487639,0.0,0.0,0.0,0.0,0.0,0.0,0.0,0.0,0.0,6.71028847289,-0.0001937601366,6.95832445422,0.0,0.0,0.0,0.0,0.0,0.0,0.0,0.0,0.0
25356000000,220,25356000000,imu_link,-1.02830014326e-05,-0.378180123988,0.000549829143361,0.925731867985,0.0,0.0,0.0,0.0,0.0,0.0,0.0,0.0,0.0,-0.00479831790125,-0.00388275264764,0.00233309530626,0.0,0.0,0.0,0.0,0.0,0.0,0.0,0.0,0.0,6.71299251818,-0.000143669128538,6.9605313354,0.0,0.0,0.0,0.0,0.0,0.0,0.0,0.0,0.0
25360000000,221,25360000000,imu_link,-1.92611498968e-05,-0.378186847128,0.000550604989272,0.925729120814,0.0,0.0,0.0,0.0,0.0,0.0,0.0,0.0,0.0,-0.00401083673681,-0.00362891068502,0.00205751196238,0.0,0.0,0.0,0.0,0.0,0.0,0.0,0.0,0.0,6.71422269594,2.59399810296e-05,6.96285979826,0.0,0.0,0.0,0.0,0.0,0.0,0.0,0.0,0.0
25364000000,222,25364000000,imu_link,-2.65259222869e-05,-0.378193583197,0.000551512158141,0.925726368189,0.0,0.0,0.0,0.0,0.0,0.0,0.0,0.0,0.0,-0.0031929469777,-0.0036363996594,0.00179430993493,0.0,0.0,0.0,0.0,0.0,0.0,0.0,0.0,0.0,6.71555673166,0.000282605384593,6.96844989016,0.0,0.0,0.0,0.0,0.0,0.0,0.0,0.0,0.0
25368000000,223,25368000000,imu_link,-3.2425206302e-05,-0.378200725768,0.000552524013002,0.92572344936,0.0,0.0,0.0,0.0,0.0,0.0,0.0,0.0,0.0,-0.00254123119539,-0.00385636124099,0.00158459619585,0.0,0.0,0.0,0.0,0.0,0.0,0.0,0.0,0.0,6.71645266502,0.000577108409158,6.97238280761,0.0,0.0,0.0,0.0,0.0,0.0,0.0,0.0,0.0
25372000000,224,25372000000,imu_link,-3.72944308931e-05,-0.378208680407,0.0005535929534,0.925720198661,0.0,0.0,0.0,0.0,0.0,0.0,0.0,0.0,0.0,-0.00205389094167,-0.0042952780873,0.00141631281249,0.0,0.0,0.0,0.0,0.0,0.0,0.0,0.0,0.0,6.71782930439,0.000797435164663,6.97725953541,0.0,0.0,0.0,0.0,0.0,0.0,0.0,0.0,0.0
25376000000,225,25376000000,imu_link,-4.12132532267e-05,-0.37821751327,0.000554691890843,0.925716589067,0.0,0.0,0.0,0.0,0.0,0.0,0.0,0.0,0.0,-0.00160856486883,-0.00476990558034,0.00125055502056,0.0,0.0,0.0,0.0,0.0,0.0,0.0,0.0,0.0,6.71792534365,0.000912518751487,6.97665209087,0.0,0.0,0.0,0.0,0.0,0.0,0.0,0.0,0.0
25380000000,226,25380000000,imu_link,-4.42160594345e-05,-0.378227104001,0.000555806419393,0.925712669743,0.0,0.0,0.0,0.0,0.0,0.0,0.0,0.0,0.0,-0.00118184736642,-0.00517951837684,0.00108461510854,0.0,0.0,0.0,0.0,0.0,0.0,0.0,0.0,0.0,6.71736488806,0.000998594909442,6.9732318371,0.0,0.0,0.0,0.0,0.0,0.0,0.0,0.0,0.0
25384000000,227,25384000000,imu_link,-4.66041939128e-05,-0.378237141491,0.000556903329092,0.925708567792,0.0,0.0,0.0,0.0,0.0,0.0,0.0,0.0,0.0,-0.000900802819211,-0.00542101091822,0.000960258233053,0.0,0.0,0.0,0.0,0.0,0.0,0.0,0.0,0.0,6.7186784658,0.00112103216404,6.97151665387,0.0,0.0,0.0,0.0,0.0,0.0,0.0,0.0,0.0
25388000000,228,25388000000,imu_link,-4.8776623188e-05,-0.378247366134,0.000557961415168,0.925704389269,0.0,0.0,0.0,0.0,0.0,0.0,0.0,0.0,0.0,-0.000808358907344,-0.00552217556938,0.000901511653245,0.0,0.0,0.0,0.0,0.0,0.0,0.0,0.0,0.0,6.72005864166,0.00120871831092,6.9704365971,0.0,0.0,0.0,0.0,0.0,0.0,0.0,0.0,0.0
25392000000,229,25392000000,imu_link,-5.104808901e-05,-0.378257809664,0.000558957858195,0.925700121199,0.0,0.0,0.0,0.0,0.0,0.0,0.0,0.0,0.0,-0.000865919599963,-0.00564039459149,0.000891729833503,0.0,0.0,0.0,0.0,0.0,0.0,0.0,0.0,0.0,6.7207542612,0.00129094856297,6.97097081922,0.0,0.0,0.0,0.0,0.0,0.0,0.0,0.0,0.0
25396000000,230,25396000000,imu_link,-5.36714960982e-05,-0.378268505449,0.000559872213352,0.925695749935,0.0,0.0,0.0,0.0,0.0,0.0,0.0,0.0,0.0,-0.00104441395905,-0.00577656717641,0.000920320126159,0.0,0.0,0.0,0.0,0.0,0.0,0.0,0.0,0.0,6.72119063683,0.00134387461673,6.97098154324,0.0,0.0,0.0,0.0,0.0,0.0,0.0,0.0,0.0
25400000000,231,25400000000,imu_link,-5.68408605882e-05,-0.378279478532,0.00056068912325,0.925691265227,0.0,0.0,0.0,0.0,0.0,0.0,0.0,0.0,0.0,-0.00131562008903,-0.00592621497101,0.000978501355509,0.0,0.0,0.0,0.0,0.0,0.0,0.0,0.0,0.0,6.72148217333,0.00132633511939,6.97067187726,0.0,0.0,0.0,0.0,0.0,0.0,0.0,0.0,0.0
25404000000,232,25404000000,imu_link,-6.06426261289e-05,-0.378290729751,0.000561396931566,0.925686666719,0.0,0.0,0.0,0.0,0.0,0.0,0.0,0.0,0.0,-0.00162904080601,-0.0060762921926,0.00104764033312,0.0,0.0,0.0,0.0,0.0,0.0,0.0,0.0,0.0,6.72221337356,0.00124673180478,6.97112032639,0.0,0.0,0.0,0.0,0.0,0.0,0.0,0.0,0.0
25408000000,233,25408000000,imu_link,-6.49753868899e-05,-0.378302406537,0.000562015989394,0.925681894133,0.0,0.0,0.0,0.0,0.0,0.0,0.0,0.0,0.0,-0.00189171988158,-0.00630603768244,0.0011070340063,0.0,0.0,0.0,0.0,0.0,0.0,0.0,0.0,0.0,6.72242966583,0.00113640974565,6.97168126078,0.0,0.0,0.0,0.0,0.0,0.0,0.0,0.0,0.0
25412000000,234,25412000000,imu_link,-6.95878966795e-05,-0.378314459064,0.000562575145698,0.925676967808,0.0,0.0,0.0,0.0,0.0,0.0,0.0,0.0,0.0,-0.00203264021342,-0.00650894536385,0.00113225498755,0.0,0.0,0.0,0.0,0.0,0.0,0.0,0.0,0.0,6.72385514284,0.000976181607354,6.97283248717,0.0,0.0,0.0,0.0,0.0,0.0,0.0,0.0,0.0
25416000000,235,25416000000,imu_link,-7.43266513923e-05,-0.378326744399,0.000563110657346,0.925671946131,0.0,0.0,0.0,0.0,0.0,0.0,0.0,0.0,0.0,-0.00209561258348,-0.00663469825658,0.00114521019242,0.0,0.0,0.0,0.0,0.0,0.0,0.0,0.0,0.0,6.72457134101,0.00085373726322,6.97146801907,0.0,0.0,0.0,0.0,0.0,0.0,0.0,0.0,0.0
25420000000,236,25420000000,imu_link,-7.89865612227e-05,-0.378339026164,0.000563622812389,0.92566692572,0.0,0.0,0.0,0.0,0.0,0.0,0.0,0.0,0.0,-0.00206353749723,-0.00663282723647,0.0011194851279,0.0,0.0,0.0,0.0,0.0,0.0,0.0,0.0,0.0,6.72541903553,0.000748520113676,6.96975188297,0.0,0.0,0.0,0.0,0.0,0.0,0.0,0.0,0.0
25424000000,237,25424000000,imu_link,-8.32938821938e-05,-0.378350978402,0.000564094983913,0.92566203984,0.0,0.0,0.0,0.0,0.0,0.0,0.0,0.0,0.0,-0.00190781305998,-0.00645495991836,0.00103425545593,0.0,0.0,0.0,0.0,0.0,0.0,0.0,0.0,0.0,6.72684646433,0.000671363354971,6.96842460787,0.0,0.0,0.0,0.0,0.0,0.0,0.0,0.0,0.0
25428000000,238,25428000000,imu_link,-8.7104893023e-05,-0.378362462503,0.000564496555218,0.925657345201,0.0,0.0,0.0,0.0,0.0,0.0,0.0,0.0,0.0,-0.00169132116053,-0.00620225100666,0.00090765532814,0.0,0.0,0.0,0.0,0.0,0.0,0.0,0.0,0.0,6.72739211491,0.000651538248721,6.96733634218,0.0,0.0,0.0,0.0,0.0,0.0,0.0,0.0,0.0
25432000000,239,25432000000,imu_link,-9.04647525477e-05,-0.378373391954,0.000564809199449,0.9256528772,0.0,0.0,0.0,0.0,0.0,0.0,0.0,0.0,0.0,-0.00149917231447,-0.00590279045828,0.000781108157785,0.0,0.0,0.0,0.0,0.0,0.0,0.0,0.0,0.0,6.72737662525,0.000671187578891,6.96537240599,0.0,0.0,0.0,0.0,0.0,0.0,0.0,0.0,0.0
25436000000,240,25436000000,imu_link,-9.34893240833e-05,-0.378383773769,0.000565041658393,0.925648632979,0.0,0.0,0.0,0.0,0.0,0.0,0.0,0.0,0.0,-0.00135899738124,-0.00560708497557,0.000680525833803,0.0,0.0,0.0,0.0,0.0,0.0,0.0,0.0,0.0,6.72742659355,0.000739700632171,6.96455348021,0.0,0.0,0.0,0.0,0.0,0.0,0.0,0.0,0.0
25440000000,241,25440000000,imu_link,-9.61225741273e-05,-0.378393635016,0.000565247256177,0.925644601472,0.0,0.0,0.0,0.0,0.0,0.0,0.0,0.0,0.0,-0.00118280917828,-0.00532601900338,0.0005940232224,0.0,0.0,0.0,0.0,0.0,0.0,0.0,0.0,0.0,6.72819443566,0.000791161054064,6.96518851886,0.0,0.0,0.0,0.0,0.0,0.0,0.0,0.0,0.0
25444000000,242,25444000000,imu_link,-9.81057665314e-05,-0.378402876342,0.000565483624808,0.925640823311,0.0,0.0,0.0,0.0,0.0,0.0,0.0,0.0,0.0,-0.000875938878924,-0.00499135859555,0.000485234012504,0.0,0.0,0.0,0.0,0.0,0.0,0.0,0.0,0.0,6.72907881212,0.000803936926891,6.96482471762,0.0,0.0,0.0,0.0,0.0,0.0,0.0,0.0,0.0
25448000000,243,25448000000,imu_link,-9.92946557836e-05,-0.378411330834,0.000565818475747,0.92563736673,0.0,0.0,0.0,0.0,0.0,0.0,0.0,0.0,0.0,-0.000489447927429,-0.0045665817901,0.00038047800879,0.0,0.0,0.0,0.0,0.0,0.0,0.0,0.0,0.0,6.7296586502,0.000858654338985,6.9633605381,0.0,0.0,0.0,0.0,0.0,0.0,0.0,0.0,0.0
25452000000,244,25452000000,imu_link,-9.96085745938e-05,-0.378418838984,0.000566357260604,0.925634296912,0.0,0.0,0.0,0.0,0.0,0.0,0.0,0.0,0.0,-4.56228764189e-05,-0.0040556771113,0.000309250635669,0.0,0.0,0.0,0.0,0.0,0.0,0.0,0.0,0.0,6.73168471065,0.000947476250839,6.964557151,0.0,0.0,0.0,0.0,0.0,0.0,0.0,0.0,0.0
25456000000,245,25456000000,imu_link,-9.93130905879e-05,-0.378425488354,0.000567143683966,0.925631578031,0.0,0.0,0.0,0.0,0.0,0.0,0.0,0.0,0.0,0.000283535401496,-0.00359200302885,0.000308500622482,0.0,0.0,0.0,0.0,0.0,0.0,0.0,0.0,0.0,6.73251347495,0.00107823559136,6.96617923612,0.0,0.0,0.0,0.0,0.0,0.0,0.0,0.0,0.0
25460000000,246,25460000000,imu_link,-9.91492534518e-05,-0.378431542363,0.000568089352965,0.925629102389,0.0,0.0,0.0,0.0,0.0,0.0,0.0,0.0,0.0,0.00025291936151,-0.00327040752106,0.000407071871258,0.0,0.0,0.0,0.0,0.0,0.0,0.0,0.0,0.0,6.73355908574,0.00119638884555,6.96986096748,0.0,0.0,0.0,0.0,0.0,0.0,0.0,0.0,0.0
25464000000,247,25464000000,imu_link,-9.97072294661e-05,-0.378437341603,0.000569090799258,0.925626730748,0.0,0.0,0.0,0.0,0.0,0.0,0.0,0.0,0.0,-7.05148026622e-05,-0.00313261589798,0.000569447935161,0.0,0.0,0.0,0.0,0.0,0.0,0.0,0.0,0.0,6.73372351852,0.00119027348194,6.97236455145,0.0,0.0,0.0,0.0,0.0,0.0,0.0,0.0,0.0
25468000000,248,25468000000,imu_link,-0.000101130139798,-0.378443258348,0.000570089213864,0.925624310928,0.0,0.0,0.0,0.0,0.0,0.0,0.0,0.0,0.0,-0.000471427454063,-0.00319586858073,0.000731714402651,0.0,0.0,0.0,0.0,0.0,0.0,0.0,0.0,0.0,6.73355591441,0.00103423609314,6.97451555769,0.0,0.0,0.0,0.0,0.0,0.0,0.0,0.0,0.0
25472000000,249,25472000000,imu_link,-0.00010294924004,-0.378449695941,0.000571182720253,0.925621678005,0.0,0.0,0.0,0.0,0.0,0.0,0.0,0.0,0.0,-0.000636954778518,-0.00347713902346,0.000850726143668,0.0,0.0,0.0,0.0,0.0,0.0,0.0,0.0,0.0,6.73483493272,0.0007570199887,6.97939596248,0.0,0.0,0.0,0.0,0.0,0.0,0.0,0.0,0.0
25476000000,250,25476000000,imu_link,-0.000104626860917,-0.378456955789,0.000572442352629,0.925618708744,0.0,0.0,0.0,0.0,0.0,0.0,0.0,0.0,0.0,-0.000540293572258,-0.00392137989118,0.000900893369823,0.0,0.0,0.0,0.0,0.0,0.0,0.0,0.0,0.0,6.73605786413,0.00053384046174,6.98321287136,0.0,0.0,0.0,0.0,0.0,0.0,0.0,0.0,0.0
25480000000,251,25480000000,imu_link,-0.000106040287375,-0.378465064815,0.000573867913726,0.925615392129,0.0,0.0,0.0,0.0,0.0,0.0,0.0,0.0,0.0,-0.000386884708335,-0.00438020108944,0.000927748622477,0.0,0.0,0.0,0.0,0.0,0.0,0.0,0.0,0.0,6.73473553586,0.00046498242973,6.97961613565,0.0,0.0,0.0,0.0,0.0,0.0,0.0,0.0,0.0
25484000000,252,25484000000,imu_link,-0.000107368387046,-0.378473784366,0.000575418835452,0.92561182572,0.0,0.0,0.0,0.0,0.0,0.0,0.0,0.0,0.0,-0.000323860930179,-0.00471005698088,0.000969659186872,0.0,0.0,0.0,0.0,0.0,0.0,0.0,0.0,0.0,6.73449349916,0.000493688118406,6.9755782283,0.0,0.0,0.0,0.0,0.0,0.0,0.0,0.0,0.0
25488000000,253,25488000000,imu_link,-0.000108964151257,-0.378483014934,0.000577037941627,0.925608050181,0.0,0.0,0.0,0.0,0.0,0.0,0.0,0.0,0.0,-0.000434992899881,-0.00498606076109,0.00105190009409,0.0,0.0,0.0,0.0,0.0,0.0,0.0,0.0,0.0,6.73515565307,0.000544665632954,6.97450783081,0.0,0.0,0.0,0.0,0.0,0.0,0.0,0.0,0.0
25492000000,254,25492000000,imu_link,-0.000110960368534,-0.378492759357,0.00057872373511,0.925604064317,0.0,0.0,0.0,0.0,0.0,0.0,0.0,0.0,0.0,-0.000607863899473,-0.00526356510557,0.0011585782771,0.0,0.0,0.0,0.0,0.0,0.0,0.0,0.0,0.0,6.73384055553,0.000491058734232,6.97102881472,0.0,0.0,0.0,0.0,0.0,0.0,0.0,0.0,0.0
25496000000,255,25496000000,imu_link,-0.000113316749865,-0.378503232,0.000580528748286,0.925599780419,0.0,0.0,0.0,0.0,0.0,0.0,0.0,0.0,0.0,-0.000752213915086,-0.00565689107015,0.00128195897491,0.0,0.0,0.0,0.0,0.0,0.0,0.0,0.0,0.0,6.73385510849,0.000382402664017,6.97178039961,0.0,0.0,0.0,0.0,0.0,0.0,0.0,0.0,0.0
25500000000,256,25500000000,imu_link,-0.000115833418632,-0.378514584415,0.000582493468199,0.925595136477,0.0,0.0,0.0,0.0,0.0,0.0,0.0,0.0,0.0,-0.000796445930441,-0.00613215050957,0.00138626055266,0.0,0.0,0.0,0.0,0.0,0.0,0.0,0.0,0.0,6.73390207998,0.000252355399929,6.97189454938,0.0,0.0,0.0,0.0,0.0,0.0,0.0,0.0,0.0
25504000000,257,25504000000,imu_link,-0.000118033444039,-0.378526569305,0.000584652553878,0.925590233624,0.0,0.0,0.0,0.0,0.0,0.0,0.0,0.0,0.0,-0.000613318216286,-0.00647396281714,0.00141632426765,0.0,0.0,0.0,0.0,0.0,0.0,0.0,0.0,0.0,6.73499120719,7.80528740272e-05,6.97064759216,0.0,0.0,0.0,0.0,0.0,0.0,0.0,0.0,0.0
25508000000,258,25508000000,imu_link,-0.000119544797851,-0.378538785997,0.000587014371079,0.92558523574,0.0,0.0,0.0,0.0,0.0,0.0,0.0,0.0,0.0,-0.000256308101588,-0.00659943900562,0.00137982127836,0.0,0.0,0.0,0.0,0.0,0.0,0.0,0.0,0.0,6.73689517093,-3.94922620092e-05,6.96922032218,0.0,0.0,0.0,0.0,0.0,0.0,0.0,0.0,0.0
25512000000,259,25512000000,imu_link,-0.000120150083942,-0.378550948744,0.000589568699618,0.925580259717,0.0,0.0,0.0,0.0,0.0,0.0,0.0,0.0,0.0,0.000199466995093,-0.00657061345966,0.00129742002422,0.0,0.0,0.0,0.0,0.0,0.0,0.0,0.0,0.0,6.73654794897,-7.39441200061e-05,6.96505106463,0.0,0.0,0.0,0.0,0.0,0.0,0.0,0.0,0.0
25516000000,260,25516000000,imu_link,-0.000119917067131,-0.378563033696,0.000592309436511,0.925575315309,0.0,0.0,0.0,0.0,0.0,0.0,0.0,0.0,0.0,0.000622732665565,-0.00652888485057,0.00122501314551,0.0,0.0,0.0,0.0,0.0,0.0,0.0,0.0,0.0,6.73593785825,-2.79575909258e-05,6.96299960166,0.0,0.0,0.0,0.0,0.0,0.0,0.0,0.0,0.0
25520000000,261,25520000000,imu_link,-0.000118968191451,-0.378575038245,0.000595229979653,0.925570403571,0.0,0.0,0.0,0.0,0.0,0.0,0.0,0.0,0.0,0.000988083085133,-0.00648571456484,0.00117272155089,0.0,0.0,0.0,0.0,0.0,0.0,0.0,0.0,0.0,6.73492593804,2.65591006549e-05,6.96027195871,0.0,0.0,0.0,0.0,0.0,0.0,0.0,0.0,0.0
25524000000,262,25524000000,imu_link,-0.000117389964235,-0.378586736214,0.000598329118881,0.925565617007,0.0,0.0,0.0,0.0,0.0,0.0,0.0,0.0,0.0,0.00131324236116,-0.00632033769373,0.00113622576925,0.0,0.0,0.0,0.0,0.0,0.0,0.0,0.0,0.0,6.73478442029,3.55620461015e-05,6.95673875048,0.0,0.0,0.0,0.0,0.0,0.0,0.0,0.0,0.0
25528000000,263,25528000000,imu_link,-0.00011532697243,-0.37859779421,0.000601589026304,0.925561091992,0.0,0.0,0.0,0.0,0.0,0.0,0.0,0.0,0.0,0.00156822224149,-0.00597481420444,0.00111882312059,0.0,0.0,0.0,0.0,0.0,0.0,0.0,0.0,0.0,6.73504775073,8.03241662048e-05,6.9532267515,0.0,0.0,0.0,0.0,0.0,0.0,0.0,0.0,0.0
25532000000,264,25532000000,imu_link,-0.000113297515571,-0.378608060024,0.000604929624128,0.925556890801,0.0,0.0,0.0,0.0,0.0,0.0,0.0,0.0,0.0,0.00156823448092,-0.00554690322817,0.00116246147272,0.0,0.0,0.0,0.0,0.0,0.0,0.0,0.0,0.0,6.73621992395,0.000186424404893,6.95324809872,0.0,0.0,0.0,0.0,0.0,0.0,0.0,0.0,0.0
25536000000,265,25536000000,imu_link,-0.000111626980962,-0.378617562459,0.000608255547373,0.925553001703,0.0,0.0,0.0,0.0,0.0,0.0,0.0,0.0,0.0,0.0013996036187,-0.00513443749702,0.00122356466891,0.0,0.0,0.0,0.0,0.0,0.0,0.0,0.0,0.0,6.73680692116,0.000171441858327,6.95385359902,0.0,0.0,0.0,0.0,0.0,0.0,0.0,0.0,0.0
25540000000,266,25540000000,imu_link,-0.000110435197432,-0.378626546713,0.000611530079858,0.925549324434,0.0,0.0,0.0,0.0,0.0,0.0,0.0,0.0,0.0,0.00116848956314,-0.00485438619678,0.00129037851513,0.0,0.0,0.0,0.0,0.0,0.0,0.0,0.0,0.0,6.73645219136,7.1253482615e-05,6.95476775796,0.0,0.0,0.0,0.0,0.0,0.0,0.0,0.0,0.0
25544000000,267,25544000000,imu_link,-0.00010980739394,-0.378635212219,0.000614728387605,0.92554577743,0.0,0.0,0.0,0.0,0.0,0.0,0.0,0.0,0.0,0.000893168191925,-0.00468204002415,0.00136185031456,0.0,0.0,0.0,0.0,0.0,0.0,0.0,0.0,0.0,6.73612299679,-5.16429816807e-05,6.9551400428,0.0,0.0,0.0,0.0,0.0,0.0,0.0,0.0,0.0
25548000000,268,25548000000,imu_link,-0.000109920640779,-0.378643810603,0.000617789146786,0.925542257785,0.0,0.0,0.0,0.0,0.0,0.0,0.0,0.0,0.0,0.000524211957447,-0.00464556300055,0.001438485718,0.0,0.0,0.0,0.0,0.0,0.0,0.0,0.0,0.0,6.73645110974,-0.000211175765545,6.95709559937,0.0,0.0,0.0,0.0,0.0,0.0,0.0,0.0,0.0
25552000000,269,25552000000,imu_link,-0.000110898741908,-0.378652548571,0.000620668833938,0.925538680949,0.0,0.0,0.0,0.0,0.0,0.0,0.0,0.0,0.0,8.96551994258e-05,-0.00472070892761,0.00151843666746,0.0,0.0,0.0,0.0,0.0,0.0,0.0,0.0,0.0,6.73660460786,-0.000440057105398,6.95823631572,0.0,0.0,0.0,0.0,0.0,0.0,0.0,0.0,0.0
25556000000,270,25556000000,imu_link,-0.000112921704146,-0.37866144045,0.000623366903461,0.925535041032,0.0,0.0,0.0,0.0,0.0,0.0,0.0,0.0,0.0,-0.000428310737309,-0.00480354280238,0.00163222029968,0.0,0.0,0.0,0.0,0.0,0.0,0.0,0.0,0.0,6.73673417476,-0.000648292670444,6.95767288488,0.0,0.0,0.0,0.0,0.0,0.0,0.0,0.0,0.0
25560000000,271,25560000000,imu_link,-0.000115982465191,-0.378670534255,0.000625929101961,0.925531318351,0.0,0.0,0.0,0.0,0.0,0.0,0.0,0.0,0.0,-0.000934362486626,-0.00491232611398,0.00176584519415,0.0,0.0,0.0,0.0,0.0,0.0,0.0,0.0,0.0,6.73735404152,-0.000895710628301,6.95815855982,0.0,0.0,0.0,0.0,0.0,0.0,0.0,0.0,0.0
25564000000,272,25564000000,imu_link,-0.000119832925857,-0.378680008311,0.0006284178397,0.925527439916,0.0,0.0,0.0,0.0,0.0,0.0,0.0,0.0,0.0,-0.00131384510234,-0.005117531461,0.00188139475964,0.0,0.0,0.0,0.0,0.0,0.0,0.0,0.0,0.0,6.73800059535,-0.00117349360825,6.95977170922,0.0,0.0,0.0,0.0,0.0,0.0,0.0,0.0,0.0
25568000000,273,25568000000,imu_link,-0.000124143485775,-0.378690137428,0.00063086125006,0.925523293287,0.0,0.0,0.0,0.0,0.0,0.0,0.0,0.0,0.0,-0.00153556652595,-0.00547130289391,0.00194757910739,0.0,0.0,0.0,0.0,0.0,0.0,0.0,0.0,0.0,6.73837818719,-0.00142796553546,6.9618314468,0.0,0.0,0.0,0.0,0.0,0.0,0.0,0.0,0.0
25572000000,274,25572000000,imu_link,-0.00012840447931,-0.378701195868,0.000633310646957,0.925518766249,0.0,0.0,0.0,0.0,0.0,0.0,0.0,0.0,0.0,-0.00151181233209,-0.00597340189195,0.00194102660518,0.0,0.0,0.0,0.0,0.0,0.0,0.0,0.0,0.0,6.73999222857,-0.00162287805533,6.96616945929,0.0,0.0,0.0,0.0,0.0,0.0,0.0,0.0,0.0
25576000000,275,25576000000,imu_link,-0.000132213095711,-0.378713100383,0.000635808487159,0.925513892854,0.0,0.0,0.0,0.0,0.0,0.0,0.0,0.0,0.0,-0.00129358795161,-0.00643066067891,0.00187784167377,0.0,0.0,0.0,0.0,0.0,0.0,0.0,0.0,0.0,6.74022651878,-0.00170533051421,6.96470427895,0.0,0.0,0.0,0.0,0.0,0.0,0.0,0.0,0.0
25580000000,276,25580000000,imu_link,-0.000135491472178,-0.378725431865,0.000638371131287,0.925508844573,0.0,0.0,0.0,0.0,0.0,0.0,0.0,0.0,0.0,-0.00103609198696,-0.00666153148558,0.00180745310786,0.0,0.0,0.0,0.0,0.0,0.0,0.0,0.0,0.0,6.74070098931,-0.00168962949214,6.96040598478,0.0,0.0,0.0,0.0,0.0,0.0,0.0,0.0,0.0
25584000000,277,25584000000,imu_link,-0.000138493814536,-0.378737791971,0.000640981587458,0.925503784376,0.0,0.0,0.0,0.0,0.0,0.0,0.0,0.0,0.0,-0.000899312107057,-0.00667712466475,0.00177730963769,0.0,0.0,0.0,0.0,0.0,0.0,0.0,0.0,0.0,6.74148228897,-0.00160918840691,6.95691837928,0.0,0.0,0.0,0.0,0.0,0.0,0.0,0.0,0.0
25588000000,278,25588000000,imu_link,-0.00014162240932,-0.378749936652,0.00064362895976,0.925498812085,0.0,0.0,0.0,0.0,0.0,0.0,0.0,0.0,0.0,-0.000950669760334,-0.00656075181689,0.00181828767481,0.0,0.0,0.0,0.0,0.0,0.0,0.0,0.0,0.0,6.74137286713,-0.00153294127965,6.95352650642,0.0,0.0,0.0,0.0,0.0,0.0,0.0,0.0,0.0
25592000000,279,25592000000,imu_link,-0.000145185954435,-0.378761701133,0.000646280096116,0.925493995117,0.0,0.0,0.0,0.0,0.0,0.0,0.0,0.0,0.0,-0.00115109659782,-0.00635526103852,0.0019023751304,0.0,0.0,0.0,0.0,0.0,0.0,0.0,0.0,0.0,6.74214570997,-0.00155521873099,6.95261207201,0.0,0.0,0.0,0.0,0.0,0.0,0.0,0.0,0.0
25596000000,280,25596000000,imu_link,-0.000149022476937,-0.378773059658,0.000648923382153,0.92548934406,0.0,0.0,0.0,0.0,0.0,0.0,0.0,0.0,0.0,-0.00127875953953,-0.00613589675031,0.00195041496611,0.0,0.0,0.0,0.0,0.0,0.0,0.0,0.0,0.0,6.74237757122,-0.00172191735631,6.95209552269,0.0,0.0,0.0,0.0,0.0,0.0,0.0,0.0,0.0
25600000000,281,25600000000,imu_link,-0.000152688011986,-0.378783983706,0.000651588406287,0.925484870652,0.0,0.0,0.0,0.0,0.0,0.0,0.0,0.0,0.0,-0.00119536489553,-0.00590125728708,0.00192806616681,0.0,0.0,0.0,0.0,0.0,0.0,0.0,0.0,0.0,6.74345631143,-0.0019243058403,6.95317679019,0.0,0.0,0.0,0.0,0.0,0.0,0.0,0.0,0.0
25604000000,282,25604000000,imu_link,-0.000155750063225,-0.378794593401,0.000654329742343,0.925480525784,0.0,0.0,0.0,0.0,0.0,0.0,0.0,0.0,0.0,-0.000901542233179,-0.00573165102966,0.00184906605244,0.0,0.0,0.0,0.0,0.0,0.0,0.0,0.0,0.0,6.74448013155,-0.00205622900717,6.95545195122,0.0,0.0,0.0,0.0,0.0,0.0,0.0,0.0,0.0
25608000000,283,25608000000,imu_link,-0.000157946856427,-0.378805106084,0.000657168234113,0.925476220541,0.0,0.0,0.0,0.0,0.0,0.0,0.0,0.0,0.0,-0.000482716647521,-0.00567954525962,0.00173014097045,0.0,0.0,0.0,0.0,0.0,0.0,0.0,0.0,0.0,6.74496455244,-0.00209977562228,6.95765021272,0.0,0.0,0.0,0.0,0.0,0.0,0.0,0.0,0.0
25612000000,284,25612000000,imu_link,-0.00015918136807,-0.378815837521,0.000660080367572,0.925471825718,0.0,0.0,0.0,0.0,0.0,0.0,0.0,0.0,0.0,-2.35633270603e-05,-0.00579806013561,0.00158197136134,0.0,0.0,0.0,0.0,0.0,0.0,0.0,0.0,0.0,6.74568090402,-0.00207835733759,6.96088526777,0.0,0.0,0.0,0.0,0.0,0.0,0.0,0.0,0.0
25616000000,285,25616000000,imu_link,-0.000159601433034,-0.378826936473,0.0006630304029,0.925467280416,0.0,0.0,0.0,0.0,0.0,0.0,0.0,0.0,0.0,0.000360356043745,-0.00599689580479,0.00144526768033,0.0,0.0,0.0,0.0,0.0,0.0,0.0,0.0,0.0,6.74531917191,-0.00198127157824,6.96049912562,0.0,0.0,0.0,0.0,0.0,0.0,0.0,0.0,0.0
25620000000,286,25620000000,imu_link,-0.000159737537239,-0.378838361707,0.000665981307353,0.925462601434,0.0,0.0,0.0,0.0,0.0,0.0,0.0,0.0,0.0,0.000491800027627,-0.00617329272551,0.00139190214085,0.0,0.0,0.0,0.0,0.0,0.0,0.0,0.0,0.0,6.7462290989,-0.0018221468608,6.96091685124,0.0,0.0,0.0,0.0,0.0,0.0,0.0,0.0,0.0
25624000000,287,25624000000,imu_link,-0.000160055458123,-0.378849928994,0.000668886832891,0.925457864127,0.0,0.0,0.0,0.0,0.0,0.0,0.0,0.0,0.0,0.000399020161663,-0.00625000893629,0.00140535153918,0.0,0.0,0.0,0.0,0.0,0.0,0.0,0.0,0.0,6.74763104974,-0.0017406880324,6.9607338177,0.0,0.0,0.0,0.0,0.0,0.0,0.0,0.0,0.0
25628000000,288,25628000000,imu_link,-0.000160684548817,-0.378861438454,0.000671729742742,0.925453150306,0.0,0.0,0.0,0.0,0.0,0.0,0.0,0.0,0.0,0.00024319313307,-0.00621869248561,0.00143531755174,0.0,0.0,0.0,0.0,0.0,0.0,0.0,0.0,0.0,6.74733878935,-0.00178860317181,6.95740284297,0.0,0.0,0.0,0.0,0.0,0.0,0.0,0.0,0.0
25632000000,289,25632000000,imu_link,-0.000161380771943,-0.378872665984,0.000674494930562,0.925448551775,0.0,0.0,0.0,0.0,0.0,0.0,0.0,0.0,0.0,0.000197510185711,-0.00606636798671,0.0014120543771,0.0,0.0,0.0,0.0,0.0,0.0,0.0,0.0,0.0,6.74832882832,-0.0019257852646,6.95627282897,0.0,0.0,0.0,0.0,0.0,0.0,0.0,0.0,0.0
25636000000,290,25636000000,imu_link,-0.00016171138828,-0.378883300455,0.000677184980273,0.925444195998,0.0,0.0,0.0,0.0,0.0,0.0,0.0,0.0,0.0,0.000352671030113,-0.00574607583426,0.00130799292658,0.0,0.0,0.0,0.0,0.0,0.0,0.0,0.0,0.0,6.74982435742,-0.00204090940974,6.95527143218,0.0,0.0,0.0,0.0,0.0,0.0,0.0,0.0,0.0
25640000000,291,25640000000,imu_link,-0.000161349716875,-0.378893074227,0.000679799537802,0.925440192634,0.0,0.0,0.0,0.0,0.0,0.0,0.0,0.0,0.0,0.00065902642338,-0.00528127802459,0.00114186316132,0.0,0.0,0.0,0.0,0.0,0.0,0.0,0.0,0.0,6.75072771331,-0.00212635777639,6.95375568895,0.0,0.0,0.0,0.0,0.0,0.0,0.0,0.0,0.0
25644000000,292,25644000000,imu_link,-0.000160226954433,-0.378901926067,0.00068235594386,0.925436566784,0.0,0.0,0.0,0.0,0.0,0.0,0.0,0.0,0.0,0.00100052576728,-0.00478341712119,0.000970715305663,0.0,0.0,0.0,0.0,0.0,0.0,0.0,0.0,0.0,6.74992894654,-0.00217233212251,6.95093478806,0.0,0.0,0.0,0.0,0.0,0.0,0.0,0.0,0.0
25648000000,293,25648000000,imu_link,-0.000158448937508,-0.37890986247,0.000684869668783,0.925433315788,0.0,0.0,0.0,0.0,0.0,0.0,0.0,0.0,0.0,0.00129598037209,-0.00428903091784,0.000826772817611,0.0,0.0,0.0,0.0,0.0,0.0,0.0,0.0,0.0,6.74855258009,-0.00215486437229,6.94783465578,0.0,0.0,0.0,0.0,0.0,0.0,0.0,0.0,0.0
25652000000,294,25652000000,imu_link,-0.000156178486205,-0.378917070215,0.000687366306699,0.925430363148,0.0,0.0,0.0,0.0,0.0,0.0,0.0,0.0,0.0,0.00152087389953,-0.00389551087846,0.000725527814011,0.0,0.0,0.0,0.0,0.0,0.0,0.0,0.0,0.0,6.7493979871,-0.00213128489084,6.95047833211,0.0,0.0,0.0,0.0,0.0,0.0,0.0,0.0,0.0
25656000000,295,25656000000,imu_link,-0.000153565707962,-0.378923737995,0.000689861861075,0.92542763158,0.0,0.0,0.0,0.0,0.0,0.0,0.0,0.0,0.0,0.00167927132588,-0.00360389461651,0.000660135869651,0.0,0.0,0.0,0.0,0.0,0.0,0.0,0.0,0.0,6.74941561052,-0.00213842409427,6.95157416979,0.0,0.0,0.0,0.0,0.0,0.0,0.0,0.0,0.0
25660000000,296,25660000000,imu_link,-0.000150838115945,-0.378930031507,0.000692322605921,0.925425053237,0.0,0.0,0.0,0.0,0.0,0.0,0.0,0.0,0.0,0.00172594302831,-0.00340172286547,0.000622252072628,0.0,0.0,0.0,0.0,0.0,0.0,0.0,0.0,0.0,6.74963972686,-0.00215571525446,6.95257992909,0.0,0.0,0.0,0.0,0.0,0.0,0.0,0.0,0.0
25664000000,297,25664000000,imu_link,-0.000148410492613,-0.378936238048,0.000694644356575,0.925422510499,0.0,0.0,0.0,0.0,0.0,0.0,0.0,0.0,0.0,0.00156084201458,-0.00335461939433,0.00061476552479,0.0,0.0,0.0,0.0,0.0,0.0,0.0,0.0,0.0,6.75064252997,-0.00213495063368,6.95617184801,0.0,0.0,0.0,0.0,0.0,0.0,0.0,0.0,0.0
25668000000,298,25668000000,imu_link,-0.000146587676097,-0.378942687671,0.000696715230047,0.925419868255,0.0,0.0,0.0,0.0,0.0,0.0,0.0,0.0,0.0,0.00123336605409,-0.00348572128986,0.000613289961099,0.0,0.0,0.0,0.0,0.0,0.0,0.0,0.0,0.0,6.75193233722,-0.00215302640692,6.96064415701,0.0,0.0,0.0,0.0,0.0,0.0,0.0,0.0,0.0
25672000000,299,25672000000,imu_link,-0.000145415352023,-0.378949839065,0.00069844212622,0.925416938739,0.0,0.0,0.0,0.0,0.0,0.0,0.0,0.0,0.0,0.0008669373762,-0.0038646147387,0.000577426562303,0.0,0.0,0.0,0.0,0.0,0.0,0.0,0.0,0.0,6.75364823075,-0.00226652073044,6.96712208115,0.0,0.0,0.0,0.0,0.0,0.0,0.0,0.0,0.0
25676000000,300,25676000000,imu_link,-0.000144661174002,-0.378957900364,0.000699844685087,0.925413636728,0.0,0.0,0.0,0.0,0.0,0.0,0.0,0.0,0.0,0.000611659028544,-0.00435604547362,0.000506645060493,0.0,0.0,0.0,0.0,0.0,0.0,0.0,0.0,0.0,6.7543629418,-0.00243375059587,6.96923669776,0.0,0.0,0.0,0.0,0.0,0.0,0.0,0.0,0.0
25680000000,301,25680000000,imu_link,-0.000144245207738,-0.378966945049,0.000700956759108,0.925409932091,0.0,0.0,0.0,0.0,0.0,0.0,0.0,0.0,0.0,0.000399752148837,-0.00488721405932,0.000436389509217,0.0,0.0,0.0,0.0,0.0,0.0,0.0,0.0,0.0,6.75451041302,-0.00253707660943,6.9688021236,0.0,0.0,0.0,0.0,0.0,0.0,0.0,0.0,0.0
25684000000,302,25684000000,imu_link,-0.000144185985897,-0.378976623095,0.000701777754922,0.925405968138,0.0,0.0,0.0,0.0,0.0,0.0,0.0,0.0,0.0,0.000179289541538,-0.00522926322197,0.000369348553961,0.0,0.0,0.0,0.0,0.0,0.0,0.0,0.0,0.0,6.75551219431,-0.00263457089098,6.96600534009,0.0,0.0,0.0,0.0,0.0,0.0,0.0,0.0,0.0
25688000000,303,25688000000,imu_link,-0.000144555334791,-0.378986424411,0.000702308888918,0.925401953736,0.0,0.0,0.0,0.0,0.0,0.0,0.0,0.0,0.0,-7.3983734581e-05,-0.00529568926724,0.000316446585872,0.0,0.0,0.0,0.0,0.0,0.0,0.0,0.0,0.0,6.75647657275,-0.00276239911986,6.96171330382,0.0,0.0,0.0,0.0,0.0,0.0,0.0,0.0,0.0
25692000000,304,25692000000,imu_link,-0.000145318185165,-0.378995756792,0.000702554432639,0.925398131419,0.0,0.0,0.0,0.0,0.0,0.0,0.0,0.0,0.0,-0.000309996119953,-0.00504215470457,0.000258835988433,0.0,0.0,0.0,0.0,0.0,0.0,0.0,0.0,0.0,6.75735424683,-0.00289084230276,6.95686211939,0.0,0.0,0.0,0.0,0.0,0.0,0.0,0.0,0.0
25696000000,305,25696000000,imu_link,-0.000146403164198,-0.379004091609,0.000702552155298,0.925394717691,0.0,0.0,0.0,0.0,0.0,0.0,0.0,0.0,0.0,-0.000505626205944,-0.00450302491358,0.000205141065972,0.0,0.0,0.0,0.0,0.0,0.0,0.0,0.0,0.0,6.75809759103,-0.0030063525952,6.95235028795,0.0,0.0,0.0,0.0,0.0,0.0,0.0,0.0,0.0
25700000000,306,25700000000,imu_link,-0.000147875457454,-0.379011238885,0.000702333656023,0.925391790356,0.0,0.0,0.0,0.0,0.0,0.0,0.0,0.0,0.0,-0.000725357213341,-0.00386122874496,0.000178408657161,0.0,0.0,0.0,0.0,0.0,0.0,0.0,0.0,0.0,6.75840905604,-0.00308707441509,6.95068702715,0.0,0.0,0.0,0.0,0.0,0.0,0.0,0.0,0.0
25704000000,307,25704000000,imu_link,-0.00014965806477,-0.379017324443,0.000701936643712,0.925389297895,0.0,0.0,0.0,0.0,0.0,0.0,0.0,0.0,0.0,-0.000902362484438,-0.00328744255405,0.000154543454414,0.0,0.0,0.0,0.0,0.0,0.0,0.0,0.0,0.0,6.75770421265,-0.00320296204545,6.94972724017,0.0,0.0,0.0,0.0,0.0,0.0,0.0,0.0,0.0
25708000000,308,25708000000,imu_link,-0.000151452856422,-0.379022416042,0.00070144023774,0.925387212567,0.0,0.0,0.0,0.0,0.0,0.0,0.0,0.0,0.0,-0.000926456758303,-0.00275037620459,0.000110795062909,0.0,0.0,0.0,0.0,0.0,0.0,0.0,0.0,0.0,6.75861846481,-0.00329429715665,6.95127837267,0.0,0.0,0.0,0.0,0.0,0.0,0.0,0.0,0.0
25712000000,309,25712000000,imu_link,-0.000152901408639,-0.379026452296,0.000700922394696,0.925385559531,0.0,0.0,0.0,0.0,0.0,0.0,0.0,0.0,0.0,-0.000769913683675,-0.00218027046315,3.51883163341e-05,0.0,0.0,0.0,0.0,0.0,0.0,0.0,0.0,0.0,6.75903451683,-0.00330621407031,6.95066372576,0.0,0.0,0.0,0.0,0.0,0.0,0.0,0.0,0.0
25716000000,310,25716000000,imu_link,-0.000154051482485,-0.379029234968,0.000700419135836,0.925384419969,0.0,0.0,0.0,0.0,0.0,0.0,0.0,0.0,0.0,-0.00062856741405,-0.00150304311188,-1.47134005615e-05,0.0,0.0,0.0,0.0,0.0,0.0,0.0,0.0,0.0,6.7596135265,-0.00321425224533,6.94938515381,0.0,0.0,0.0,0.0,0.0,0.0,0.0,0.0,0.0
25720000000,311,25720000000,imu_link,-0.000155063637905,-0.379030741791,0.000699943975145,0.925383802976,0.0,0.0,0.0,0.0,0.0,0.0,0.0,0.0,0.0,-0.000558941553023,-0.000813733411963,-2.79348906976e-05,0.0,0.0,0.0,0.0,0.0,0.0,0.0,0.0,0.0,6.75900613584,-0.00312662238625,6.9475225838,0.0,0.0,0.0,0.0,0.0,0.0,0.0,0.0,0.0
25724000000,312,25724000000,imu_link,-0.000156000385434,-0.379031226783,0.000699514097137,0.925383604495,0.0,0.0,0.0,0.0,0.0,0.0,0.0,0.0,0.0,-0.000515079107615,-0.000261655803977,-2.13411565858e-05,0.0,0.0,0.0,0.0,0.0,0.0,0.0,0.0,0.0,6.75899100547,-0.00308454155335,6.94928301598,0.0,0.0,0.0,0.0,0.0,0.0,0.0,0.0,0.0
25728000000,313,25728000000,imu_link,-0.000156805254381,-0.379031294169,0.000699105841666,0.925383577066,0.0,0.0,0.0,0.0,0.0,0.0,0.0,0.0,0.0,-0.000449802757858,-3.60634992216e-05,-3.63568902531e-05,0.0,0.0,0.0,0.0,0.0,0.0,0.0,0.0,0.0,6.76034028887,-0.00308270807153,6.95639769027,0.0,0.0,0.0,0.0,0.0,0.0,0.0,0.0,0.0
25732000000,314,25732000000,imu_link,-0.000157520112781,-0.379031485521,0.000698737122978,0.925383498847,0.0,0.0,0.0,0.0,0.0,0.0,0.0,0.0,0.0,-0.000400710092702,-0.000103082035885,-3.51139177127e-05,0.0,0.0,0.0,0.0,0.0,0.0,0.0,0.0,0.0,6.76204396492,-0.00309731693339,6.96359075919,0.0,0.0,0.0,0.0,0.0,0.0,0.0,0.0,0.0
25736000000,315,25736000000,imu_link,-0.000158505722142,-0.379031999993,0.000698367220213,0.925383288233,0.0,0.0,0.0,0.0,0.0,0.0,0.0,0.0,0.0,-0.000526332045167,-0.000277583388015,1.56705946809e-05,0.0,0.0,0.0,0.0,0.0,0.0,0.0,0.0,0.0,6.76231750147,-0.00309793118315,6.96523483563,0.0,0.0,0.0,0.0,0.0,0.0,0.0,0.0,0.0
25740000000,316,25740000000,imu_link,-0.000160298139122,-0.379032817075,0.000697950494251,0.925382953566,0.0,0.0,0.0,0.0,0.0,0.0,0.0,0.0,0.0,-0.000908624431636,-0.0004408227753,0.000146928180231,0.0,0.0,0.0,0.0,0.0,0.0,0.0,0.0,0.0,6.76376312909,-0.00310107326616,6.96689108,0.0,0.0,0.0,0.0,0.0,0.0,0.0,0.0,0.0
25744000000,317,25744000000,imu_link,-0.00016346421139,-0.379034075466,0.000697418286552,0.925382437981,0.0,0.0,0.0,0.0,0.0,0.0,0.0,0.0,0.0,-0.00156625721613,-0.000678811138266,0.000353853746438,0.0,0.0,0.0,0.0,0.0,0.0,0.0,0.0,0.0,6.76455879168,-0.00316277388128,6.96854615522,0.0,0.0,0.0,0.0,0.0,0.0,0.0,0.0,0.0
25748000000,318,25748000000,imu_link,-0.000168355255888,-0.379036039957,0.000696738279404,0.925381632963,0.0,0.0,0.0,0.0,0.0,0.0,0.0,0.0,0.0,-0.00239266711312,-0.00105975609986,0.000612423083412,0.0,0.0,0.0,0.0,0.0,0.0,0.0,0.0,0.0,6.76420757177,-0.00333683525277,6.96910582079,0.0,0.0,0.0,0.0,0.0,0.0,0.0,0.0,0.0
25752000000,319,25752000000,imu_link,-0.000174856308678,-0.379039057446,0.00069596972344,0.925380396368,0.0,0.0,0.0,0.0,0.0,0.0,0.0,0.0,0.0,-0.00315478792143,-0.00162819230966,0.000876639652989,0.0,0.0,0.0,0.0,0.0,0.0,0.0,0.0,0.0,6.76392906833,-0.00360050331071,6.97044890581,0.0,0.0,0.0,0.0,0.0,0.0,0.0,0.0,0.0
25760000000,320,25760000000,imu_link,-0.000190934645221,-0.379048740688,0.000694346072091,0.925376428061,0.0,0.0,0.0,0.0,0.0,0.0,0.0,0.0,0.0,-0.00405421566557,-0.00292221516159,0.00121572007409,0.0,0.0,0.0,0.0,0.0,0.0,0.0,0.0,0.0,6.76422038176,-0.00404428946335,6.97050813444,0.0,0.0,0.0,0.0,0.0,0.0,0.0,0.0,0.0
25764000000,321,25764000000,imu_link,-0.000200095097626,-0.379055056234,0.00069348129919,0.925373839802,0.0,0.0,0.0,0.0,0.0,0.0,0.0,0.0,0.0,-0.00440476858409,-0.0034094039179,0.00133630439068,0.0,0.0,0.0,0.0,0.0,0.0,0.0,0.0,0.0,6.76504435468,-0.00416322188162,6.96771732158,0.0,0.0,0.0,0.0,0.0,0.0,0.0,0.0,0.0
25768000000,322,25768000000,imu_link,-0.000210116785545,-0.379061962058,0.000692540979664,0.925371009465,0.0,0.0,0.0,0.0,0.0,0.0,0.0,0.0,0.0,-0.00481779804956,-0.00372809183301,0.00146460267543,0.0,0.0,0.0,0.0,0.0,0.0,0.0,0.0,0.0,6.76497952297,-0.00423348542655,6.96354863011,0.0,0.0,0.0,0.0,0.0,0.0,0.0,0.0,0.0
25772000000,323,25772000000,imu_link,-0.000221133795676,-0.379069035739,0.000691494796727,0.92536811004,0.0,0.0,0.0,0.0,0.0,0.0,0.0,0.0,0.0,-0.00529844898804,-0.0038184961297,0.00160427189389,0.0,0.0,0.0,0.0,0.0,0.0,0.0,0.0,0.0,6.76473815006,-0.00430714682955,6.95807793135,0.0,0.0,0.0,0.0,0.0,0.0,0.0,0.0,0.0
25776000000,324,25776000000,imu_link,-0.00023295462057,-0.379075826042,0.000690316941396,0.925365326401,0.0,0.0,0.0,0.0,0.0,0.0,0.0,0.0,0.0,-0.00569520694582,-0.00366514315929,0.00169569111986,0.0,0.0,0.0,0.0,0.0,0.0,0.0,0.0,0.0,6.76644517426,-0.00446106873809,6.95619881681,0.0,0.0,0.0,0.0,0.0,0.0,0.0,0.0,0.0
25780000000,325,25780000000,imu_link,-0.000245119856775,-0.379081985778,0.000689012613777,0.925362800871,0.0,0.0,0.0,0.0,0.0,0.0,0.0,0.0,0.0,-0.00587828367362,-0.00332433595278,0.00170243794403,0.0,0.0,0.0,0.0,0.0,0.0,0.0,0.0,0.0,6.76724612615,-0.00462091119548,6.95387553561,0.0,0.0,0.0,0.0,0.0,0.0,0.0,0.0,0.0
25784000000,326,25784000000,imu_link,-0.000257069051533,-0.379087512926,0.000687587733885,0.925360534431,0.0,0.0,0.0,0.0,0.0,0.0,0.0,0.0,0.0,-0.00580092522656,-0.00298260065493,0.00160570021072,0.0,0.0,0.0,0.0,0.0,0.0,0.0,0.0,0.0,6.766727179,-0.00472120956052,6.95256285983,0.0,0.0,0.0,0.0,0.0,0.0,0.0,0.0,0.0
25788000000,327,25788000000,imu_link,-0.00026852858851,-0.379092594453,0.000686056088823,0.925358450575,0.0,0.0,0.0,0.0,0.0,0.0,0.0,0.0,0.0,-0.00559443023507,-0.00274196765319,0.0014634850048,0.0,0.0,0.0,0.0,0.0,0.0,0.0,0.0,0.0,6.76710491232,-0.00470835470474,6.9541324197,0.0,0.0,0.0,0.0,0.0,0.0,0.0,0.0,0.0
25792000000,328,25792000000,imu_link,-0.000279532488439,-0.379097423921,0.000684428420621,0.925356470013,0.0,0.0,0.0,0.0,0.0,0.0,0.0,0.0,0.0,-0.00540171693702,-0.00260590935636,0.00133269118702,0.0,0.0,0.0,0.0,0.0,0.0,0.0,0.0,0.0,6.76710447027,-0.00461243346995,6.9550068643,0.0,0.0,0.0,0.0,0.0,0.0,0.0,0.0,0.0
25796000000,329,25796000000,imu_link,-0.000290466394823,-0.379102156112,0.000682671061831,0.925354529259,0.0,0.0,0.0,0.0,0.0,0.0,0.0,0.0,0.0,-0.00539387627801,-0.00255336209648,0.00125941896169,0.0,0.0,0.0,0.0,0.0,0.0,0.0,0.0,0.0,6.76731107013,-0.00442424319181,6.95594341864,0.0,0.0,0.0,0.0,0.0,0.0,0.0,0.0,0.0
25800000000,330,25800000000,imu_link,-0.000301609271598,-0.379106848915,0.000680755791927,0.925352604529,0.0,0.0,0.0,0.0,0.0,0.0,0.0,0.0,0.0,-0.00552047857668,-0.00253200594001,0.00122596789339,0.0,0.0,0.0,0.0,0.0,0.0,0.0,0.0,0.0,6.76803201974,-0.00429184115637,6.95724406401,0.0,0.0,0.0,0.0,0.0,0.0,0.0,0.0,0.0
25804000000,331,25804000000,imu_link,-0.000313048700141,-0.379111519695,0.000678644957746,0.925350688699,0.0,0.0,0.0,0.0,0.0,0.0,0.0,0.0,0.0,-0.00569474709326,-0.00251999968407,0.00119169763159,0.0,0.0,0.0,0.0,0.0,0.0,0.0,0.0,0.0,6.76769744814,-0.00420111747975,6.95619202245,0.0,0.0,0.0,0.0,0.0,0.0,0.0,0.0,0.0
25808000000,332,25808000000,imu_link,-0.000324578453807,-0.379116100224,0.000676337842761,0.925348809783,0.0,0.0,0.0,0.0,0.0,0.0,0.0,0.0,0.0,-0.00577370805457,-0.00247118372354,0.00111800659082,0.0,0.0,0.0,0.0,0.0,0.0,0.0,0.0,0.0,6.76819615808,-0.00420059510233,6.95582457767,0.0,0.0,0.0,0.0,0.0,0.0,0.0,0.0,0.0
25812000000,333,25812000000,imu_link,-0.000335798013834,-0.379120468113,0.000673898540019,0.92534701802,0.0,0.0,0.0,0.0,0.0,0.0,0.0,0.0,0.0,-0.00565516059849,-0.0023563637093,0.000998052035112,0.0,0.0,0.0,0.0,0.0,0.0,0.0,0.0,0.0,6.76907851173,-0.00421889714332,6.95545829815,0.0,0.0,0.0,0.0,0.0,0.0,0.0,0.0,0.0
25816000000,334,25816000000,imu_link,-0.000346208349355,-0.379124685634,0.000671439430717,0.925345288015,0.0,0.0,0.0,0.0,0.0,0.0,0.0,0.0,0.0,-0.00528444735748,-0.00227535460831,0.000835495714073,0.0,0.0,0.0,0.0,0.0,0.0,0.0,0.0,0.0,6.77183738562,-0.00420423548374,6.95994109082,0.0,0.0,0.0,0.0,0.0,0.0,0.0,0.0,0.0
25820000000,335,25820000000,imu_link,-0.000355674061501,-0.379128889706,0.000669051162851,0.925343563687,0.0,0.0,0.0,0.0,0.0,0.0,0.0,0.0,0.0,-0.0048339615964,-0.00226838541333,0.000689207511415,0.0,0.0,0.0,0.0,0.0,0.0,0.0,0.0,0.0,6.77204537887,-0.00405457660647,6.96041611143,0.0,0.0,0.0,0.0,0.0,0.0,0.0,0.0,0.0
25824000000,336,25824000000,imu_link,-0.000364390212845,-0.379133357253,0.00066676510156,0.925341731503,0.0,0.0,0.0,0.0,0.0,0.0,0.0,0.0,0.0,-0.00446789355211,-0.00241100262966,0.000594394756753,0.0,0.0,0.0,0.0,0.0,0.0,0.0,0.0,0.0,6.77285935521,-0.0038745532494,6.96349410319,0.0,0.0,0.0,0.0,0.0,0.0,0.0,0.0,0.0
25828000000,337,25828000000,imu_link,-0.000372707186148,-0.379138615277,0.000664543374556,0.925339575441,0.0,0.0,0.0,0.0,0.0,0.0,0.0,0.0,0.0,-0.00427133240493,-0.00283827439144,0.000548453456394,0.0,0.0,0.0,0.0,0.0,0.0,0.0,0.0,0.0,6.77364267417,-0.00369950209892,6.96875850908,0.0,0.0,0.0,0.0,0.0,0.0,0.0,0.0,0.0
25832000000,338,25832000000,imu_link,-0.000381050016761,-0.379145122866,0.00066230197422,0.925336907274,0.0,0.0,0.0,0.0,0.0,0.0,0.0,0.0,0.0,-0.00428753588847,-0.00351347739028,0.000544190249307,0.0,0.0,0.0,0.0,0.0,0.0,0.0,0.0,0.0,6.77357454648,-0.00357278898589,6.97180362933,0.0,0.0,0.0,0.0,0.0,0.0,0.0,0.0,0.0
25836000000,339,25836000000,imu_link,-0.000389595797932,-0.379153012476,0.000660008105429,0.925333672647,0.0,0.0,0.0,0.0,0.0,0.0,0.0,0.0,0.0,-0.00439194687183,-0.00426020319376,0.000558312881535,0.0,0.0,0.0,0.0,0.0,0.0,0.0,0.0,0.0,6.77443827803,-0.00356044388257,6.97335923061,0.0,0.0,0.0,0.0,0.0,0.0,0.0,0.0,0.0
25840000000,340,25840000000,imu_link,-0.000398371850531,-0.379162076994,0.00065766652635,0.925329956364,0.0,0.0,0.0,0.0,0.0,0.0,0.0,0.0,0.0,-0.0045080121246,-0.00489501990271,0.000579823045078,0.0,0.0,0.0,0.0,0.0,0.0,0.0,0.0,0.0,6.77471503095,-0.00358683029556,6.97076105871,0.0,0.0,0.0,0.0,0.0,0.0,0.0,0.0,0.0
25844000000,341,25844000000,imu_link,-0.000407154297705,-0.379171965977,0.000655298705148,0.925325902062,0.0,0.0,0.0,0.0,0.0,0.0,0.0,0.0,0.0,-0.00451628411953,-0.00534054497784,0.000568840954489,0.0,0.0,0.0,0.0,0.0,0.0,0.0,0.0,0.0,6.7755838115,-0.00360884086831,6.9683248446,0.0,0.0,0.0,0.0,0.0,0.0,0.0,0.0,0.0
25848000000,342,25848000000,imu_link,-0.000415659857493,-0.3791825017,0.000652941592976,0.92532158264,0.0,0.0,0.0,0.0,0.0,0.0,0.0,0.0,0.0,-0.00438641417867,-0.00569012402417,0.000521256863399,0.0,0.0,0.0,0.0,0.0,0.0,0.0,0.0,0.0,6.77602917437,-0.00354805283783,6.9665069718,0.0,0.0,0.0,0.0,0.0,0.0,0.0,0.0,0.0
25852000000,343,25852000000,imu_link,-0.000423557849206,-0.379193543166,0.000650603216763,0.925317056006,0.0,0.0,0.0,0.0,0.0,0.0,0.0,0.0,0.0,-0.00410197225349,-0.00596359896998,0.000414698205358,0.0,0.0,0.0,0.0,0.0,0.0,0.0,0.0,0.0,6.77523650112,-0.00349956996127,6.96313209735,0.0,0.0,0.0,0.0,0.0,0.0,0.0,0.0,0.0
25856000000,344,25856000000,imu_link,-0.000430691411494,-0.37920490012,0.000648259631183,0.925312400214,0.0,0.0,0.0,0.0,0.0,0.0,0.0,0.0,0.0,-0.00374942012219,-0.0061342982084,0.000267329898221,0.0,0.0,0.0,0.0,0.0,0.0,0.0,0.0,0.0,6.77538226582,-0.00339017233215,6.96093743342,0.0,0.0,0.0,0.0,0.0,0.0,0.0,0.0,0.0
25860000000,345,25860000000,imu_link,-0.000437338910579,-0.379216225723,0.000645877114063,0.925307757303,0.0,0.0,0.0,0.0,0.0,0.0,0.0,0.0,0.0,-0.00353190854659,-0.00611749970427,0.000157161781906,0.0,0.0,0.0,0.0,0.0,0.0,0.0,0.0,0.0,6.77653903104,-0.00320510654929,6.95898193319,0.0,0.0,0.0,0.0,0.0,0.0,0.0,0.0,0.0
25864000000,346,25864000000,imu_link,-0.00044412637025,-0.379226940324,0.000643416235971,0.925303364578,0.0,0.0,0.0,0.0,0.0,0.0,0.0,0.0,0.0,-0.00361126770705,-0.00578731832606,0.000147498249508,0.0,0.0,0.0,0.0,0.0,0.0,0.0,0.0,0.0,6.77849671985,-0.00297715235422,6.95638023012,0.0,0.0,0.0,0.0,0.0,0.0,0.0,0.0,0.0
25868000000,347,25868000000,imu_link,-0.000451504686252,-0.379236646767,0.000640856260243,0.925299384629,0.0,0.0,0.0,0.0,0.0,0.0,0.0,0.0,0.0,-0.00390300263407,-0.0052424117176,0.000213775961831,0.0,0.0,0.0,0.0,0.0,0.0,0.0,0.0,0.0,6.77984859807,-0.0029232070373,6.95463642165,0.0,0.0,0.0,0.0,0.0,0.0,0.0,0.0,0.0
25872000000,348,25872000000,imu_link,-0.000459653160629,-0.379245354555,0.000638202586432,0.925295813492,0.0,0.0,0.0,0.0,0.0,0.0,0.0,0.0,0.0,-0.00427667075528,-0.00470259836291,0.000316557166943,0.0,0.0,0.0,0.0,0.0,0.0,0.0,0.0,0.0,6.77902830911,-0.00298450630414,6.95304951394,0.0,0.0,0.0,0.0,0.0,0.0,0.0,0.0,0.0
25876000000,349,25876000000,imu_link,-0.000468331328925,-0.379253412481,0.000635545637289,0.925292508275,0.0,0.0,0.0,0.0,0.0,0.0,0.0,0.0,0.0,-0.00452208512856,-0.0043513470629,0.000415548320576,0.0,0.0,0.0,0.0,0.0,0.0,0.0,0.0,0.0,6.77983927251,-0.00314987624495,6.95687508328,0.0,0.0,0.0,0.0,0.0,0.0,0.0,0.0,0.0
25880000000,350,25880000000,imu_link,-0.000477212778367,-0.379261132431,0.000632952437299,0.925289341269,0.0,0.0,0.0,0.0,0.0,0.0,0.0,0.0,0.0,-0.00460390408247,-0.00416872507808,0.000483624383563,0.0,0.0,0.0,0.0,0.0,0.0,0.0,0.0,0.0,6.77972542063,-0.00330129244707,6.95870866722,0.0,0.0,0.0,0.0,0.0,0.0,0.0,0.0,0.0
25884000000,351,25884000000,imu_link,-0.000485911897926,-0.379268565555,0.000630458480689,0.925286291692,0.0,0.0,0.0,0.0,0.0,0.0,0.0,0.0,0.0,-0.00450061176328,-0.0040138399508,0.000494994760886,0.0,0.0,0.0,0.0,0.0,0.0,0.0,0.0,0.0,6.77894540153,-0.00341766738806,6.95702128797,0.0,0.0,0.0,0.0,0.0,0.0,0.0,0.0,0.0
25888000000,352,25888000000,imu_link,-0.000494341021626,-0.379275537343,0.000628045346588,0.925283431149,0.0,0.0,0.0,0.0,0.0,0.0,0.0,0.0,0.0,-0.00436018195726,-0.00376466355418,0.000481238764826,0.0,0.0,0.0,0.0,0.0,0.0,0.0,0.0,0.0,6.77917574849,-0.00336503013617,6.95543146485,0.0,0.0,0.0,0.0,0.0,0.0,0.0,0.0,0.0
25892000000,353,25892000000,imu_link,-0.000502739115243,-0.379281764964,0.000625678600422,0.925280875489,0.0,0.0,0.0,0.0,0.0,0.0,0.0,0.0,0.0,-0.00433672019903,-0.00336258523857,0.000496903479024,0.0,0.0,0.0,0.0,0.0,0.0,0.0,0.0,0.0,6.78000463701,-0.00320267301392,6.95381721992,0.0,0.0,0.0,0.0,0.0,0.0,0.0,0.0,0.0
25896000000,354,25896000000,imu_link,-0.00051135580437,-0.379287048868,0.000623328644435,0.925278706411,0.0,0.0,0.0,0.0,0.0,0.0,0.0,0.0,0.0,-0.00443427480999,-0.00285260689418,0.000546242224096,0.0,0.0,0.0,0.0,0.0,0.0,0.0,0.0,0.0,6.77988265173,-0.0031194019773,6.95118461948,0.0,0.0,0.0,0.0,0.0,0.0,0.0,0.0,0.0
25900000000,355,25900000000,imu_link,-0.000520381475309,-0.379291539408,0.00062096218381,0.925276862211,0.0,0.0,0.0,0.0,0.0,0.0,0.0,0.0,0.0,-0.00462628556165,-0.00242382316755,0.000616268873765,0.0,0.0,0.0,0.0,0.0,0.0,0.0,0.0,0.0,6.77887870185,-0.00310587795956,6.95025592828,0.0,0.0,0.0,0.0,0.0,0.0,0.0,0.0,0.0
25904000000,356,25904000000,imu_link,-0.000529894817047,-0.379295452356,0.000618576624639,0.925275254395,0.0,0.0,0.0,0.0,0.0,0.0,0.0,0.0,0.0,-0.00485528193627,-0.00211162108534,0.000699994747708,0.0,0.0,0.0,0.0,0.0,0.0,0.0,0.0,0.0,6.77815867503,-0.00314027460743,6.95040325312,0.0,0.0,0.0,0.0,0.0,0.0,0.0,0.0,0.0
25908000000,357,25908000000,imu_link,-0.000539765469772,-0.379298836621,0.000616186738751,0.925273862975,0.0,0.0,0.0,0.0,0.0,0.0,0.0,0.0,0.0,-0.00502118714727,-0.00182588171229,0.00076582940635,0.0,0.0,0.0,0.0,0.0,0.0,0.0,0.0,0.0,6.77745255619,-0.00320644354602,6.94885738373,0.0,0.0,0.0,0.0,0.0,0.0,0.0,0.0,0.0
25912000000,358,25912000000,imu_link,-0.000549689326616,-0.37930158841,0.000613825633249,0.925272730653,0.0,0.0,0.0,0.0,0.0,0.0,0.0,0.0,0.0,-0.00504007836668,-0.00148412899243,0.000789325274441,0.0,0.0,0.0,0.0,0.0,0.0,0.0,0.0,0.0,6.77822464149,-0.00327681837426,6.94872165411,0.0,0.0,0.0,0.0,0.0,0.0,0.0,0.0,0.0
25916000000,359,25916000000,imu_link,-0.00055921119096,-0.379303664219,0.000611564807934,0.925271875495,0.0,0.0,0.0,0.0,0.0,0.0,0.0,0.0,0.0,-0.00483480015607,-0.00111898261371,0.000759581062553,0.0,0.0,0.0,0.0,0.0,0.0,0.0,0.0,0.0,6.77892970462,-0.00336195947908,6.94887869743,0.0,0.0,0.0,0.0,0.0,0.0,0.0,0.0,0.0
25920000000,360,25920000000,imu_link,-0.000567747651283,-0.37930520817,0.000609472843288,0.925271238752,0.0,0.0,0.0,0.0,0.0,0.0,0.0,0.0,0.0,-0.00434666840438,-0.000831851221072,0.000650900322002,0.0,0.0,0.0,0.0,0.0,0.0,0.0,0.0,0.0,6.78052830629,-0.00340558244104,6.95243757158,0.0,0.0,0.0,0.0,0.0,0.0,0.0,0.0,0.0
25924000000,361,25924000000,imu_link,-0.000574943728829,-0.379306507094,0.000607579936992,0.925270703072,0.0,0.0,0.0,0.0,0.0,0.0,0.0,0.0,0.0,-0.00368870429615,-0.000699791359253,0.000488823479707,0.0,0.0,0.0,0.0,0.0,0.0,0.0,0.0,0.0,6.78058456787,-0.00334123301019,6.95457953331,0.0,0.0,0.0,0.0,0.0,0.0,0.0,0.0,0.0
25928000000,362,25928000000,imu_link,-0.000580723523997,-0.379307964644,0.000605879380772,0.925270103066,0.0,0.0,0.0,0.0,0.0,0.0,0.0,0.0,0.0,-0.00299706886275,-0.000785862406394,0.000309182805067,0.0,0.0,0.0,0.0,0.0,0.0,0.0,0.0,0.0,6.77996138856,-0.00319433007773,6.95604327009,0.0,0.0,0.0,0.0,0.0,0.0,0.0,0.0,0.0
25932000000,363,25932000000,imu_link,-0.000585369717119,-0.379309612769,0.000604331584781,0.925269425512,0.0,0.0,0.0,0.0,0.0,0.0,0.0,0.0,0.0,-0.00244373348651,-0.000889124659939,0.000164831055807,0.0,0.0,0.0,0.0,0.0,0.0,0.0,0.0,0.0,6.77997747054,-0.00292223354706,6.95560998452,0.0,0.0,0.0,0.0,0.0,0.0,0.0,0.0,0.0
25936000000,364,25936000000,imu_link,-0.000589362758263,-0.379311325502,0.000602885888983,0.925268721792,0.0,0.0,0.0,0.0,0.0,0.0,0.0,0.0,0.0,-0.00212222609667,-0.000924203607972,8.81817336179e-05,0.0,0.0,0.0,0.0,0.0,0.0,0.0,0.0,0.0,6.78081816099,-0.00264729852299,6.95524670193,0.0,0.0,0.0,0.0,0.0,0.0,0.0,0.0,0.0
25940000000,365,25940000000,imu_link,-0.000593080851731,-0.379313016276,0.000601499398722,0.925268027189,0.0,0.0,0.0,0.0,0.0,0.0,0.0,0.0,0.0,-0.00198378788324,-0.000912416207133,6.34305887808e-05,0.0,0.0,0.0,0.0,0.0,0.0,0.0,0.0,0.0,6.78115893832,-0.00247838601769,6.95432675209,0.0,0.0,0.0,0.0,0.0,0.0,0.0,0.0,0.0
25944000000,366,25944000000,imu_link,-0.000596905415631,-0.379314754323,0.000600107832887,0.925267313119,0.0,0.0,0.0,0.0,0.0,0.0,0.0,0.0,0.0,-0.00203402733227,-0.000937944862222,8.12671020253e-05,0.0,0.0,0.0,0.0,0.0,0.0,0.0,0.0,0.0,6.78166336902,-0.00238952963924,6.95508905332,0.0,0.0,0.0,0.0,0.0,0.0,0.0,0.0,0.0
25948000000,367,25948000000,imu_link,-0.000601147599654,-0.379316625278,0.000598662271463,0.925266544306,0.0,0.0,0.0,0.0,0.0,0.0,0.0,0.0,0.0,-0.00223752933637,-0.00100967354896,0.000135468421572,0.0,0.0,0.0,0.0,0.0,0.0,0.0,0.0,0.0,6.78133602477,-0.00238240318751,6.95456815355,0.0,0.0,0.0,0.0,0.0,0.0,0.0,0.0,0.0
25956000000,368,25956000000,imu_link,-0.00061099949203,-0.379321323522,0.000595577036995,0.925264613767,0.0,0.0,0.0,0.0,0.0,0.0,0.0,0.0,0.0,-0.00265674278506,-0.00137558332902,0.000243936163618,0.0,0.0,0.0,0.0,0.0,0.0,0.0,0.0,0.0,6.78079985012,-0.00257831105595,6.95395306557,0.0,0.0,0.0,0.0,0.0,0.0,0.0,0.0,0.0
25960000000,369,25960000000,imu_link,-0.000615983395413,-0.379324360424,0.000594046821155,0.925263366432,0.0,0.0,0.0,0.0,0.0,0.0,0.0,0.0,0.0,-0.00259722188271,-0.00163958726307,0.000236766799119,0.0,0.0,0.0,0.0,0.0,0.0,0.0,0.0,0.0,6.78213106782,-0.00276994106361,6.9562977342,0.0,0.0,0.0,0.0,0.0,0.0,0.0,0.0,0.0
25964000000,370,25964000000,imu_link,-0.000620456829729,-0.379327900845,0.000592619496456,0.925261912907,0.0,0.0,0.0,0.0,0.0,0.0,0.0,0.0,0.0,-0.00234176122382,-0.00191182161411,0.000187456988233,0.0,0.0,0.0,0.0,0.0,0.0,0.0,0.0,0.0,6.78241571866,-0.00288699306095,6.95606006772,0.0,0.0,0.0,0.0,0.0,0.0,0.0,0.0,0.0
25968000000,371,25968000000,imu_link,-0.000624091690181,-0.379332014466,0.000591332739633,0.925260224821,0.0,0.0,0.0,0.0,0.0,0.0,0.0,0.0,0.0,-0.00192739294751,-0.00222178100424,9.33324870206e-05,0.0,0.0,0.0,0.0,0.0,0.0,0.0,0.0,0.0,6.78241830166,-0.00293519885082,6.95565357152,0.0,0.0,0.0,0.0,0.0,0.0,0.0,0.0,0.0
25972000000,372,25972000000,imu_link,-0.000626709678657,-0.379336792442,0.000590216669152,0.925258264907,0.0,0.0,0.0,0.0,0.0,0.0,0.0,0.0,0.0,-0.00142486520502,-0.00258104235063,-2.06958579039e-05,0.0,0.0,0.0,0.0,0.0,0.0,0.0,0.0,0.0,6.78210209142,-0.00291563005259,6.95513195739,0.0,0.0,0.0,0.0,0.0,0.0,0.0,0.0,0.0
25976000000,373,25976000000,imu_link,-0.000628380662173,-0.379342371369,0.000589278935667,0.925255977107,0.0,0.0,0.0,0.0,0.0,0.0,0.0,0.0,0.0,-0.000953267341474,-0.00301411054687,-0.000117963100013,0.0,0.0,0.0,0.0,0.0,0.0,0.0,0.0,0.0,6.78249031039,-0.0027984018621,6.95621319933,0.0,0.0,0.0,0.0,0.0,0.0,0.0,0.0,0.0
25980000000,374,25980000000,imu_link,-0.000629128616716,-0.379348784624,0.000588506036748,0.925253347717,0.0,0.0,0.0,0.0,0.0,0.0,0.0,0.0,0.0,-0.00049533708705,-0.00346520771729,-0.000216939508023,0.0,0.0,0.0,0.0,0.0,0.0,0.0,0.0,0.0,6.78154111166,-0.0026756536667,6.95388164388,0.0,0.0,0.0,0.0,0.0,0.0,0.0,0.0,0.0
25984000000,375,25984000000,imu_link,-0.000629102377404,-0.379355828081,0.000587886503848,0.925250460319,0.0,0.0,0.0,0.0,0.0,0.0,0.0,0.0,0.0,-0.00010835135146,-0.00380596920578,-0.000292955364837,0.0,0.0,0.0,0.0,0.0,0.0,0.0,0.0,0.0,6.78186225552,-0.00252733221895,6.95168717514,0.0,0.0,0.0,0.0,0.0,0.0,0.0,0.0,0.0
25988000000,376,25988000000,imu_link,-0.000628712291405,-0.379363009598,0.000587377774616,0.925247516428,0.0,0.0,0.0,0.0,0.0,0.0,0.0,0.0,0.0,8.09319625869e-05,-0.00388069672033,-0.000310735294697,0.0,0.0,0.0,0.0,0.0,0.0,0.0,0.0,0.0,6.78420581071,-0.00238362009374,6.950461394,0.0,0.0,0.0,0.0,0.0,0.0,0.0,0.0,0.0
25992000000,377,25992000000,imu_link,-0.000628587595872,-0.379369821519,0.000586929628646,0.925244723796,0.0,0.0,0.0,0.0,0.0,0.0,0.0,0.0,0.0,-3.01963525766e-05,-0.00368096303003,-0.000232296613054,0.0,0.0,0.0,0.0,0.0,0.0,0.0,0.0,0.0,6.78598560389,-0.00228126520166,6.94825179489,0.0,0.0,0.0,0.0,0.0,0.0,0.0,0.0,0.0
25996000000,378,25996000000,imu_link,-0.000629307860763,-0.379376173794,0.000586499269873,0.925242118987,0.0,0.0,0.0,0.0,0.0,0.0,0.0,0.0,0.0,-0.000417526054951,-0.00343245058672,-6.37022711686e-05,0.0,0.0,0.0,0.0,0.0,0.0,0.0,0.0,0.0,6.78637648464,-0.00228333444051,6.94795837948,0.0,0.0,0.0,0.0,0.0,0.0,0.0,0.0,0.0
26000000000,379,26000000000,imu_link,-0.000631034717957,-0.379382477724,0.000586082070833,0.925239533256,0.0,0.0,0.0,0.0,0.0,0.0,0.0,0.0,0.0,-0.000880680428401,-0.00340617547648,0.00013333388365,0.0,0.0,0.0,0.0,0.0,0.0,0.0,0.0,0.0,6.78674685732,-0.00242401793149,6.95179627022,0.0,0.0,0.0,0.0,0.0,0.0,0.0,0.0,0.0
26004000000,380,26004000000,imu_link,-0.000633523078371,-0.379389372541,0.000585722941825,0.925236704622,0.0,0.0,0.0,0.0,0.0,0.0,0.0,0.0,0.0,-0.00122220128771,-0.00372540348322,0.000304533463033,0.0,0.0,0.0,0.0,0.0,0.0,0.0,0.0,0.0,6.78635731582,-0.00270339098961,6.95616661479,0.0,0.0,0.0,0.0,0.0,0.0,0.0,0.0,0.0
26008000000,381,26008000000,imu_link,-0.000636227432351,-0.379397160527,0.000585476066499,0.925233509454,0.0,0.0,0.0,0.0,0.0,0.0,0.0,0.0,0.0,-0.00130120762706,-0.00420810139497,0.00039726133052,0.0,0.0,0.0,0.0,0.0,0.0,0.0,0.0,0.0,6.78732748989,-0.00300249562443,6.95996703794,0.0,0.0,0.0,0.0,0.0,0.0,0.0,0.0,0.0
