%time,field.header.seq,field.header.stamp,field.header.frame_id,field.orientation.x,field.orientation.y,field.orientation.z,field.orientation.w,field.orientation_covariance0,field.orientation_covariance1,field.orientation_covariance2,field.orientation_covariance3,field.orientation_covariance4,field.orientation_covariance5,field.orientation_covariance6,field.orientation_covariance7,field.orientation_covariance8,field.angular_velocity.x,field.angular_velocity.y,field.angular_velocity.z,field.angular_velocity_covariance0,field.angular_velocity_covariance1,field.angular_velocity_covariance2,field.angular_velocity_covariance3,field.angular_velocity_covariance4,field.angular_velocity_covariance5,field.angular_velocity_covariance6,field.angular_velocity_covariance7,field.angular_velocity_covariance8,field.linear_acceleration.x,field.linear_acceleration.y,field.linear_acceleration.z,field.linear_acceleration_covariance0,field.linear_acceleration_covariance1,field.linear_acceleration_covariance2,field.linear_acceleration_covariance3,field.linear_acceleration_covariance4,field.linear_acceleration_covariance5,field.linear_acceleration_covariance6,field.linear_acceleration_covariance7,field.linear_acceleration_covariance8
31728000000,0,31728000000,imu_link,0.000211716431489,-0.309601704571,0.000731263638818,0.950866028921,0.0,0.0,0.0,0.0,0.0,0.0,0.0,0.0,0.0,-0.000833670953719,-0.200462418354,-0.00118718116283,0.0,0.0,0.0,0.0,0.0,0.0,0.0,0.0,0.0,4.35528001361,0.000744549684793,8.94928887102,0.0,0.0,0.0,0.0,0.0,0.0,0.0,0.0,0.0
31732000000,1,31732000000,imu_link,0.000208857434387,-0.309983993699,0.00072826904327,0.950741473616,0.0,0.0,0.0,0.0,0.0,0.0,0.0,0.0,0.0,-0.0019494195786,-0.201033427873,-0.000895144645128,0.0,0.0,0.0,0.0,0.0,0.0,0.0,0.0,0.0,4.35996156581,0.000449364322244,8.94741552585,0.0,0.0,0.0,0.0,0.0,0.0,0.0,0.0,0.0
31736000000,2,31736000000,imu_link,0.000204102926789,-0.310367706351,0.000725213930869,0.950616283924,0.0,0.0,0.0,0.0,0.0,0.0,0.0,0.0,0.0,-0.00286032160853,-0.201807770664,-0.000629743949143,0.0,0.0,0.0,0.0,0.0,0.0,0.0,0.0,0.0,4.36496399767,-0.000157626640698,8.94432531109,0.0,0.0,0.0,0.0,0.0,0.0,0.0,0.0,0.0
31740000000,3,31740000000,imu_link,0.000198118110449,-0.310752642567,0.00072218363477,0.950490523013,0.0,0.0,0.0,0.0,0.0,0.0,0.0,0.0,0.0,-0.00344163171012,-0.202477536375,-0.000426692496625,0.0,0.0,0.0,0.0,0.0,0.0,0.0,0.0,0.0,4.37150604286,-0.000612418611261,8.93918503959,0.0,0.0,0.0,0.0,0.0,0.0,0.0,0.0,0.0
31744000000,4,31744000000,imu_link,0.000191340572005,-0.311138513299,0.000719220305898,0.950364283658,0.0,0.0,0.0,0.0,0.0,0.0,0.0,0.0,0.0,-0.00380825409554,-0.202995706054,-0.00027143104817,0.0,0.0,0.0,0.0,0.0,0.0,0.0,0.0,0.0,4.37870091449,-0.000709127959652,8.93709406439,0.0,0.0,0.0,0.0,0.0,0.0,0.0,0.0,0.0
31748000000,5,31748000000,imu_link,0.000184399494827,-0.31152566387,0.000716468108612,0.950237451072,0.0,0.0,0.0,0.0,0.0,0.0,0.0,0.0,0.0,-0.00385352269213,-0.203696072979,-0.000145327704944,0.0,0.0,0.0,0.0,0.0,0.0,0.0,0.0,0.0,4.3853419756,-0.000509590169589,8.93630456328,0.0,0.0,0.0,0.0,0.0,0.0,0.0,0.0,0.0
31752000000,6,31752000000,imu_link,0.000177699064907,-0.311913972572,0.000714000552086,0.950110063277,0.0,0.0,0.0,0.0,0.0,0.0,0.0,0.0,0.0,-0.00369521390359,-0.204332863436,-4.72677656082e-05,0.0,0.0,0.0,0.0,0.0,0.0,0.0,0.0,0.0,4.39156701394,-0.000292740359386,8.92941389909,0.0,0.0,0.0,0.0,0.0,0.0,0.0,0.0,0.0
31756000000,7,31756000000,imu_link,0.000171457756833,-0.312303485878,0.000711832648962,0.949982103308,0.0,0.0,0.0,0.0,0.0,0.0,0.0,0.0,0.0,-0.00343075190467,-0.204994488731,2.37921323016e-05,0.0,0.0,0.0,0.0,0.0,0.0,0.0,0.0,0.0,4.39755122625,1.12288776281e-05,8.92355471732,0.0,0.0,0.0,0.0,0.0,0.0,0.0,0.0,0.0
31760000000,8,31760000000,imu_link,0.000166142037241,-0.312693911284,0.000710011391667,0.949853665638,0.0,0.0,0.0,0.0,0.0,0.0,0.0,0.0,0.0,-0.00293725994655,-0.205502621767,4.4161760133e-05,0.0,0.0,0.0,0.0,0.0,0.0,0.0,0.0,0.0,4.40354454896,-1.49672080439e-05,8.91798254465,0.0,0.0,0.0,0.0,0.0,0.0,0.0,0.0,0.0
31764000000,9,31764000000,imu_link,0.000161732381406,-0.313084367196,0.000708485300131,0.949725039635,0.0,0.0,0.0,0.0,0.0,0.0,0.0,0.0,0.0,-0.00246079283286,-0.205546852428,4.27529836738e-05,0.0,0.0,0.0,0.0,0.0,0.0,0.0,0.0,0.0,4.41184355554,5.4774575317e-05,8.91222434909,0.0,0.0,0.0,0.0,0.0,0.0,0.0,0.0,0.0
31768000000,10,31768000000,imu_link,0.000158060188686,-0.313474679219,0.00070715480128,0.949596282869,0.0,0.0,0.0,0.0,0.0,0.0,0.0,0.0,0.0,-0.00207991915566,-0.205499240141,2.02232161186e-05,0.0,0.0,0.0,0.0,0.0,0.0,0.0,0.0,0.0,4.4190111913,-0.000188723917252,8.90945965308,0.0,0.0,0.0,0.0,0.0,0.0,0.0,0.0,0.0
31772000000,11,31772000000,imu_link,0.000154753171627,-0.313864630083,0.000705879778365,0.949467467462,0.0,0.0,0.0,0.0,0.0,0.0,0.0,0.0,0.0,-0.00189770693212,-0.205337078838,-1.06813848103e-05,0.0,0.0,0.0,0.0,0.0,0.0,0.0,0.0,0.0,4.42652967864,-0.000195358050343,8.91031477396,0.0,0.0,0.0,0.0,0.0,0.0,0.0,0.0,0.0
31776000000,12,31776000000,imu_link,0.000151370205914,-0.314254703993,0.000704542023987,0.949338433714,0.0,0.0,0.0,0.0,0.0,0.0,0.0,0.0,0.0,-0.00194363345151,-0.205429735329,-2.84567483167e-05,0.0,0.0,0.0,0.0,0.0,0.0,0.0,0.0,0.0,4.43167873042,3.86677556179e-06,8.90854474835,0.0,0.0,0.0,0.0,0.0,0.0,0.0,0.0,0.0
31780000000,13,31780000000,imu_link,0.000147364782234,-0.314645067996,0.000703067144978,0.94920912615,0.0,0.0,0.0,0.0,0.0,0.0,0.0,0.0,0.0,-0.00226072261156,-0.205610248741,4.37799887277e-06,0.0,0.0,0.0,0.0,0.0,0.0,0.0,0.0,0.0,4.43620839351,0.00020530942577,8.9055627602,0.0,0.0,0.0,0.0,0.0,0.0,0.0,0.0,0.0
31784000000,14,31784000000,imu_link,0.000142594410227,-0.315035433078,0.000701503115308,0.949079640212,0.0,0.0,0.0,0.0,0.0,0.0,0.0,0.0,0.0,-0.00263778325463,-0.205638560361,8.24730881793e-05,0.0,0.0,0.0,0.0,0.0,0.0,0.0,0.0,0.0,4.44288649862,-1.79835763725e-05,8.90089718195,0.0,0.0,0.0,0.0,0.0,0.0,0.0,0.0,0.0
31788000000,15,31788000000,imu_link,0.000137077907768,-0.315425864705,0.000699931983075,0.948949953991,0.0,0.0,0.0,0.0,0.0,0.0,0.0,0.0,0.0,-0.00299297973593,-0.205701426291,0.000196706407742,0.0,0.0,0.0,0.0,0.0,0.0,0.0,0.0,0.0,4.4503204354,-0.000183355980903,8.90120230676,0.0,0.0,0.0,0.0,0.0,0.0,0.0,0.0,0.0
31792000000,16,31792000000,imu_link,0.000131076156554,-0.315816233106,0.000698489918084,0.948820110367,0.0,0.0,0.0,0.0,0.0,0.0,0.0,0.0,0.0,-0.00320282965684,-0.205696072577,0.00033452635266,0.0,0.0,0.0,0.0,0.0,0.0,0.0,0.0,0.0,4.45675114608,-0.000243342400468,8.89944875587,0.0,0.0,0.0,0.0,0.0,0.0,0.0,0.0,0.0
31796000000,17,31796000000,imu_link,0.000125027787873,-0.316206762633,0.000697270151436,0.948690034441,0.0,0.0,0.0,0.0,0.0,0.0,0.0,0.0,0.0,-0.00318988378674,-0.205809163949,0.000447439897924,0.0,0.0,0.0,0.0,0.0,0.0,0.0,0.0,0.0,4.4622657395,-0.000221844624815,8.89794797181,0.0,0.0,0.0,0.0,0.0,0.0,0.0,0.0,0.0
31800000000,18,31800000000,imu_link,0.00011890244776,-0.316597436833,0.000696158749486,0.948559731496,0.0,0.0,0.0,0.0,0.0,0.0,0.0,0.0,0.0,-0.00320929822459,-0.205913647716,0.000511099792236,0.0,0.0,0.0,0.0,0.0,0.0,0.0,0.0,0.0,4.46765314641,6.51786887999e-05,8.89377970614,0.0,0.0,0.0,0.0,0.0,0.0,0.0,0.0,0.0
31804000000,19,31804000000,imu_link,0.000112714635268,-0.316987943617,0.000695065903224,0.948429305631,0.0,0.0,0.0,0.0,0.0,0.0,0.0,0.0,0.0,-0.003235924695,-0.205853680795,0.000529822513442,0.0,0.0,0.0,0.0,0.0,0.0,0.0,0.0,0.0,4.47274257029,0.000388254329525,8.88854308311,0.0,0.0,0.0,0.0,0.0,0.0,0.0,0.0,0.0
31808000000,20,31808000000,imu_link,0.000106741216872,-0.317377970938,0.000694047556651,0.948298861366,0.0,0.0,0.0,0.0,0.0,0.0,0.0,0.0,0.0,-0.00312228044499,-0.205629299384,0.000531150559587,0.0,0.0,0.0,0.0,0.0,0.0,0.0,0.0,0.0,4.47888967499,0.000273289653996,8.88446845811,0.0,0.0,0.0,0.0,0.0,0.0,0.0,0.0,0.0
31812000000,21,31812000000,imu_link,0.000100804467099,-0.317766720366,0.000693045630112,0.948168666933,0.0,0.0,0.0,0.0,0.0,0.0,0.0,0.0,0.0,-0.00310185823083,-0.20498375281,0.000532962302448,0.0,0.0,0.0,0.0,0.0,0.0,0.0,0.0,0.0,4.48757439983,0.000332061384505,8.88197478104,0.0,0.0,0.0,0.0,0.0,0.0,0.0,0.0,0.0
31816000000,22,31816000000,imu_link,9.46526739842e-05,-0.318154144184,0.000691967204081,0.948038740116,0.0,0.0,0.0,0.0,0.0,0.0,0.0,0.0,0.0,-0.00321551554855,-0.20431271126,0.000530702351944,0.0,0.0,0.0,0.0,0.0,0.0,0.0,0.0,0.0,4.49391328977,9.81169007833e-05,8.87798678803,0.0,0.0,0.0,0.0,0.0,0.0,0.0,0.0,0.0
31820000000,23,31820000000,imu_link,8.81959210291e-05,-0.318540557041,0.000690762016941,0.947908976954,0.0,0.0,0.0,0.0,0.0,0.0,0.0,0.0,0.0,-0.00337989518779,-0.20380736298,0.000519022780936,0.0,0.0,0.0,0.0,0.0,0.0,0.0,0.0,0.0,4.50008192059,-0.000133884999546,8.87717796737,0.0,0.0,0.0,0.0,0.0,0.0,0.0,0.0,0.0
31824000000,24,31824000000,imu_link,8.126020139e-05,-0.318926414087,0.000689379202155,0.947779225638,0.0,0.0,0.0,0.0,0.0,0.0,0.0,0.0,0.0,-0.00363500297848,-0.20354188942,0.00051109191527,0.0,0.0,0.0,0.0,0.0,0.0,0.0,0.0,0.0,4.50603371598,-0.00034842855793,8.87690002265,0.0,0.0,0.0,0.0,0.0,0.0,0.0,0.0,0.0
31828000000,25,31828000000,imu_link,7.37365587128e-05,-0.319312848093,0.000687768869272,0.947649105196,0.0,0.0,0.0,0.0,0.0,0.0,0.0,0.0,0.0,-0.0039500782667,-0.203873973927,0.00049717622088,0.0,0.0,0.0,0.0,0.0,0.0,0.0,0.0,0.0,4.51332168513,-0.000425247739901,8.88596343106,0.0,0.0,0.0,0.0,0.0,0.0,0.0,0.0,0.0
31832000000,26,31832000000,imu_link,6.59891769675e-05,-0.319700413112,0.000685987943769,0.947518427748,0.0,0.0,0.0,0.0,0.0,0.0,0.0,0.0,0.0,-0.00408369595287,-0.204498734129,0.000452299869,0.0,0.0,0.0,0.0,0.0,0.0,0.0,0.0,0.0,4.52084718513,-0.00071962766196,8.88493443961,0.0,0.0,0.0,0.0,0.0,0.0,0.0,0.0,0.0
31836000000,27,31836000000,imu_link,5.84274679567e-05,-0.320089144513,0.000684155596042,0.947387179606,0.0,0.0,0.0,0.0,0.0,0.0,0.0,0.0,0.0,-0.00400433286537,-0.205142609915,0.000398492516124,0.0,0.0,0.0,0.0,0.0,0.0,0.0,0.0,0.0,4.52809175337,-0.00061314338339,8.88185243621,0.0,0.0,0.0,0.0,0.0,0.0,0.0,0.0,0.0
31840000000,28,31840000000,imu_link,5.14593071204e-05,-0.320478806915,0.000682345353679,0.947255438662,0.0,0.0,0.0,0.0,0.0,0.0,0.0,0.0,0.0,-0.00371993911147,-0.205662691247,0.000314165289691,0.0,0.0,0.0,0.0,0.0,0.0,0.0,0.0,0.0,4.53465722443,-0.00022906695465,8.87790902893,0.0,0.0,0.0,0.0,0.0,0.0,0.0,0.0,0.0
31844000000,29,31844000000,imu_link,4.52054869174e-05,-0.320869605212,0.000680600626372,0.947123134123,0.0,0.0,0.0,0.0,0.0,0.0,0.0,0.0,0.0,-0.0033714825012,-0.206291235736,0.000230951021463,0.0,0.0,0.0,0.0,0.0,0.0,0.0,0.0,0.0,4.5401336577,0.000103264795224,8.87625046234,0.0,0.0,0.0,0.0,0.0,0.0,0.0,0.0,0.0
31848000000,30,31848000000,imu_link,3.96694365185e-05,-0.321261624795,0.000678966673835,0.946990235359,0.0,0.0,0.0,0.0,0.0,0.0,0.0,0.0,0.0,-0.0030142043232,-0.206965165423,0.000168484252669,0.0,0.0,0.0,0.0,0.0,0.0,0.0,0.0,0.0,4.54519090281,0.000390648094345,8.87627289941,0.0,0.0,0.0,0.0,0.0,0.0,0.0,0.0,0.0
31852000000,31,31852000000,imu_link,3.46705312196e-05,-0.321654991449,0.000677453447131,0.946856697886,0.0,0.0,0.0,0.0,0.0,0.0,0.0,0.0,0.0,-0.00274092107046,-0.207705774074,0.000139608838756,0.0,0.0,0.0,0.0,0.0,0.0,0.0,0.0,0.0,4.54886813375,0.000673771766155,8.87374934783,0.0,0.0,0.0,0.0,0.0,0.0,0.0,0.0,0.0
31856000000,32,31856000000,imu_link,2.98555078865e-05,-0.322049596741,0.00067592782269,0.946722556755,0.0,0.0,0.0,0.0,0.0,0.0,0.0,0.0,0.0,-0.00265626912117,-0.208389327395,0.000104392066408,0.0,0.0,0.0,0.0,0.0,0.0,0.0,0.0,0.0,4.55453091562,0.000676354657542,8.87140098649,0.0,0.0,0.0,0.0,0.0,0.0,0.0,0.0,0.0
31860000000,33,31860000000,imu_link,2.46043650626e-05,-0.322444911991,0.000674191471123,0.946587990412,0.0,0.0,0.0,0.0,0.0,0.0,0.0,0.0,0.0,-0.00289687710851,-0.208793720009,7.50223605123e-05,0.0,0.0,0.0,0.0,0.0,0.0,0.0,0.0,0.0,4.56174918704,0.000668593949295,8.86630104482,0.0,0.0,0.0,0.0,0.0,0.0,0.0,0.0,0.0
31864000000,34,31864000000,imu_link,1.88990184648e-05,-0.322839884167,0.000672241390199,0.946453356973,0.0,0.0,0.0,0.0,0.0,0.0,0.0,0.0,0.0,-0.00314619054646,-0.208642011795,4.71117808608e-05,0.0,0.0,0.0,0.0,0.0,0.0,0.0,0.0,0.0,4.57039126182,0.000325024770541,8.86170917809,0.0,0.0,0.0,0.0,0.0,0.0,0.0,0.0,0.0
31868000000,35,31868000000,imu_link,1.29471341261e-05,-0.32323370126,0.000670106784806,0.946318934165,0.0,0.0,0.0,0.0,0.0,0.0,0.0,0.0,0.0,-0.00329225846559,-0.208061314121,-4.95728769137e-07,0.0,0.0,0.0,0.0,0.0,0.0,0.0,0.0,0.0,4.5780206436,2.88177757048e-05,8.85760360393,0.0,0.0,0.0,0.0,0.0,0.0,0.0,0.0,0.0
31872000000,36,31872000000,imu_link,6.58637257566e-06,-0.323625186883,0.00066775783813,0.946185125898,0.0,0.0,0.0,0.0,0.0,0.0,0.0,0.0,0.0,-0.0035195865802,-0.20685870135,-3.60528887959e-05,0.0,0.0,0.0,0.0,0.0,0.0,0.0,0.0,0.0,4.58566682397,-9.95782237012e-05,8.85502977229,0.0,0.0,0.0,0.0,0.0,0.0,0.0,0.0,0.0
31876000000,37,31876000000,imu_link,-4.61906096762e-07,-0.324013745754,0.000665147331735,0.94605213923,0.0,0.0,0.0,0.0,0.0,0.0,0.0,0.0,0.0,-0.00388619502535,-0.20534090256,-4.88298720221e-05,0.0,0.0,0.0,0.0,0.0,0.0,0.0,0.0,0.0,4.59065949487,-0.000197236038265,8.84824210501,0.0,0.0,0.0,0.0,0.0,0.0,0.0,0.0,0.0
31880000000,38,31880000000,imu_link,-8.07437274054e-06,-0.324399327344,0.000662352423105,0.945919995371,0.0,0.0,0.0,0.0,0.0,0.0,0.0,0.0,0.0,-0.00418195473307,-0.203795841845,-4.49342158123e-05,0.0,0.0,0.0,0.0,0.0,0.0,0.0,0.0,0.0,4.59740544726,-0.000613033170583,8.84333483273,0.0,0.0,0.0,0.0,0.0,0.0,0.0,0.0,0.0
31884000000,39,31884000000,imu_link,-1.5917181718e-05,-0.324781945358,0.000659496947772,0.945788693515,0.0,0.0,0.0,0.0,0.0,0.0,0.0,0.0,0.0,-0.00429973648078,-0.202257539451,-3.64852806626e-05,0.0,0.0,0.0,0.0,0.0,0.0,0.0,0.0,0.0,4.60357662325,-0.000618186974971,8.83906449621,0.0,0.0,0.0,0.0,0.0,0.0,0.0,0.0,0.0
31888000000,40,31888000000,imu_link,-2.37250900269e-05,-0.325162167093,0.000656648408847,0.945658042498,0.0,0.0,0.0,0.0,0.0,0.0,0.0,0.0,0.0,-0.00428131038707,-0.20101867375,-3.90681881424e-05,0.0,0.0,0.0,0.0,0.0,0.0,0.0,0.0,0.0,4.60997535959,-0.000148681102708,8.84123300759,0.0,0.0,0.0,0.0,0.0,0.0,0.0,0.0,0.0
31892000000,41,31892000000,imu_link,-3.10301702703e-05,-0.325540498208,0.000653895615037,0.945527871342,0.0,0.0,0.0,0.0,0.0,0.0,0.0,0.0,0.0,-0.00402736588792,-0.200046883234,-7.56825759894e-05,0.0,0.0,0.0,0.0,0.0,0.0,0.0,0.0,0.0,4.61560571493,0.000334548802578,8.84258749867,0.0,0.0,0.0,0.0,0.0,0.0,0.0,0.0,0.0
31896000000,42,31896000000,imu_link,-3.74324532668e-05,-0.325917780005,0.000651334909546,0.945397892445,0.0,0.0,0.0,0.0,0.0,0.0,0.0,0.0,0.0,-0.00356894355161,-0.199519807527,-0.000131865262319,0.0,0.0,0.0,0.0,0.0,0.0,0.0,0.0,0.0,4.62139258927,0.000771789795313,8.84723303019,0.0,0.0,0.0,0.0,0.0,0.0,0.0,0.0,0.0
31900000000,43,31900000000,imu_link,-4.25095616073e-05,-0.326295108618,0.00064907918426,0.945267728732,0.0,0.0,0.0,0.0,0.0,0.0,0.0,0.0,0.0,-0.00289285430422,-0.199572492245,-0.000203591124914,0.0,0.0,0.0,0.0,0.0,0.0,0.0,0.0,0.0,4.6267850064,0.00106887700183,8.85242679973,0.0,0.0,0.0,0.0,0.0,0.0,0.0,0.0,0.0
31904000000,44,31904000000,imu_link,-4.607188613e-05,-0.326673003427,0.000647155610756,0.945137200569,0.0,0.0,0.0,0.0,0.0,0.0,0.0,0.0,0.0,-0.00212291786223,-0.199900053303,-0.000293631982926,0.0,0.0,0.0,0.0,0.0,0.0,0.0,0.0,0.0,4.63223507326,0.00100042232161,8.85324236376,0.0,0.0,0.0,0.0,0.0,0.0,0.0,0.0,0.0
31908000000,45,31908000000,imu_link,-4.81625507918e-05,-0.32705228602,0.000645555356977,0.94500602281,0.0,0.0,0.0,0.0,0.0,0.0,0.0,0.0,0.0,-0.00137511167043,-0.200662463447,-0.000381038788004,0.0,0.0,0.0,0.0,0.0,0.0,0.0,0.0,0.0,4.63909351264,0.000807937121565,8.8582174015,0.0,0.0,0.0,0.0,0.0,0.0,0.0,0.0,0.0
31912000000,46,31912000000,imu_link,-4.94425362083e-05,-0.327433307132,0.000644062661324,0.944874072096,0.0,0.0,0.0,0.0,0.0,0.0,0.0,0.0,0.0,-0.000975054457272,-0.201610581236,-0.000462576879695,0.0,0.0,0.0,0.0,0.0,0.0,0.0,0.0,0.0,4.64583324736,0.000770986210381,8.85947795808,0.0,0.0,0.0,0.0,0.0,0.0,0.0,0.0,0.0
31916000000,47,31916000000,imu_link,-5.11364181293e-05,-0.327816477967,0.000642318130308,0.944741203497,0.0,0.0,0.0,0.0,0.0,0.0,0.0,0.0,0.0,-0.00121253912827,-0.202776324222,-0.000513549042718,0.0,0.0,0.0,0.0,0.0,0.0,0.0,0.0,0.0,4.65109425154,0.000898769895555,8.85750713771,0.0,0.0,0.0,0.0,0.0,0.0,0.0,0.0,0.0
31920000000,48,31920000000,imu_link,-5.45631064594e-05,-0.328201589316,0.000640038084188,0.944607486814,0.0,0.0,0.0,0.0,0.0,0.0,0.0,0.0,0.0,-0.0021194862456,-0.203831403605,-0.000482266630242,0.0,0.0,0.0,0.0,0.0,0.0,0.0,0.0,0.0,4.65736039833,0.000963894481327,8.85515263945,0.0,0.0,0.0,0.0,0.0,0.0,0.0,0.0,0.0
31924000000,49,31924000000,imu_link,-6.05958595169e-05,-0.328587924356,0.000637029929015,0.94447316875,0.0,0.0,0.0,0.0,0.0,0.0,0.0,0.0,0.0,-0.00347023177179,-0.204507191164,-0.000398338893544,0.0,0.0,0.0,0.0,0.0,0.0,0.0,0.0,0.0,4.66338743797,0.00077965564749,8.84789328465,0.0,0.0,0.0,0.0,0.0,0.0,0.0,0.0,0.0
31928000000,50,31928000000,imu_link,-6.90281742491e-05,-0.32897502295,0.000633357714163,0.944338407759,0.0,0.0,0.0,0.0,0.0,0.0,0.0,0.0,0.0,-0.00471275030571,-0.204939755515,-0.000317580721345,0.0,0.0,0.0,0.0,0.0,0.0,0.0,0.0,0.0,4.67112100456,0.000254629023764,8.84068707903,0.0,0.0,0.0,0.0,0.0,0.0,0.0,0.0,0.0
31932000000,51,31932000000,imu_link,-7.91457486795e-05,-0.329362128099,0.000629191247128,0.944203466647,0.0,0.0,0.0,0.0,0.0,0.0,0.0,0.0,0.0,-0.00558978471356,-0.204971926888,-0.000273690389412,0.0,0.0,0.0,0.0,0.0,0.0,0.0,0.0,0.0,4.68069254147,-0.000221661357624,8.84013640881,0.0,0.0,0.0,0.0,0.0,0.0,0.0,0.0,0.0
31936000000,52,31936000000,imu_link,-9.00282246278e-05,-0.329749140377,0.000624726504431,0.944068379956,0.0,0.0,0.0,0.0,0.0,0.0,0.0,0.0,0.0,-0.00599999297827,-0.204951804464,-0.000288492578123,0.0,0.0,0.0,0.0,0.0,0.0,0.0,0.0,0.0,4.68777562272,-0.000292663341213,8.83737257801,0.0,0.0,0.0,0.0,0.0,0.0,0.0,0.0,0.0
31940000000,53,31940000000,imu_link,-0.000100911396173,-0.330136006555,0.000620124360073,0.943933166299,0.0,0.0,0.0,0.0,0.0,0.0,0.0,0.0,0.0,-0.00602293544415,-0.204903766883,-0.00035318994275,0.0,0.0,0.0,0.0,0.0,0.0,0.0,0.0,0.0,4.69392120149,-0.00029402118655,8.83375627617,0.0,0.0,0.0,0.0,0.0,0.0,0.0,0.0,0.0
31944000000,54,31944000000,imu_link,-0.000111273231452,-0.330522669142,0.000615503061185,0.943797845917,0.0,0.0,0.0,0.0,0.0,0.0,0.0,0.0,0.0,-0.00577998618616,-0.204825456525,-0.000448242822003,0.0,0.0,0.0,0.0,0.0,0.0,0.0,0.0,0.0,4.69813584687,-3.81914661102e-05,8.8256825392,0.0,0.0,0.0,0.0,0.0,0.0,0.0,0.0,0.0
31948000000,55,31948000000,imu_link,-0.000120715887067,-0.330909879333,0.000611010785554,0.943662155569,0.0,0.0,0.0,0.0,0.0,0.0,0.0,0.0,0.0,-0.00532509280961,-0.205145301262,-0.00053917836097,0.0,0.0,0.0,0.0,0.0,0.0,0.0,0.0,0.0,4.70333954129,0.00037326844501,8.82709434074,0.0,0.0,0.0,0.0,0.0,0.0,0.0,0.0,0.0
31952000000,56,31952000000,imu_link,-0.000129336291054,-0.331297731891,0.000606656809837,0.943526061158,0.0,0.0,0.0,0.0,0.0,0.0,0.0,0.0,0.0,-0.00491446713589,-0.205515504057,-0.000609885091424,0.0,0.0,0.0,0.0,0.0,0.0,0.0,0.0,0.0,4.71056049717,0.000685281190903,8.82625283049,0.0,0.0,0.0,0.0,0.0,0.0,0.0,0.0,0.0
31956000000,57,31956000000,imu_link,-0.000137074750378,-0.331686681607,0.000602528941839,0.943389401792,0.0,0.0,0.0,0.0,0.0,0.0,0.0,0.0,0.0,-0.00446131305944,-0.206126968958,-0.000649208549881,0.0,0.0,0.0,0.0,0.0,0.0,0.0,0.0,0.0,4.71660611116,0.000482550472706,8.82676079834,0.0,0.0,0.0,0.0,0.0,0.0,0.0,0.0,0.0
31960000000,58,31960000000,imu_link,-0.000143717883802,-0.33207647173,0.000598724487039,0.943252266256,0.0,0.0,0.0,0.0,0.0,0.0,0.0,0.0,0.0,-0.00389130348457,-0.20660270668,-0.000678222913996,0.0,0.0,0.0,0.0,0.0,0.0,0.0,0.0,0.0,4.72118781517,0.000298953082845,8.82151999507,0.0,0.0,0.0,0.0,0.0,0.0,0.0,0.0,0.0
31964000000,59,31964000000,imu_link,-0.000148833541371,-0.332466545085,0.000595370600911,0.94311484973,0.0,0.0,0.0,0.0,0.0,0.0,0.0,0.0,0.0,-0.00309619923961,-0.20678343094,-0.000719278587884,0.0,0.0,0.0,0.0,0.0,0.0,0.0,0.0,0.0,4.72524655401,0.000167238298419,8.81659817638,0.0,0.0,0.0,0.0,0.0,0.0,0.0,0.0,0.0
31968000000,60,31968000000,imu_link,-0.000152660337124,-0.332856811635,0.000592369269379,0.942977183574,0.0,0.0,0.0,0.0,0.0,0.0,0.0,0.0,0.0,-0.00242989660724,-0.206916440172,-0.0007672206381,0.0,0.0,0.0,0.0,0.0,0.0,0.0,0.0,0.0,4.72878477809,0.000257746694351,8.81289933351,0.0,0.0,0.0,0.0,0.0,0.0,0.0,0.0,0.0
31972000000,61,31972000000,imu_link,-0.000155730414006,-0.333247135679,0.000589522903147,0.942839315457,0.0,0.0,0.0,0.0,0.0,0.0,0.0,0.0,0.0,-0.00204735407654,-0.206977395877,-0.000820040357951,0.0,0.0,0.0,0.0,0.0,0.0,0.0,0.0,0.0,4.73455181138,0.000443811238993,8.80888060858,0.0,0.0,0.0,0.0,0.0,0.0,0.0,0.0,0.0
31976000000,62,31976000000,imu_link,-0.000158414185891,-0.333637546163,0.000586741319899,0.942701234978,0.0,0.0,0.0,0.0,0.0,0.0,0.0,0.0,0.0,-0.00185448993374,-0.207053648743,-0.000853812039786,0.0,0.0,0.0,0.0,0.0,0.0,0.0,0.0,0.0,4.74198514519,0.000693584606043,8.80667530796,0.0,0.0,0.0,0.0,0.0,0.0,0.0,0.0,0.0
31980000000,63,31980000000,imu_link,-0.000160962123127,-0.334027924923,0.000584024478473,0.942562983773,0.0,0.0,0.0,0.0,0.0,0.0,0.0,0.0,0.0,-0.00177966824594,-0.207067221093,-0.000845903111905,0.0,0.0,0.0,0.0,0.0,0.0,0.0,0.0,0.0,4.74966706463,0.00102826066073,8.80300718943,0.0,0.0,0.0,0.0,0.0,0.0,0.0,0.0,0.0
31984000000,64,31984000000,imu_link,-0.000163585841973,-0.33441792211,0.000581363627838,0.942424685918,0.0,0.0,0.0,0.0,0.0,0.0,0.0,0.0,0.0,-0.00180592380493,-0.206895166595,-0.000806814766585,0.0,0.0,0.0,0.0,0.0,0.0,0.0,0.0,0.0,4.7557347551,0.0013953376565,8.79560003128,0.0,0.0,0.0,0.0,0.0,0.0,0.0,0.0,0.0
31988000000,65,31988000000,imu_link,-0.000166469801696,-0.334807286869,0.000578721319646,0.942286430991,0.0,0.0,0.0,0.0,0.0,0.0,0.0,0.0,0.0,-0.00192526471819,-0.206589905952,-0.000754523477248,0.0,0.0,0.0,0.0,0.0,0.0,0.0,0.0,0.0,4.76237017803,0.00163950907781,8.79374583557,0.0,0.0,0.0,0.0,0.0,0.0,0.0,0.0,0.0
31992000000,66,31992000000,imu_link,-0.000169478792153,-0.335195554864,0.00057614142083,0.942148384989,0.0,0.0,0.0,0.0,0.0,0.0,0.0,0.0,0.0,-0.00197338979739,-0.206038167631,-0.00070415828391,0.0,0.0,0.0,0.0,0.0,0.0,0.0,0.0,0.0,4.76796055816,0.00175688328425,8.7896791135,0.0,0.0,0.0,0.0,0.0,0.0,0.0,0.0,0.0
31996000000,67,31996000000,imu_link,-0.000172573976682,-0.335582492371,0.00057361900602,0.942010632633,0.0,0.0,0.0,0.0,0.0,0.0,0.0,0.0,0.0,-0.00200395125113,-0.205362174053,-0.0006626049598,0.0,0.0,0.0,0.0,0.0,0.0,0.0,0.0,0.0,4.7718528611,0.00157224023048,8.78197777576,0.0,0.0,0.0,0.0,0.0,0.0,0.0,0.0,0.0
32000000000,68,32000000000,imu_link,-0.000175966276381,-0.335967374441,0.000571066269653,0.941873434295,0.0,0.0,0.0,0.0,0.0,0.0,0.0,0.0,0.0,-0.00214834445496,-0.20430100516,-0.000627014785735,0.0,0.0,0.0,0.0,0.0,0.0,0.0,0.0,0.0,4.77921688155,0.00160624261281,8.77783930191,0.0,0.0,0.0,0.0,0.0,0.0,0.0,0.0,0.0
32004000000,69,32004000000,imu_link,-0.000179683902118,-0.336349866531,0.000568430099146,0.941736912245,0.0,0.0,0.0,0.0,0.0,0.0,0.0,0.0,0.0,-0.00231482609728,-0.203061770023,-0.000611640341304,0.0,0.0,0.0,0.0,0.0,0.0,0.0,0.0,0.0,4.78562043142,0.0013062548648,8.77384835695,0.0,0.0,0.0,0.0,0.0,0.0,0.0,0.0,0.0
32008000000,70,32008000000,imu_link,-0.000183548802249,-0.336730497223,0.00056572575806,0.941600880684,0.0,0.0,0.0,0.0,0.0,0.0,0.0,0.0,0.0,-0.0023950644465,-0.20210275984,-0.000618944028062,0.0,0.0,0.0,0.0,0.0,0.0,0.0,0.0,0.0,4.79251626639,0.0010671758921,8.77859647024,0.0,0.0,0.0,0.0,0.0,0.0,0.0,0.0,0.0
32012000000,71,32012000000,imu_link,-0.000187352798532,-0.337109798921,0.000563013146843,0.941465151446,0.0,0.0,0.0,0.0,0.0,0.0,0.0,0.0,0.0,-0.00236737961953,-0.201426184977,-0.000633055249832,0.0,0.0,0.0,0.0,0.0,0.0,0.0,0.0,0.0,4.79837509106,0.000846576896108,8.78250467006,0.0,0.0,0.0,0.0,0.0,0.0,0.0,0.0,0.0
32016000000,72,32016000000,imu_link,-0.000191138063945,-0.337488630125,0.000560340602461,0.94132941844,0.0,0.0,0.0,0.0,0.0,0.0,0.0,0.0,0.0,-0.00235167683071,-0.20120535185,-0.000617306529526,0.0,0.0,0.0,0.0,0.0,0.0,0.0,0.0,0.0,4.80295323254,0.000683043458594,8.78616469219,0.0,0.0,0.0,0.0,0.0,0.0,0.0,0.0,0.0
32020000000,73,32020000000,imu_link,-0.000194786580371,-0.337867557181,0.000557802728705,0.941193478897,0.0,0.0,0.0,0.0,0.0,0.0,0.0,0.0,0.0,-0.00226463559264,-0.201285369043,-0.000576948724045,0.0,0.0,0.0,0.0,0.0,0.0,0.0,0.0,0.0,4.80944218162,0.000319415882515,8.78789174443,0.0,0.0,0.0,0.0,0.0,0.0,0.0,0.0,0.0
32024000000,74,32024000000,imu_link,-0.000198370585039,-0.338246681349,0.000555404188038,0.9410572962,0.0,0.0,0.0,0.0,0.0,0.0,0.0,0.0,0.0,-0.0022108171575,-0.201419238351,-0.000522228618876,0.0,0.0,0.0,0.0,0.0,0.0,0.0,0.0,0.0,4.81579833349,0.000334846424656,8.78848782937,0.0,0.0,0.0,0.0,0.0,0.0,0.0,0.0,0.0
32028000000,75,32028000000,imu_link,-0.000202369900654,-0.338626557408,0.000552938229249,0.940920670367,0.0,0.0,0.0,0.0,0.0,0.0,0.0,0.0,0.0,-0.00241788760487,-0.201847846692,-0.000483663515526,0.0,0.0,0.0,0.0,0.0,0.0,0.0,0.0,0.0,4.82291139106,0.000865378883707,8.79255937958,0.0,0.0,0.0,0.0,0.0,0.0,0.0,0.0,0.0
32032000000,76,32032000000,imu_link,-0.00020690252468,-0.339007093167,0.00055027896285,0.940783633556,0.0,0.0,0.0,0.0,0.0,0.0,0.0,0.0,0.0,-0.00270174159999,-0.202227627028,-0.000484264012083,0.0,0.0,0.0,0.0,0.0,0.0,0.0,0.0,0.0,4.82808886735,0.00120176993758,8.78889992939,0.0,0.0,0.0,0.0,0.0,0.0,0.0,0.0,0.0
32036000000,77,32036000000,imu_link,-0.000211481843745,-0.339388292542,0.000547554365208,0.9406461834,0.0,0.0,0.0,0.0,0.0,0.0,0.0,0.0,0.0,-0.0027350057931,-0.202609830264,-0.000507035245774,0.0,0.0,0.0,0.0,0.0,0.0,0.0,0.0,0.0,4.83320916597,0.00130802411731,8.78336603774,0.0,0.0,0.0,0.0,0.0,0.0,0.0,0.0,0.0
32040000000,78,32040000000,imu_link,-0.000215292739544,-0.339770060305,0.000544972996683,0.940508353378,0.0,0.0,0.0,0.0,0.0,0.0,0.0,0.0,0.0,-0.00234948919217,-0.202941843001,-0.000570024323285,0.0,0.0,0.0,0.0,0.0,0.0,0.0,0.0,0.0,4.83836178338,0.00142054040235,8.77893759144,0.0,0.0,0.0,0.0,0.0,0.0,0.0,0.0,0.0
32044000000,79,32044000000,imu_link,-0.000218291992588,-0.340151891655,0.000542530446066,0.940370325251,0.0,0.0,0.0,0.0,0.0,0.0,0.0,0.0,0.0,-0.00194426633056,-0.203005636036,-0.000642583446664,0.0,0.0,0.0,0.0,0.0,0.0,0.0,0.0,0.0,4.84456799679,0.00138478817728,8.77142223039,0.0,0.0,0.0,0.0,0.0,0.0,0.0,0.0,0.0
32048000000,80,32048000000,imu_link,-0.000220720841223,-0.340533745005,0.000540170188811,0.940232113901,0.0,0.0,0.0,0.0,0.0,0.0,0.0,0.0,0.0,-0.00166210046211,-0.203047305729,-0.000700855101729,0.0,0.0,0.0,0.0,0.0,0.0,0.0,0.0,0.0,4.85263190296,0.00128124801678,8.77030287171,0.0,0.0,0.0,0.0,0.0,0.0,0.0,0.0,0.0
32052000000,81,32052000000,imu_link,-0.000223076807075,-0.340915589586,0.000537730694151,0.940093730359,0.0,0.0,0.0,0.0,0.0,0.0,0.0,0.0,0.0,-0.00164134523399,-0.2030725131,-0.000750467931347,0.0,0.0,0.0,0.0,0.0,0.0,0.0,0.0,0.0,4.85983428597,0.0010268353153,8.76916135537,0.0,0.0,0.0,0.0,0.0,0.0,0.0,0.0,0.0
32056000000,82,32056000000,imu_link,-0.000225659285668,-0.341297786376,0.000535103456454,0.939955043477,0.0,0.0,0.0,0.0,0.0,0.0,0.0,0.0,0.0,-0.0017799476447,-0.203289692686,-0.000800062826895,0.0,0.0,0.0,0.0,0.0,0.0,0.0,0.0,0.0,4.86540906855,0.000834202564791,8.76677882375,0.0,0.0,0.0,0.0,0.0,0.0,0.0,0.0,0.0
32060000000,83,32060000000,imu_link,-0.000228502577397,-0.341680617667,0.000532262976255,0.939815950063,0.0,0.0,0.0,0.0,0.0,0.0,0.0,0.0,0.0,-0.00193912919674,-0.203657173768,-0.000855737363639,0.0,0.0,0.0,0.0,0.0,0.0,0.0,0.0,0.0,4.87064176806,0.000695917330179,8.76561572558,0.0,0.0,0.0,0.0,0.0,0.0,0.0,0.0,0.0
32064000000,84,32064000000,imu_link,-0.000231621529217,-0.342064259435,0.000529193675242,0.939676385104,0.0,0.0,0.0,0.0,0.0,0.0,0.0,0.0,0.0,-0.00210802547371,-0.204118483525,-0.000916135344271,0.0,0.0,0.0,0.0,0.0,0.0,0.0,0.0,0.0,4.87486126965,0.000677554426219,8.76142628548,0.0,0.0,0.0,0.0,0.0,0.0,0.0,0.0,0.0
32068000000,85,32068000000,imu_link,-0.000234949730147,-0.342448573111,0.000525927791233,0.939536397897,0.0,0.0,0.0,0.0,0.0,0.0,0.0,0.0,0.0,-0.00224018740301,-0.204506311469,-0.000972675316384,0.0,0.0,0.0,0.0,0.0,0.0,0.0,0.0,0.0,4.88114827945,0.00066343499789,8.75625811773,0.0,0.0,0.0,0.0,0.0,0.0,0.0,0.0,0.0
32072000000,86,32072000000,imu_link,-0.000238939777117,-0.342832711922,0.000522402453821,0.939396296373,0.0,0.0,0.0,0.0,0.0,0.0,0.0,0.0,0.0,-0.00259549382482,-0.204443534414,-0.000981183555149,0.0,0.0,0.0,0.0,0.0,0.0,0.0,0.0,0.0,4.88848140529,0.000778984413866,8.75484902722,0.0,0.0,0.0,0.0,0.0,0.0,0.0,0.0,0.0
32076000000,87,32076000000,imu_link,-0.000243952548908,-0.343216411596,0.000518576478707,0.939256177183,0.0,0.0,0.0,0.0,0.0,0.0,0.0,0.0,0.0,-0.00312728745011,-0.204239997921,-0.000947023684448,0.0,0.0,0.0,0.0,0.0,0.0,0.0,0.0,0.0,4.89296912431,0.0010785337843,8.75000250285,0.0,0.0,0.0,0.0,0.0,0.0,0.0,0.0,0.0
32080000000,88,32080000000,imu_link,-0.000249802380782,-0.343599639631,0.000514522610025,0.939116052738,0.0,0.0,0.0,0.0,0.0,0.0,0.0,0.0,0.0,-0.00355938116933,-0.204019160181,-0.00091034363165,0.0,0.0,0.0,0.0,0.0,0.0,0.0,0.0,0.0,4.89633217323,0.00104114662096,8.74424298335,0.0,0.0,0.0,0.0,0.0,0.0,0.0,0.0,0.0
32084000000,89,32084000000,imu_link,-0.000256386925385,-0.34398262265,0.000510173560357,0.938975840639,0.0,0.0,0.0,0.0,0.0,0.0,0.0,0.0,0.0,-0.0039550314161,-0.203918943641,-0.000922671566258,0.0,0.0,0.0,0.0,0.0,0.0,0.0,0.0,0.0,4.90100977707,0.00111034843703,8.74239311127,0.0,0.0,0.0,0.0,0.0,0.0,0.0,0.0,0.0
32088000000,90,32088000000,imu_link,-0.000263260741435,-0.344366216121,0.000505540420952,0.938835227459,0.0,0.0,0.0,0.0,0.0,0.0,0.0,0.0,0.0,-0.004139908983,-0.204274415558,-0.00100627204347,0.0,0.0,0.0,0.0,0.0,0.0,0.0,0.0,0.0,4.90657782362,0.00108599106408,8.74767485831,0.0,0.0,0.0,0.0,0.0,0.0,0.0,0.0,0.0
32092000000,91,32092000000,imu_link,-0.000269837011847,-0.344750125679,0.000500737480157,0.938694320476,0.0,0.0,0.0,0.0,0.0,0.0,0.0,0.0,0.0,-0.00402959131367,-0.20447343368,-0.00113717949298,0.0,0.0,0.0,0.0,0.0,0.0,0.0,0.0,0.0,4.91550612564,0.000963071058245,8.7466260842,0.0,0.0,0.0,0.0,0.0,0.0,0.0,0.0,0.0
32096000000,92,32096000000,imu_link,-0.000275588134548,-0.345134253089,0.000495877591659,0.938553155395,0.0,0.0,0.0,0.0,0.0,0.0,0.0,0.0,0.0,-0.00365221627646,-0.204620370599,-0.00130610741081,0.0,0.0,0.0,0.0,0.0,0.0,0.0,0.0,0.0,4.9226058528,0.000555395075373,8.74331872488,0.0,0.0,0.0,0.0,0.0,0.0,0.0,0.0,0.0
32100000000,93,32100000000,imu_link,-0.000280232832376,-0.345518235064,0.000491051081685,0.938411865642,0.0,0.0,0.0,0.0,0.0,0.0,0.0,0.0,0.0,-0.00312721803856,-0.204573913935,-0.00148132527563,0.0,0.0,0.0,0.0,0.0,0.0,0.0,0.0,0.0,4.92826765405,0.000372163653084,8.73568971547,0.0,0.0,0.0,0.0,0.0,0.0,0.0,0.0,0.0
32104000000,94,32104000000,imu_link,-0.000283394970202,-0.345901826818,0.000486405326292,0.938270541636,0.0,0.0,0.0,0.0,0.0,0.0,0.0,0.0,0.0,-0.00240027401705,-0.204397126919,-0.00165257683957,0.0,0.0,0.0,0.0,0.0,0.0,0.0,0.0,0.0,4.93353830938,0.000267229080517,8.73061533648,0.0,0.0,0.0,0.0,0.0,0.0,0.0,0.0,0.0
32108000000,95,32108000000,imu_link,-0.000284919441146,-0.346285430593,0.000482043516609,0.938129035375,0.0,0.0,0.0,0.0,0.0,0.0,0.0,0.0,0.0,-0.00158290673135,-0.204434726136,-0.00180256126617,0.0,0.0,0.0,0.0,0.0,0.0,0.0,0.0,0.0,4.9381418052,0.000277470824674,8.72973305193,0.0,0.0,0.0,0.0,0.0,0.0,0.0,0.0,0.0
32112000000,96,32112000000,imu_link,-0.000284616141492,-0.346668885999,0.000478091978762,0.937987406047,0.0,0.0,0.0,0.0,0.0,0.0,0.0,0.0,0.0,-0.000654510511812,-0.20438693887,-0.00192653168135,0.0,0.0,0.0,0.0,0.0,0.0,0.0,0.0,0.0,4.94350388404,0.000310434857823,8.72478847552,0.0,0.0,0.0,0.0,0.0,0.0,0.0,0.0,0.0
32116000000,97,32116000000,imu_link,-0.00028243339361,-0.347051745558,0.000474615203719,0.937845819352,0.0,0.0,0.0,0.0,0.0,0.0,0.0,0.0,0.0,0.000309380200663,-0.204100617418,-0.00202956943315,0.0,0.0,0.0,0.0,0.0,0.0,0.0,0.0,0.0,4.94946393677,0.000675497964316,8.71608963815,0.0,0.0,0.0,0.0,0.0,0.0,0.0,0.0,0.0
32120000000,98,32120000000,imu_link,-0.000278826168336,-0.347433444139,0.000471554438377,0.937704485318,0.0,0.0,0.0,0.0,0.0,0.0,0.0,0.0,0.0,0.0010498499806,-0.203512761619,-0.00208157264827,0.0,0.0,0.0,0.0,0.0,0.0,0.0,0.0,0.0,4.95613608378,0.00165216568678,8.71077239739,0.0,0.0,0.0,0.0,0.0,0.0,0.0,0.0,0.0
32124000000,99,32124000000,imu_link,-0.000274208403844,-0.347813535097,0.000468844490521,0.93756357107,0.0,0.0,0.0,0.0,0.0,0.0,0.0,0.0,0.0,0.0015850240307,-0.202686386859,-0.00209251349585,0.0,0.0,0.0,0.0,0.0,0.0,0.0,0.0,0.0,4.96121586683,0.00239657950419,8.70446851756,0.0,0.0,0.0,0.0,0.0,0.0,0.0,0.0,0.0
32128000000,100,32128000000,imu_link,-0.000268684773409,-0.348192381918,0.000466432697342,0.937422943726,0.0,0.0,0.0,0.0,0.0,0.0,0.0,0.0,0.0,0.00206185962856,-0.202053516818,-0.00211017691263,0.0,0.0,0.0,0.0,0.0,0.0,0.0,0.0,0.0,4.96599081098,0.00277927146413,8.70476568674,0.0,0.0,0.0,0.0,0.0,0.0,0.0,0.0,0.0
32132000000,101,32132000000,imu_link,-0.000262057048763,-0.348570343126,0.000464386226859,0.937282471598,0.0,0.0,0.0,0.0,0.0,0.0,0.0,0.0,0.0,0.00264318997939,-0.201611703423,-0.0021310817948,0.0,0.0,0.0,0.0,0.0,0.0,0.0,0.0,0.0,4.96896435616,0.0029908634733,8.70146722612,0.0,0.0,0.0,0.0,0.0,0.0,0.0,0.0,0.0
32136000000,102,32136000000,imu_link,-0.000254114681133,-0.348947882838,0.000462751145868,0.937141983026,0.0,0.0,0.0,0.0,0.0,0.0,0.0,0.0,0.0,0.00333108074883,-0.201417398258,-0.00216735144981,0.0,0.0,0.0,0.0,0.0,0.0,0.0,0.0,0.0,4.97212951499,0.00281629021974,8.69942601778,0.0,0.0,0.0,0.0,0.0,0.0,0.0,0.0,0.0
32140000000,103,32140000000,imu_link,-0.000245034992034,-0.349324796856,0.000461441760892,0.937001554604,0.0,0.0,0.0,0.0,0.0,0.0,0.0,0.0,0.0,0.00392097452477,-0.201114026094,-0.00221310712581,0.0,0.0,0.0,0.0,0.0,0.0,0.0,0.0,0.0,4.97742462496,0.00280852125067,8.69417003319,0.0,0.0,0.0,0.0,0.0,0.0,0.0,0.0,0.0
32144000000,104,32144000000,imu_link,-0.000235321021841,-0.349700904261,0.000460217796233,0.936861254606,0.0,0.0,0.0,0.0,0.0,0.0,0.0,0.0,0.0,0.0042332572887,-0.200713853235,-0.002283803509,0.0,0.0,0.0,0.0,0.0,0.0,0.0,0.0,0.0,4.98189808167,0.00260793848674,8.68795790855,0.0,0.0,0.0,0.0,0.0,0.0,0.0,0.0,0.0
32148000000,105,32148000000,imu_link,-0.000225561905077,-0.350076731072,0.000458854158912,0.936720887424,0.0,0.0,0.0,0.0,0.0,0.0,0.0,0.0,0.0,0.00423004015855,-0.200594155425,-0.00235707589071,0.0,0.0,0.0,0.0,0.0,0.0,0.0,0.0,0.0,4.98839249959,0.00252857058242,8.69254687458,0.0,0.0,0.0,0.0,0.0,0.0,0.0,0.0,0.0
32152000000,106,32152000000,imu_link,-0.000216209510714,-0.35045262306,0.00045719748565,0.936580323952,0.0,0.0,0.0,0.0,0.0,0.0,0.0,0.0,0.0,0.00398821783159,-0.200658913569,-0.00242309263217,0.0,0.0,0.0,0.0,0.0,0.0,0.0,0.0,0.0,4.99534384874,0.00233994582615,8.69505175867,0.0,0.0,0.0,0.0,0.0,0.0,0.0,0.0,0.0
32156000000,107,32156000000,imu_link,-0.000207658336175,-0.350829188624,0.00045514508908,0.936439336065,0.0,0.0,0.0,0.0,0.0,0.0,0.0,0.0,0.0,0.00354347344024,-0.201048485545,-0.00246798697029,0.0,0.0,0.0,0.0,0.0,0.0,0.0,0.0,0.0,5.00103365377,0.00214182224207,8.69536833274,0.0,0.0,0.0,0.0,0.0,0.0,0.0,0.0,0.0
32160000000,108,32160000000,imu_link,-0.000199650634601,-0.351206270268,0.000452799864406,0.936297981861,0.0,0.0,0.0,0.0,0.0,0.0,0.0,0.0,0.0,0.00323748688149,-0.201354228045,-0.00250973198207,0.0,0.0,0.0,0.0,0.0,0.0,0.0,0.0,0.0,5.00836542881,0.00169299419663,8.68881441705,0.0,0.0,0.0,0.0,0.0,0.0,0.0,0.0,0.0
32164000000,109,32164000000,imu_link,-0.00019193719932,-0.351583235711,0.000450275849232,0.936156498017,0.0,0.0,0.0,0.0,0.0,0.0,0.0,0.0,0.0,0.00306834359459,-0.201322509025,-0.00254171754297,0.0,0.0,0.0,0.0,0.0,0.0,0.0,0.0,0.0,5.01517905681,0.00153553989729,8.6807173358,0.0,0.0,0.0,0.0,0.0,0.0,0.0,0.0,0.0
32168000000,110,32168000000,imu_link,-0.000184093875359,-0.351960097163,0.000447704095067,0.93601488005,0.0,0.0,0.0,0.0,0.0,0.0,0.0,0.0,0.0,0.00312076009034,-0.201297435414,-0.00258685629548,0.0,0.0,0.0,0.0,0.0,0.0,0.0,0.0,0.0,5.02147193861,0.00173052863882,8.67717090566,0.0,0.0,0.0,0.0,0.0,0.0,0.0,0.0,0.0
32172000000,111,32172000000,imu_link,-0.000175494781397,-0.352336595919,0.000445248912153,0.935873225459,0.0,0.0,0.0,0.0,0.0,0.0,0.0,0.0,0.0,0.00349505813741,-0.201134315868,-0.00266525894652,0.0,0.0,0.0,0.0,0.0,0.0,0.0,0.0,0.0,5.02833824196,0.00196689148368,8.67688732181,0.0,0.0,0.0,0.0,0.0,0.0,0.0,0.0,0.0
32176000000,112,32176000000,imu_link,-0.000165489324742,-0.352712791518,0.000443100346151,0.935731512227,0.0,0.0,0.0,0.0,0.0,0.0,0.0,0.0,0.0,0.00420722531346,-0.201003128355,-0.00276949854155,0.0,0.0,0.0,0.0,0.0,0.0,0.0,0.0,0.0,5.03405858404,0.00237862320945,8.67729373059,0.0,0.0,0.0,0.0,0.0,0.0,0.0,0.0,0.0
32180000000,113,32180000000,imu_link,-0.000153733674202,-0.353088777151,0.000441399534906,0.935589705471,0.0,0.0,0.0,0.0,0.0,0.0,0.0,0.0,0.0,0.00510508436598,-0.200921811023,-0.0028686292226,0.0,0.0,0.0,0.0,0.0,0.0,0.0,0.0,0.0,5.03745662317,0.00281807116868,8.6722235769,0.0,0.0,0.0,0.0,0.0,0.0,0.0,0.0,0.0
32184000000,114,32184000000,imu_link,-0.000140807430179,-0.35346415376,0.00044003589042,0.935447956087,0.0,0.0,0.0,0.0,0.0,0.0,0.0,0.0,0.0,0.00571234574005,-0.200627068044,-0.00291753191102,0.0,0.0,0.0,0.0,0.0,0.0,0.0,0.0,0.0,5.04428062673,0.0030933605395,8.67049658321,0.0,0.0,0.0,0.0,0.0,0.0,0.0,0.0,0.0
32188000000,115,32188000000,imu_link,-0.000127489224737,-0.353839155273,0.000438817785321,0.935306176277,0.0,0.0,0.0,0.0,0.0,0.0,0.0,0.0,0.0,0.00592147737478,-0.200457100261,-0.00291869870291,0.0,0.0,0.0,0.0,0.0,0.0,0.0,0.0,0.0,5.05099872277,0.00283381947998,8.67535966284,0.0,0.0,0.0,0.0,0.0,0.0,0.0,0.0,0.0
32192000000,116,32192000000,imu_link,-0.000114212481076,-0.354213639876,0.000437693564611,0.935164420145,0.0,0.0,0.0,0.0,0.0,0.0,0.0,0.0,0.0,0.0059188125538,-0.200211173248,-0.00286743021756,0.0,0.0,0.0,0.0,0.0,0.0,0.0,0.0,0.0,5.05606256027,0.00246316901422,8.67388645065,0.0,0.0,0.0,0.0,0.0,0.0,0.0,0.0,0.0
32196000000,117,32196000000,imu_link,-0.000100942890634,-0.354587688066,0.000436697265844,0.935022657789,0.0,0.0,0.0,0.0,0.0,0.0,0.0,0.0,0.0,0.00593821883671,-0.200008222577,-0.00280632301969,0.0,0.0,0.0,0.0,0.0,0.0,0.0,0.0,0.0,5.05965533658,0.00202739085634,8.67011980701,0.0,0.0,0.0,0.0,0.0,0.0,0.0,0.0,0.0
32200000000,118,32200000000,imu_link,-8.7686806116e-05,-0.354961172074,0.000435715687735,0.934880938293,0.0,0.0,0.0,0.0,0.0,0.0,0.0,0.0,0.0,0.00593463989636,-0.199736860021,-0.00279702730992,0.0,0.0,0.0,0.0,0.0,0.0,0.0,0.0,0.0,5.06463007491,0.00179471960749,8.6687877727,0.0,0.0,0.0,0.0,0.0,0.0,0.0,0.0,0.0
32204000000,119,32204000000,imu_link,-7.41125078409e-05,-0.355333885348,0.000434707750562,0.934739340918,0.0,0.0,0.0,0.0,0.0,0.0,0.0,0.0,0.0,0.0060788809366,-0.199354981811,-0.00286581818526,0.0,0.0,0.0,0.0,0.0,0.0,0.0,0.0,0.0,5.069669406,0.00155816950469,8.66547213295,0.0,0.0,0.0,0.0,0.0,0.0,0.0,0.0,0.0
32208000000,120,32208000000,imu_link,-5.9521794993e-05,-0.355705680244,0.000433777293251,0.934597922819,0.0,0.0,0.0,0.0,0.0,0.0,0.0,0.0,0.0,0.00656789418362,-0.19889413185,-0.00301019466279,0.0,0.0,0.0,0.0,0.0,0.0,0.0,0.0,0.0,5.078781914,0.00139784929305,8.66592160013,0.0,0.0,0.0,0.0,0.0,0.0,0.0,0.0,0.0
32212000000,121,32212000000,imu_link,-4.38641851397e-05,-0.356076316523,0.000432940392439,0.934456776662,0.0,0.0,0.0,0.0,0.0,0.0,0.0,0.0,0.0,0.00708335275673,-0.198304580121,-0.00315625098045,0.0,0.0,0.0,0.0,0.0,0.0,0.0,0.0,0.0,5.0857868597,0.00179604726114,8.66213348137,0.0,0.0,0.0,0.0,0.0,0.0,0.0,0.0,0.0
32216000000,122,32216000000,imu_link,-2.72831764129e-05,-0.35644530104,0.000432185339355,0.934316092036,0.0,0.0,0.0,0.0,0.0,0.0,0.0,0.0,0.0,0.00752973065321,-0.19745086067,-0.00328247332158,0.0,0.0,0.0,0.0,0.0,0.0,0.0,0.0,0.0,5.09025863194,0.00222908202397,8.6514522016,0.0,0.0,0.0,0.0,0.0,0.0,0.0,0.0,0.0
32220000000,123,32220000000,imu_link,-1.00220720251e-05,-0.356812280539,0.000431482473311,0.934176005996,0.0,0.0,0.0,0.0,0.0,0.0,0.0,0.0,0.0,0.00785718518009,-0.196407666766,-0.00337940418089,0.0,0.0,0.0,0.0,0.0,0.0,0.0,0.0,0.0,5.09437696704,0.00258963583224,8.64360841924,0.0,0.0,0.0,0.0,0.0,0.0,0.0,0.0,0.0
32224000000,124,32224000000,imu_link,7.75177521692e-06,-0.357177211268,0.000430872254909,0.93403653785,0.0,0.0,0.0,0.0,0.0,0.0,0.0,0.0,0.0,0.00811365523773,-0.195340585682,-0.00342772909181,0.0,0.0,0.0,0.0,0.0,0.0,0.0,0.0,0.0,5.09783044089,0.00284897458442,8.63705053107,0.0,0.0,0.0,0.0,0.0,0.0,0.0,0.0,0.0
32228000000,125,32228000000,imu_link,2.5883281422e-05,-0.357539968817,0.000430398087701,0.933897737863,0.0,0.0,0.0,0.0,0.0,0.0,0.0,0.0,0.0,0.00830545130005,-0.194206421111,-0.00342821687965,0.0,0.0,0.0,0.0,0.0,0.0,0.0,0.0,0.0,5.10042842996,0.00285308776437,8.62508846492,0.0,0.0,0.0,0.0,0.0,0.0,0.0,0.0,0.0
32232000000,126,32232000000,imu_link,4.38796254916e-05,-0.357900141062,0.00043001710882,0.93375976685,0.0,0.0,0.0,0.0,0.0,0.0,0.0,0.0,0.0,0.00825954238377,-0.192850990516,-0.00336075160688,0.0,0.0,0.0,0.0,0.0,0.0,0.0,0.0,0.0,5.10637206024,0.00294150683459,8.61716630704,0.0,0.0,0.0,0.0,0.0,0.0,0.0,0.0,0.0
32236000000,127,32236000000,imu_link,6.13299181184e-05,-0.358257407203,0.000429672523861,0.933622751332,0.0,0.0,0.0,0.0,0.0,0.0,0.0,0.0,0.0,0.00801171849062,-0.19132308454,-0.00324631325914,0.0,0.0,0.0,0.0,0.0,0.0,0.0,0.0,0.0,5.10900300769,0.00249902901098,8.60240497549,0.0,0.0,0.0,0.0,0.0,0.0,0.0,0.0,0.0
32240000000,128,32240000000,imu_link,7.75456584586e-05,-0.358611109798,0.000429253710017,0.93348694777,0.0,0.0,0.0,0.0,0.0,0.0,0.0,0.0,0.0,0.00742284727568,-0.18944222105,-0.00306019002691,0.0,0.0,0.0,0.0,0.0,0.0,0.0,0.0,0.0,5.11215624367,0.00220580464186,8.59046503157,0.0,0.0,0.0,0.0,0.0,0.0,0.0,0.0,0.0
32244000000,129,32244000000,imu_link,9.18915801269e-05,-0.358960268442,0.000428629405848,0.93335273799,0.0,0.0,0.0,0.0,0.0,0.0,0.0,0.0,0.0,0.00651418943786,-0.187035194038,-0.00282135064765,0.0,0.0,0.0,0.0,0.0,0.0,0.0,0.0,0.0,5.11334928129,0.00174054614839,8.57395532008,0.0,0.0,0.0,0.0,0.0,0.0,0.0,0.0,0.0
32248000000,130,32248000000,imu_link,0.000103776002392,-0.359304257529,0.000427652844659,0.933220368866,0.0,0.0,0.0,0.0,0.0,0.0,0.0,0.0,0.0,0.00530326594262,-0.184291810296,-0.00254458240654,0.0,0.0,0.0,0.0,0.0,0.0,0.0,0.0,0.0,5.11358570274,0.0012378015273,8.5593132157,0.0,0.0,0.0,0.0,0.0,0.0,0.0,0.0,0.0
32252000000,131,32252000000,imu_link,0.000113376192172,-0.359642388436,0.000426376004026,0.933090112363,0.0,0.0,0.0,0.0,0.0,0.0,0.0,0.0,0.0,0.00418461688841,-0.181178313888,-0.00227508430421,0.0,0.0,0.0,0.0,0.0,0.0,0.0,0.0,0.0,5.11610301362,0.000473152590647,8.54566401634,0.0,0.0,0.0,0.0,0.0,0.0,0.0,0.0,0.0
32256000000,132,32256000000,imu_link,0.000120953210092,-0.35997391188,0.000424758214016,0.932962264894,0.0,0.0,0.0,0.0,0.0,0.0,0.0,0.0,0.0,0.00318067812944,-0.177662026665,-0.00207123149383,0.0,0.0,0.0,0.0,0.0,0.0,0.0,0.0,0.0,5.1177096347,0.000109419153925,8.52696254205,0.0,0.0,0.0,0.0,0.0,0.0,0.0,0.0,0.0
32260000000,133,32260000000,imu_link,0.0001272929635,-0.360298262284,0.000422877389062,0.932837052848,0.0,0.0,0.0,0.0,0.0,0.0,0.0,0.0,0.0,0.00255753869612,-0.173841349335,-0.00197223435714,0.0,0.0,0.0,0.0,0.0,0.0,0.0,0.0,0.0,5.11976736885,0.000140723994322,8.51360493956,0.0,0.0,0.0,0.0,0.0,0.0,0.0,0.0,0.0
32264000000,134,32264000000,imu_link,0.00013347228688,-0.360615057956,0.000421001823832,0.932714632092,0.0,0.0,0.0,0.0,0.0,0.0,0.0,0.0,0.0,0.00248507838902,-0.169814799136,-0.00194195080609,0.0,0.0,0.0,0.0,0.0,0.0,0.0,0.0,0.0,5.1237421897,0.000130299211172,8.50531462843,0.0,0.0,0.0,0.0,0.0,0.0,0.0,0.0,0.0
32268000000,135,32268000000,imu_link,0.000140231668301,-0.360924115326,0.00041930484404,0.932595082281,0.0,0.0,0.0,0.0,0.0,0.0,0.0,0.0,0.0,0.00278923033275,-0.1656884421,-0.0019643757689,0.0,0.0,0.0,0.0,0.0,0.0,0.0,0.0,0.0,5.12604310506,0.000273236093932,8.49245489061,0.0,0.0,0.0,0.0,0.0,0.0,0.0,0.0,0.0
32272000000,136,32272000000,imu_link,0.000148034258403,-0.361225514584,0.000417922649894,0.932478381004,0.0,0.0,0.0,0.0,0.0,0.0,0.0,0.0,0.0,0.00333388867645,-0.161603626664,-0.00200698573567,0.0,0.0,0.0,0.0,0.0,0.0,0.0,0.0,0.0,5.12827237315,0.000502343438192,8.48143220237,0.0,0.0,0.0,0.0,0.0,0.0,0.0,0.0,0.0
32276000000,137,32276000000,imu_link,0.000156668648307,-0.361518868092,0.000416795263924,0.9323646871,0.0,0.0,0.0,0.0,0.0,0.0,0.0,0.0,0.0,0.00376918661638,-0.157309366866,-0.00203964177785,0.0,0.0,0.0,0.0,0.0,0.0,0.0,0.0,0.0,5.13077162594,0.000515368263514,8.46415436781,0.0,0.0,0.0,0.0,0.0,0.0,0.0,0.0,0.0
32280000000,138,32280000000,imu_link,0.000166176648368,-0.361803750105,0.000415921694128,0.932254174463,0.0,0.0,0.0,0.0,0.0,0.0,0.0,0.0,0.0,0.00422384416213,-0.152785223081,-0.00208055701053,0.0,0.0,0.0,0.0,0.0,0.0,0.0,0.0,0.0,5.13360484291,0.000192769567631,8.44865148564,0.0,0.0,0.0,0.0,0.0,0.0,0.0,0.0,0.0
32284000000,139,32284000000,imu_link,0.000176718293692,-0.362079785167,0.000415305547217,0.932146997777,0.0,0.0,0.0,0.0,0.0,0.0,0.0,0.0,0.0,0.00475378515255,-0.148058133008,-0.00214898241945,0.0,0.0,0.0,0.0,0.0,0.0,0.0,0.0,0.0,5.13614444183,-0.000112934435615,8.4349992324,0.0,0.0,0.0,0.0,0.0,0.0,0.0,0.0,0.0
32288000000,140,32288000000,imu_link,0.000188412420917,-0.362346766504,0.000414951249551,0.932043246379,0.0,0.0,0.0,0.0,0.0,0.0,0.0,0.0,0.0,0.00533990897029,-0.143218533208,-0.00223709787265,0.0,0.0,0.0,0.0,0.0,0.0,0.0,0.0,0.0,5.13780286888,-0.000207084751421,8.42151210651,0.0,0.0,0.0,0.0,0.0,0.0,0.0,0.0,0.0
32292000000,141,32292000000,imu_link,0.000201148203596,-0.362604856319,0.00041479531534,0.931942866091,0.0,0.0,0.0,0.0,0.0,0.0,0.0,0.0,0.0,0.00586280831381,-0.138464333515,-0.00233491351352,0.0,0.0,0.0,0.0,0.0,0.0,0.0,0.0,0.0,5.13965221097,-7.40653654281e-05,8.41229285767,0.0,0.0,0.0,0.0,0.0,0.0,0.0,0.0,0.0
32296000000,142,32296000000,imu_link,0.000214654875385,-0.362854490108,0.000414740058057,0.931845695876,0.0,0.0,0.0,0.0,0.0,0.0,0.0,0.0,0.0,0.00624170449856,-0.133942221902,-0.00242928122536,0.0,0.0,0.0,0.0,0.0,0.0,0.0,0.0,0.0,5.14067943338,3.85031723272e-05,8.40219014448,0.0,0.0,0.0,0.0,0.0,0.0,0.0,0.0,0.0
32300000000,143,32300000000,imu_link,0.000228801147304,-0.363096010948,0.000414779826366,0.931751609841,0.0,0.0,0.0,0.0,0.0,0.0,0.0,0.0,0.0,0.00655830040529,-0.12960278149,-0.00250255782604,0.0,0.0,0.0,0.0,0.0,0.0,0.0,0.0,0.0,5.14444508626,0.000107237664739,8.39488977426,0.0,0.0,0.0,0.0,0.0,0.0,0.0,0.0,0.0
32304000000,144,32304000000,imu_link,0.000243197439508,-0.363329608825,0.000414912500441,0.931660541213,0.0,0.0,0.0,0.0,0.0,0.0,0.0,0.0,0.0,0.00669294360303,-0.125363900899,-0.00250619812741,0.0,0.0,0.0,0.0,0.0,0.0,0.0,0.0,0.0,5.14847862713,0.000382160295615,8.38908146892,0.0,0.0,0.0,0.0,0.0,0.0,0.0,0.0,0.0
32308000000,145,32308000000,imu_link,0.000257459295944,-0.363555458466,0.000415168623728,0.93157242873,0.0,0.0,0.0,0.0,0.0,0.0,0.0,0.0,0.0,0.00665399367151,-0.121217467772,-0.00242582493853,0.0,0.0,0.0,0.0,0.0,0.0,0.0,0.0,0.0,5.15122627835,0.00069807415313,8.38090951521,0.0,0.0,0.0,0.0,0.0,0.0,0.0,0.0,0.0
32312000000,146,32312000000,imu_link,0.000270932678779,-0.363773594565,0.000415466240597,0.931487265549,0.0,0.0,0.0,0.0,0.0,0.0,0.0,0.0,0.0,0.00629549767117,-0.117088318769,-0.00226477604118,0.0,0.0,0.0,0.0,0.0,0.0,0.0,0.0,0.0,5.15415646635,0.000943079806842,8.37257672958,0.0,0.0,0.0,0.0,0.0,0.0,0.0,0.0,0.0
32316000000,147,32316000000,imu_link,0.00028333300161,-0.363984058594,0.000415728964469,0.931405041849,0.0,0.0,0.0,0.0,0.0,0.0,0.0,0.0,0.0,0.00579057574908,-0.112980230382,-0.00208750171048,0.0,0.0,0.0,0.0,0.0,0.0,0.0,0.0,0.0,5.15612049041,0.00110694472967,8.36017587426,0.0,0.0,0.0,0.0,0.0,0.0,0.0,0.0,0.0
32320000000,148,32320000000,imu_link,0.000294698892557,-0.364186677384,0.000415937986483,0.931325831363,0.0,0.0,0.0,0.0,0.0,0.0,0.0,0.0,0.0,0.00530026875545,-0.108778093898,-0.00192599018316,0.0,0.0,0.0,0.0,0.0,0.0,0.0,0.0,0.0,5.15901336998,0.00109025478556,8.34848111721,0.0,0.0,0.0,0.0,0.0,0.0,0.0,0.0,0.0
32324000000,149,32324000000,imu_link,0.000305072730416,-0.364381004733,0.000416099667846,0.931249814594,0.0,0.0,0.0,0.0,0.0,0.0,0.0,0.0,0.0,0.00483093975455,-0.104335323019,-0.00176927463645,0.0,0.0,0.0,0.0,0.0,0.0,0.0,0.0,0.0,5.16452290232,0.000808748065512,8.3379829064,0.0,0.0,0.0,0.0,0.0,0.0,0.0,0.0,0.0
32328000000,150,32328000000,imu_link,0.000314334979556,-0.364566784631,0.000416186829808,0.931177097831,0.0,0.0,0.0,0.0,0.0,0.0,0.0,0.0,0.0,0.00430105453814,-0.0997539669995,-0.00160344217466,0.0,0.0,0.0,0.0,0.0,0.0,0.0,0.0,0.0,5.16852688712,0.000173777483059,8.32684620833,0.0,0.0,0.0,0.0,0.0,0.0,0.0,0.0,0.0
32332000000,151,32332000000,imu_link,0.000322235333977,-0.364744053873,0.000416173773393,0.931107672683,0.0,0.0,0.0,0.0,0.0,0.0,0.0,0.0,0.0,0.00364995746428,-0.095191228487,-0.00140387446913,0.0,0.0,0.0,0.0,0.0,0.0,0.0,0.0,0.0,5.17251880118,-0.000285219144888,8.31866892762,0.0,0.0,0.0,0.0,0.0,0.0,0.0,0.0,0.0
32336000000,152,32336000000,imu_link,0.000328618475779,-0.364912864836,0.000416033400937,0.931041524318,0.0,0.0,0.0,0.0,0.0,0.0,0.0,0.0,0.0,0.00292162651484,-0.0906555551701,-0.00118849442794,0.0,0.0,0.0,0.0,0.0,0.0,0.0,0.0,0.0,5.17568934133,-0.000695819311905,8.30874561952,0.0,0.0,0.0,0.0,0.0,0.0,0.0,0.0,0.0
32340000000,153,32340000000,imu_link,0.000333552167307,-0.36507326545,0.000415762726718,0.930978639249,0.0,0.0,0.0,0.0,0.0,0.0,0.0,0.0,0.0,0.00222431621254,-0.08614467328,-0.000986751790968,0.0,0.0,0.0,0.0,0.0,0.0,0.0,0.0,0.0,5.17920724663,-0.00110744688267,8.29980823976,0.0,0.0,0.0,0.0,0.0,0.0,0.0,0.0,0.0
32344000000,154,32344000000,imu_link,0.000337419817769,-0.365225126311,0.000415406970884,0.930919073119,0.0,0.0,0.0,0.0,0.0,0.0,0.0,0.0,0.0,0.00171377669573,-0.0815634742978,-0.000833878996258,0.0,0.0,0.0,0.0,0.0,0.0,0.0,0.0,0.0,5.18458772482,-0.00142377061889,8.29313489269,0.0,0.0,0.0,0.0,0.0,0.0,0.0,0.0,0.0
32348000000,155,32348000000,imu_link,0.00034055426345,-0.365368014502,0.000415006204057,0.930863000539,0.0,0.0,0.0,0.0,0.0,0.0,0.0,0.0,0.0,0.00136555421725,-0.0767489482604,-0.000723176785557,0.0,0.0,0.0,0.0,0.0,0.0,0.0,0.0,0.0,5.19076727978,-0.00142712058399,8.28538914475,0.0,0.0,0.0,0.0,0.0,0.0,0.0,0.0,0.0
32352000000,156,32352000000,imu_link,0.000343181661976,-0.365501817714,0.000414621746858,0.930810470269,0.0,0.0,0.0,0.0,0.0,0.0,0.0,0.0,0.0,0.00113381998971,-0.0718732815104,-0.000625238367691,0.0,0.0,0.0,0.0,0.0,0.0,0.0,0.0,0.0,5.19666687568,-0.00113574041051,8.28137961754,0.0,0.0,0.0,0.0,0.0,0.0,0.0,0.0,0.0
32356000000,157,32356000000,imu_link,0.000345827929081,-0.365626818383,0.00041440379132,0.930761375623,0.0,0.0,0.0,0.0,0.0,0.0,0.0,0.0,0.0,0.00117426519563,-0.0671486436844,-0.00055341854946,0.0,0.0,0.0,0.0,0.0,0.0,0.0,0.0,0.0,5.20128365662,-0.00102722057587,8.27708609034,0.0,0.0,0.0,0.0,0.0,0.0,0.0,0.0,0.0
32360000000,158,32360000000,imu_link,0.000349240407934,-0.36574372929,0.00041453834731,0.930715440225,0.0,0.0,0.0,0.0,0.0,0.0,0.0,0.0,0.0,0.00159641911757,-0.0628063689862,-0.000531493707938,0.0,0.0,0.0,0.0,0.0,0.0,0.0,0.0,0.0,5.20654745005,-0.00103897392445,8.27790033408,0.0,0.0,0.0,0.0,0.0,0.0,0.0,0.0,0.0
32364000000,159,32364000000,imu_link,0.000354206364365,-0.365853521725,0.00041520572517,0.930672285385,0.0,0.0,0.0,0.0,0.0,0.0,0.0,0.0,0.0,0.0024177699331,-0.058985476824,-0.000569447631407,0.0,0.0,0.0,0.0,0.0,0.0,0.0,0.0,0.0,5.21229882083,-0.00096057293255,8.28137432017,0.0,0.0,0.0,0.0,0.0,0.0,0.0,0.0,0.0
32368000000,160,32368000000,imu_link,0.000360999774208,-0.365956994454,0.000416440895071,0.930631599757,0.0,0.0,0.0,0.0,0.0,0.0,0.0,0.0,0.0,0.0033728891018,-0.0555932822028,-0.000641155462415,0.0,0.0,0.0,0.0,0.0,0.0,0.0,0.0,0.0,5.21787942634,-0.000852550027099,8.2815968536,0.0,0.0,0.0,0.0,0.0,0.0,0.0,0.0,0.0
32372000000,161,32372000000,imu_link,0.000369707442368,-0.366054523605,0.000418207548505,0.930593237761,0.0,0.0,0.0,0.0,0.0,0.0,0.0,0.0,0.0,0.00436169196201,-0.0524027701229,-0.000745672529839,0.0,0.0,0.0,0.0,0.0,0.0,0.0,0.0,0.0,5.22442974716,-0.000701729773165,8.27971005442,0.0,0.0,0.0,0.0,0.0,0.0,0.0,0.0,0.0
32376000000,162,32376000000,imu_link,0.000380247241952,-0.366146407195,0.000420428739493,0.930557084305,0.0,0.0,0.0,0.0,0.0,0.0,0.0,0.0,0.0,0.00529814153612,-0.0493719852704,-0.000871013157525,0.0,0.0,0.0,0.0,0.0,0.0,0.0,0.0,0.0,5.22913634988,-0.000788247769945,8.27307550108,0.0,0.0,0.0,0.0,0.0,0.0,0.0,0.0,0.0
32380000000,163,32380000000,imu_link,0.000392604905579,-0.366232985142,0.000423127574237,0.930523007463,0.0,0.0,0.0,0.0,0.0,0.0,0.0,0.0,0.0,0.00623211895059,-0.0465235024271,-0.000983023223983,0.0,0.0,0.0,0.0,0.0,0.0,0.0,0.0,0.0,5.23476595453,-0.000771269666459,8.26831580279,0.0,0.0,0.0,0.0,0.0,0.0,0.0,0.0,0.0
32384000000,164,32384000000,imu_link,0.000406442595096,-0.366314569937,0.00042623959324,0.930490886025,0.0,0.0,0.0,0.0,0.0,0.0,0.0,0.0,0.0,0.0069970513943,-0.0438425463007,-0.00106319550449,0.0,0.0,0.0,0.0,0.0,0.0,0.0,0.0,0.0,5.24027881843,-0.000635569437077,8.26299111675,0.0,0.0,0.0,0.0,0.0,0.0,0.0,0.0,0.0
32388000000,165,32388000000,imu_link,0.000420751926842,-0.366391514382,0.000429533990261,0.930460583075,0.0,0.0,0.0,0.0,0.0,0.0,0.0,0.0,0.0,0.00725050404731,-0.0413506386256,-0.00106606024613,0.0,0.0,0.0,0.0,0.0,0.0,0.0,0.0,0.0,5.24708108627,-0.000392706132323,8.26182797303,0.0,0.0,0.0,0.0,0.0,0.0,0.0,0.0,0.0
32392000000,166,32392000000,imu_link,0.000434714705265,-0.366464006962,0.000432807614746,0.930432026159,0.0,0.0,0.0,0.0,0.0,0.0,0.0,0.0,0.0,0.00708606029024,-0.0389595604834,-0.00101354871551,0.0,0.0,0.0,0.0,0.0,0.0,0.0,0.0,0.0,5.25474430098,-0.000225620299169,8.26043370048,0.0,0.0,0.0,0.0,0.0,0.0,0.0,0.0,0.0
32396000000,167,32396000000,imu_link,0.000447986644737,-0.366531878106,0.000435934423377,0.93040528352,0.0,0.0,0.0,0.0,0.0,0.0,0.0,0.0,0.0,0.0067383753305,-0.0364770426086,-0.000956663116236,0.0,0.0,0.0,0.0,0.0,0.0,0.0,0.0,0.0,5.2607088261,-0.000195637836637,8.25215502791,0.0,0.0,0.0,0.0,0.0,0.0,0.0,0.0,0.0
32400000000,168,32400000000,imu_link,0.000460603894852,-0.366594860527,0.000438876316758,0.930380461675,0.0,0.0,0.0,0.0,0.0,0.0,0.0,0.0,0.0,0.00640055877868,-0.0338506785952,-0.000924217630068,0.0,0.0,0.0,0.0,0.0,0.0,0.0,0.0,0.0,5.26644119408,-4.94490959215e-05,8.24416123647,0.0,0.0,0.0,0.0,0.0,0.0,0.0,0.0,0.0
32404000000,169,32404000000,imu_link,0.000472757971519,-0.366652781785,0.000441647363049,0.930357629655,0.0,0.0,0.0,0.0,0.0,0.0,0.0,0.0,0.0,0.00615443153138,-0.0311314831842,-0.000920397763391,0.0,0.0,0.0,0.0,0.0,0.0,0.0,0.0,0.0,5.27142217554,1.61710876823e-05,8.23499610725,0.0,0.0,0.0,0.0,0.0,0.0,0.0,0.0,0.0
32408000000,170,32408000000,imu_link,0.000484530955691,-0.366705855271,0.000444280435255,0.9303367044,0.0,0.0,0.0,0.0,0.0,0.0,0.0,0.0,0.0,0.00595248086623,-0.0285267900045,-0.000916283043269,0.0,0.0,0.0,0.0,0.0,0.0,0.0,0.0,0.0,5.27681393818,9.68781231599e-05,8.22952984381,0.0,0.0,0.0,0.0,0.0,0.0,0.0,0.0,0.0
32412000000,171,32412000000,imu_link,0.000495667039192,-0.366754846674,0.000446710878564,0.9303173852,0.0,0.0,0.0,0.0,0.0,0.0,0.0,0.0,0.0,0.00561957993117,-0.0263333673018,-0.000895107707006,0.0,0.0,0.0,0.0,0.0,0.0,0.0,0.0,0.0,5.28365670223,0.000167947034186,8.23134958819,0.0,0.0,0.0,0.0,0.0,0.0,0.0,0.0,0.0
32416000000,172,32416000000,imu_link,0.000505818535869,-0.366800607255,0.000448851015912,0.930299337417,0.0,0.0,0.0,0.0,0.0,0.0,0.0,0.0,0.0,0.00510876177186,-0.0245972247355,-0.000850679738148,0.0,0.0,0.0,0.0,0.0,0.0,0.0,0.0,0.0,5.29029434813,-5.83722072805e-05,8.23182439435,0.0,0.0,0.0,0.0,0.0,0.0,0.0,0.0,0.0
32420000000,173,32420000000,imu_link,0.000514698349769,-0.366843531745,0.000450671015028,0.930282406153,0.0,0.0,0.0,0.0,0.0,0.0,0.0,0.0,0.0,0.00445887961244,-0.0230730437055,-0.000767332771578,0.0,0.0,0.0,0.0,0.0,0.0,0.0,0.0,0.0,5.29707441454,-0.000439252450765,8.23054982113,0.0,0.0,0.0,0.0,0.0,0.0,0.0,0.0,0.0
32424000000,174,32424000000,imu_link,0.000522295121799,-0.366883810631,0.000452201423141,0.930266516767,0.0,0.0,0.0,0.0,0.0,0.0,0.0,0.0,0.0,0.00380929470078,-0.0216511469153,-0.000667611289264,0.0,0.0,0.0,0.0,0.0,0.0,0.0,0.0,0.0,5.30252403934,-0.000895855351619,8.22460728197,0.0,0.0,0.0,0.0,0.0,0.0,0.0,0.0,0.0
32428000000,175,32428000000,imu_link,0.000528779047368,-0.366921239725,0.000453494290263,0.930251750106,0.0,0.0,0.0,0.0,0.0,0.0,0.0,0.0,0.0,0.00324844897102,-0.0201194691575,-0.000574954894767,0.0,0.0,0.0,0.0,0.0,0.0,0.0,0.0,0.0,5.30764985162,-0.00128402703962,8.21550296883,0.0,0.0,0.0,0.0,0.0,0.0,0.0,0.0,0.0
32432000000,176,32432000000,imu_link,0.000534225395078,-0.366955586628,0.000454562759993,0.930238198215,0.0,0.0,0.0,0.0,0.0,0.0,0.0,0.0,0.0,0.0027250542809,-0.0184628239397,-0.000490063595216,0.0,0.0,0.0,0.0,0.0,0.0,0.0,0.0,0.0,5.31361628266,-0.00156868453485,8.20830823167,0.0,0.0,0.0,0.0,0.0,0.0,0.0,0.0,0.0
32436000000,177,32436000000,imu_link,0.000538673537121,-0.366986537539,0.000455430753264,0.930225985274,0.0,0.0,0.0,0.0,0.0,0.0,0.0,0.0,0.0,0.00222440097674,-0.0166374427994,-0.000401371882542,0.0,0.0,0.0,0.0,0.0,0.0,0.0,0.0,0.0,5.31888680991,-0.00179092039525,8.19813026895,0.0,0.0,0.0,0.0,0.0,0.0,0.0,0.0,0.0
32440000000,178,32440000000,imu_link,0.000541975102437,-0.367013772198,0.000456094091904,0.930215238135,0.0,0.0,0.0,0.0,0.0,0.0,0.0,0.0,0.0,0.00165401194978,-0.014639794375,-0.000287505008544,0.0,0.0,0.0,0.0,0.0,0.0,0.0,0.0,0.0,5.32464641156,-0.00188626090072,8.1886174565,0.0,0.0,0.0,0.0,0.0,0.0,0.0,0.0,0.0
32444000000,179,32444000000,imu_link,0.000544077769706,-0.367037185578,0.000456584516004,0.930205998644,0.0,0.0,0.0,0.0,0.0,0.0,0.0,0.0,0.0,0.00106512720151,-0.012585598619,-0.000149302164166,0.0,0.0,0.0,0.0,0.0,0.0,0.0,0.0,0.0,5.33081891313,-0.00191264013121,8.18262007023,0.0,0.0,0.0,0.0,0.0,0.0,0.0,0.0,0.0
32448000000,180,32448000000,imu_link,0.000545285863535,-0.36705704174,0.000457023280888,0.930198162706,0.0,0.0,0.0,0.0,0.0,0.0,0.0,0.0,0.0,0.000640008249412,-0.0106733569183,-1.04462840883e-05,0.0,0.0,0.0,0.0,0.0,0.0,0.0,0.0,0.0,5.33710857948,-0.00200753064084,8.17973799009,0.0,0.0,0.0,0.0,0.0,0.0,0.0,0.0,0.0
32452000000,181,32452000000,imu_link,0.00054620202448,-0.367073894313,0.000457638722219,0.930191511649,0.0,0.0,0.0,0.0,0.0,0.0,0.0,0.0,0.0,0.000537019005845,-0.00905881654625,0.000124214113822,0.0,0.0,0.0,0.0,0.0,0.0,0.0,0.0,0.0,5.34390901925,-0.00213144985723,8.17992515686,0.0,0.0,0.0,0.0,0.0,0.0,0.0,0.0,0.0
32456000000,182,32456000000,imu_link,0.000547313235826,-0.367088360971,0.000458588693905,0.930185801539,0.0,0.0,0.0,0.0,0.0,0.0,0.0,0.0,0.0,0.000689423769484,-0.00777639220161,0.000243136903638,0.0,0.0,0.0,0.0,0.0,0.0,0.0,0.0,0.0,5.34943923566,-0.00214445252149,8.176344452,0.0,0.0,0.0,0.0,0.0,0.0,0.0,0.0,0.0
32460000000,183,32460000000,imu_link,0.000548773692191,-0.367100823631,0.000459853350788,0.930180881696,0.0,0.0,0.0,0.0,0.0,0.0,0.0,0.0,0.0,0.000909857028731,-0.00669929188661,0.000324663253092,0.0,0.0,0.0,0.0,0.0,0.0,0.0,0.0,0.0,5.35579268474,-0.00202626361804,8.17319934665,0.0,0.0,0.0,0.0,0.0,0.0,0.0,0.0,0.0
32464000000,184,32464000000,imu_link,0.000550310314364,-0.367111507456,0.000461327319639,0.930176663559,0.0,0.0,0.0,0.0,0.0,0.0,0.0,0.0,0.0,0.000983916778574,-0.00574313458965,0.000407382553454,0.0,0.0,0.0,0.0,0.0,0.0,0.0,0.0,0.0,5.36205716606,-0.0018990269923,8.16875557623,0.0,0.0,0.0,0.0,0.0,0.0,0.0,0.0,0.0
32468000000,185,32468000000,imu_link,0.000551538521357,-0.367120618885,0.000462910633719,0.930173065998,0.0,0.0,0.0,0.0,0.0,0.0,0.0,0.0,0.0,0.000860739362468,-0.00489782015365,0.000514273327013,0.0,0.0,0.0,0.0,0.0,0.0,0.0,0.0,0.0,5.3678629991,-0.00193721370236,8.16365505027,0.0,0.0,0.0,0.0,0.0,0.0,0.0,0.0,0.0
32472000000,186,32472000000,imu_link,0.000551870576556,-0.36712841056,0.000464474118708,0.930169989767,0.0,0.0,0.0,0.0,0.0,0.0,0.0,0.0,0.0,0.000440473094986,-0.00418812272266,0.000669064372727,0.0,0.0,0.0,0.0,0.0,0.0,0.0,0.0,0.0,5.37439784142,-0.00192934314725,8.16121968985,0.0,0.0,0.0,0.0,0.0,0.0,0.0,0.0,0.0
32476000000,187,32476000000,imu_link,0.000551139792926,-0.36713491382,0.000465954727716,0.930167422664,0.0,0.0,0.0,0.0,0.0,0.0,0.0,0.0,0.0,-6.88916283987e-05,-0.00349521847186,0.000825145404428,0.0,0.0,0.0,0.0,0.0,0.0,0.0,0.0,0.0,5.37913162498,-0.0020771009745,8.15216550484,0.0,0.0,0.0,0.0,0.0,0.0,0.0,0.0,0.0
32480000000,188,32480000000,imu_link,0.000549533740479,-0.367139988933,0.000467353523729,0.930165419761,0.0,0.0,0.0,0.0,0.0,0.0,0.0,0.0,0.0,-0.000490805852746,-0.00272726031198,0.00094724138363,0.0,0.0,0.0,0.0,0.0,0.0,0.0,0.0,0.0,5.38478996007,-0.00228084010728,8.14470056064,0.0,0.0,0.0,0.0,0.0,0.0,0.0,0.0,0.0
32484000000,189,32484000000,imu_link,0.000547418262954,-0.367143275185,0.000468737369441,0.930164123209,0.0,0.0,0.0,0.0,0.0,0.0,0.0,0.0,0.0,-0.000730251141318,-0.00176551278042,0.00103314683908,0.0,0.0,0.0,0.0,0.0,0.0,0.0,0.0,0.0,5.39046176202,-0.00244992242335,8.13568774298,0.0,0.0,0.0,0.0,0.0,0.0,0.0,0.0,0.0
32488000000,190,32488000000,imu_link,0.000545073264716,-0.367144395615,0.000470154111526,0.930163681628,0.0,0.0,0.0,0.0,0.0,0.0,0.0,0.0,0.0,-0.00083068467913,-0.000601216146713,0.00108978666095,0.0,0.0,0.0,0.0,0.0,0.0,0.0,0.0,0.0,5.39642533443,-0.00250046144064,8.12768767923,0.0,0.0,0.0,0.0,0.0,0.0,0.0,0.0,0.0
32492000000,191,32492000000,imu_link,0.00054267985702,-0.367143421005,0.000471622458113,0.930164066971,0.0,0.0,0.0,0.0,0.0,0.0,0.0,0.0,0.0,-0.000843458758982,0.000524974436992,0.0011219082421,0.0,0.0,0.0,0.0,0.0,0.0,0.0,0.0,0.0,5.40214171348,-0.00241303107965,8.12211866267,0.0,0.0,0.0,0.0,0.0,0.0,0.0,0.0,0.0
32496000000,192,32496000000,imu_link,0.000540534848209,-0.367140586943,0.000473199733256,0.930165186041,0.0,0.0,0.0,0.0,0.0,0.0,0.0,0.0,0.0,-0.000707697308506,0.00152443469999,0.00112629238379,0.0,0.0,0.0,0.0,0.0,0.0,0.0,0.0,0.0,5.40765945563,-0.00235852183597,8.11687634124,0.0,0.0,0.0,0.0,0.0,0.0,0.0,0.0,0.0
32500000000,193,32500000000,imu_link,0.000538797735945,-0.367136029833,0.00047492203928,0.930166984871,0.0,0.0,0.0,0.0,0.0,0.0,0.0,0.0,0.0,-0.00049114440716,0.00245052098865,0.00111823951827,0.0,0.0,0.0,0.0,0.0,0.0,0.0,0.0,0.0,5.41379636303,-0.00226844749142,8.11281902008,0.0,0.0,0.0,0.0,0.0,0.0,0.0,0.0,0.0
32504000000,194,32504000000,imu_link,0.000537514977423,-0.367129848197,0.00047680844709,0.930169424511,0.0,0.0,0.0,0.0,0.0,0.0,0.0,0.0,0.0,-0.000249495014958,0.00332362921927,0.00111056592311,0.0,0.0,0.0,0.0,0.0,0.0,0.0,0.0,0.0,5.41967416416,-0.00214258062099,8.10768177845,0.0,0.0,0.0,0.0,0.0,0.0,0.0,0.0,0.0
32508000000,195,32508000000,imu_link,0.000536634442459,-0.367121935161,0.000478835914622,0.930172547145,0.0,0.0,0.0,0.0,0.0,0.0,0.0,0.0,0.0,-3.63041571983e-05,0.00425419298741,0.00110170835085,0.0,0.0,0.0,0.0,0.0,0.0,0.0,0.0,0.0,5.42574275447,-0.00203308841921,8.10176356635,0.0,0.0,0.0,0.0,0.0,0.0,0.0,0.0,0.0
32512000000,196,32512000000,imu_link,0.000536045193683,-0.367112299958,0.000480953624895,0.930176349172,0.0,0.0,0.0,0.0,0.0,0.0,0.0,0.0,0.0,0.000115964121168,0.00517981388458,0.00108958549052,0.0,0.0,0.0,0.0,0.0,0.0,0.0,0.0,0.0,5.43224538904,-0.00194716243702,8.09831252236,0.0,0.0,0.0,0.0,0.0,0.0,0.0,0.0,0.0
32516000000,197,32516000000,imu_link,0.000535503894006,-0.36710118953,0.000483076869522,0.930180733255,0.0,0.0,0.0,0.0,0.0,0.0,0.0,0.0,0.0,0.000139479297303,0.0059727532638,0.00108282273668,0.0,0.0,0.0,0.0,0.0,0.0,0.0,0.0,0.0,5.43782935684,-0.00189594633938,8.09406049751,0.0,0.0,0.0,0.0,0.0,0.0,0.0,0.0,0.0
32520000000,198,32520000000,imu_link,0.000534832807356,-0.367089039298,0.000485202367575,0.930185527602,0.0,0.0,0.0,0.0,0.0,0.0,0.0,0.0,0.0,7.96715479201e-05,0.00653169218413,0.00110731575517,0.0,0.0,0.0,0.0,0.0,0.0,0.0,0.0,0.0,5.44424453422,-0.00186244329647,8.09319877088,0.0,0.0,0.0,0.0,0.0,0.0,0.0,0.0,0.0
32524000000,199,32524000000,imu_link,0.00053368702912,-0.367076445757,0.000487310137111,0.930190496983,0.0,0.0,0.0,0.0,0.0,0.0,0.0,0.0,0.0,-0.000144297305243,0.0067701093064,0.00118603637757,0.0,0.0,0.0,0.0,0.0,0.0,0.0,0.0,0.0,5.451561691,-0.00181427629332,8.09565881789,0.0,0.0,0.0,0.0,0.0,0.0,0.0,0.0,0.0
32528000000,200,32528000000,imu_link,0.000531838220795,-0.367063881986,0.00048933307934,0.93019545486,0.0,0.0,0.0,0.0,0.0,0.0,0.0,0.0,0.0,-0.000486846496977,0.00675430036857,0.00127562724052,0.0,0.0,0.0,0.0,0.0,0.0,0.0,0.0,0.0,5.45791833003,-0.00184149620279,8.0942733858,0.0,0.0,0.0,0.0,0.0,0.0,0.0,0.0,0.0
32532000000,201,32532000000,imu_link,0.000529216347508,-0.367051616227,0.000491224270438,0.930200295449,0.0,0.0,0.0,0.0,0.0,0.0,0.0,0.0,0.0,-0.000870619518814,0.00659432367786,0.0013563401455,0.0,0.0,0.0,0.0,0.0,0.0,0.0,0.0,0.0,5.46465742415,-0.00189898275325,8.09269914325,0.0,0.0,0.0,0.0,0.0,0.0,0.0,0.0,0.0
32536000000,202,32536000000,imu_link,0.000525716699184,-0.367039652564,0.000492950315672,0.930205017223,0.0,0.0,0.0,0.0,0.0,0.0,0.0,0.0,0.0,-0.00130922410519,0.00643218507756,0.00144073427215,0.0,0.0,0.0,0.0,0.0,0.0,0.0,0.0,0.0,5.4698127992,-0.00193556976881,8.08513437708,0.0,0.0,0.0,0.0,0.0,0.0,0.0,0.0,0.0
32540000000,203,32540000000,imu_link,0.000521172327066,-0.367027841633,0.000494501348867,0.93020967922,0.0,0.0,0.0,0.0,0.0,0.0,0.0,0.0,0.0,-0.00182726787321,0.00635038995076,0.00155111814395,0.0,0.0,0.0,0.0,0.0,0.0,0.0,0.0,0.0,5.47532443619,-0.00197724098302,8.07781498328,0.0,0.0,0.0,0.0,0.0,0.0,0.0,0.0,0.0
32544000000,204,32544000000,imu_link,0.000515414229386,-0.367015979016,0.000495881804364,0.930214362175,0.0,0.0,0.0,0.0,0.0,0.0,0.0,0.0,0.0,-0.00242307357078,0.00637853153185,0.00169449851673,0.0,0.0,0.0,0.0,0.0,0.0,0.0,0.0,0.0,5.48032098438,-0.00204453523573,8.06891831664,0.0,0.0,0.0,0.0,0.0,0.0,0.0,0.0,0.0
32548000000,205,32548000000,imu_link,0.000508348515029,-0.367003857718,0.000497110354318,0.930219147773,0.0,0.0,0.0,0.0,0.0,0.0,0.0,0.0,0.0,-0.00305909367227,0.00651796694093,0.00186371215156,0.0,0.0,0.0,0.0,0.0,0.0,0.0,0.0,0.0,5.48567961806,-0.00215092246672,8.06110488808,0.0,0.0,0.0,0.0,0.0,0.0,0.0,0.0,0.0
32552000000,206,32552000000,imu_link,0.000500076246048,-0.366991498216,0.000498211254384,0.930224027827,0.0,0.0,0.0,0.0,0.0,0.0,0.0,0.0,0.0,-0.00364366258174,0.00664635775757,0.00202566204518,0.0,0.0,0.0,0.0,0.0,0.0,0.0,0.0,0.0,5.49188906316,-0.00229772784287,8.05715420054,0.0,0.0,0.0,0.0,0.0,0.0,0.0,0.0,0.0
32556000000,207,32556000000,imu_link,0.000490866517628,-0.366979116376,0.000499187081586,0.930228916991,0.0,0.0,0.0,0.0,0.0,0.0,0.0,0.0,0.0,-0.00410263328146,0.00665862168769,0.00213950112065,0.0,0.0,0.0,0.0,0.0,0.0,0.0,0.0,0.0,5.49751977239,-0.00246368663602,8.0533000917,0.0,0.0,0.0,0.0,0.0,0.0,0.0,0.0,0.0
32560000000,208,32560000000,imu_link,0.000481139721599,-0.366967026737,0.000500096484792,0.930233690906,0.0,0.0,0.0,0.0,0.0,0.0,0.0,0.0,0.0,-0.00435536165757,0.00650168015289,0.00220358334842,0.0,0.0,0.0,0.0,0.0,0.0,0.0,0.0,0.0,5.50304627127,-0.00263503780195,8.049912298,0.0,0.0,0.0,0.0,0.0,0.0,0.0,0.0,0.0
32564000000,209,32564000000,imu_link,0.000471442986379,-0.366955501488,0.00050110047979,0.930238241832,0.0,0.0,0.0,0.0,0.0,0.0,0.0,0.0,0.0,-0.00432411131551,0.00619827380152,0.00224225545392,0.0,0.0,0.0,0.0,0.0,0.0,0.0,0.0,0.0,5.50956711799,-0.00274906661727,8.04891497274,0.0,0.0,0.0,0.0,0.0,0.0,0.0,0.0,0.0
32568000000,210,32568000000,imu_link,0.000462213088211,-0.366944815892,0.000502304077522,0.930242460942,0.0,0.0,0.0,0.0,0.0,0.0,0.0,0.0,0.0,-0.00407048597367,0.00574678413812,0.00224972135083,0.0,0.0,0.0,0.0,0.0,0.0,0.0,0.0,0.0,5.51556940113,-0.0027636687081,8.04635674156,0.0,0.0,0.0,0.0,0.0,0.0,0.0,0.0,0.0
32572000000,211,32572000000,imu_link,0.00045364808503,-0.366934907209,0.00050372397924,0.930246372923,0.0,0.0,0.0,0.0,0.0,0.0,0.0,0.0,0.0,-0.0037216675302,0.00532895847743,0.00222859572913,0.0,0.0,0.0,0.0,0.0,0.0,0.0,0.0,0.0,5.52077385832,-0.00267694363519,8.03938982126,0.0,0.0,0.0,0.0,0.0,0.0,0.0,0.0,0.0
32576000000,212,32576000000,imu_link,0.000445708054881,-0.366925479163,0.000505320700314,0.930250094725,0.0,0.0,0.0,0.0,0.0,0.0,0.0,0.0,0.0,-0.00339861540234,0.00507039446402,0.00219633321867,0.0,0.0,0.0,0.0,0.0,0.0,0.0,0.0,0.0,5.52588605536,-0.00251125472581,8.03078324355,0.0,0.0,0.0,0.0,0.0,0.0,0.0,0.0,0.0
32580000000,213,32580000000,imu_link,0.000438172454753,-0.366916112417,0.000507014975288,0.930253791924,0.0,0.0,0.0,0.0,0.0,0.0,0.0,0.0,0.0,-0.00319261736858,0.00503728811615,0.00216753001915,0.0,0.0,0.0,0.0,0.0,0.0,0.0,0.0,0.0,5.53157507688,-0.00230122809989,8.02362230451,0.0,0.0,0.0,0.0,0.0,0.0,0.0,0.0,0.0
32584000000,214,32584000000,imu_link,0.000430817401502,-0.366906677262,0.000508719108814,0.930257515843,0.0,0.0,0.0,0.0,0.0,0.0,0.0,0.0,0.0,-0.00310682004082,0.00507396469101,0.00213897095652,0.0,0.0,0.0,0.0,0.0,0.0,0.0,0.0,0.0,5.53681684639,-0.00208623308168,8.01754388221,0.0,0.0,0.0,0.0,0.0,0.0,0.0,0.0,0.0
32588000000,215,32588000000,imu_link,0.000423458146779,-0.366897145718,0.000510382395839,0.93026127763,0.0,0.0,0.0,0.0,0.0,0.0,0.0,0.0,0.0,-0.0031162513336,0.00512573792569,0.00212071245267,0.0,0.0,0.0,0.0,0.0,0.0,0.0,0.0,0.0,5.54181330033,-0.00195106077944,8.01150555725,0.0,0.0,0.0,0.0,0.0,0.0,0.0,0.0,0.0
32592000000,216,32592000000,imu_link,0.000415906864146,-0.366887716387,0.000511947686185,0.930264999071,0.0,0.0,0.0,0.0,0.0,0.0,0.0,0.0,0.0,-0.0032235642901,0.00507082248954,0.00211039037872,0.0,0.0,0.0,0.0,0.0,0.0,0.0,0.0,0.0,5.54735347352,-0.00184506545075,8.00840161589,0.0,0.0,0.0,0.0,0.0,0.0,0.0,0.0,0.0
32596000000,217,32596000000,imu_link,0.000407811418393,-0.366878534756,0.000513350372018,0.930268622977,0.0,0.0,0.0,0.0,0.0,0.0,0.0,0.0,0.0,-0.00350654416376,0.00493782199044,0.00213465759337,0.0,0.0,0.0,0.0,0.0,0.0,0.0,0.0,0.0,5.55290139823,-0.00174645875056,8.00498112125,0.0,0.0,0.0,0.0,0.0,0.0,0.0,0.0,0.0
32600000000,218,32600000000,imu_link,0.0003987920293,-0.366869644224,0.000514521288411,0.930272132432,0.0,0.0,0.0,0.0,0.0,0.0,0.0,0.0,0.0,-0.00397886890944,0.00478161743262,0.00219642989739,0.0,0.0,0.0,0.0,0.0,0.0,0.0,0.0,0.0,5.55776823927,-0.00168455778614,7.99897714705,0.0,0.0,0.0,0.0,0.0,0.0,0.0,0.0,0.0
32604000000,219,32604000000,imu_link,0.00038855956213,-0.366861049918,0.000515411402281,0.930275525544,0.0,0.0,0.0,0.0,0.0,0.0,0.0,0.0,0.0,-0.00459467724484,0.0046227460869,0.00228842827526,0.0,0.0,0.0,0.0,0.0,0.0,0.0,0.0,0.0,5.56278626544,-0.00171994822441,7.9933466616,0.0,0.0,0.0,0.0,0.0,0.0,0.0,0.0,0.0
32608000000,220,32608000000,imu_link,0.000377145522723,-0.366852666365,0.000516039636538,0.930278835966,0.0,0.0,0.0,0.0,0.0,0.0,0.0,0.0,0.0,-0.00519234607309,0.00450980338736,0.00238341684763,0.0,0.0,0.0,0.0,0.0,0.0,0.0,0.0,0.0,5.56829400926,-0.00184452822905,7.98843418588,0.0,0.0,0.0,0.0,0.0,0.0,0.0,0.0,0.0
32612000000,221,32612000000,imu_link,0.000364910407358,-0.36684438191,0.000516443124892,0.930282107529,0.0,0.0,0.0,0.0,0.0,0.0,0.0,0.0,0.0,-0.00561550342559,0.00445674999457,0.00242951433552,0.0,0.0,0.0,0.0,0.0,0.0,0.0,0.0,0.0,5.57436135635,-0.00202067669187,7.98499763667,0.0,0.0,0.0,0.0,0.0,0.0,0.0,0.0,0.0
32616000000,222,32616000000,imu_link,0.000352412646873,-0.366836007693,0.000516669973182,0.930285414439,0.0,0.0,0.0,0.0,0.0,0.0,0.0,0.0,0.0,-0.00577005343145,0.0045050217545,0.00239550122784,0.0,0.0,0.0,0.0,0.0,0.0,0.0,0.0,0.0,5.57910356833,-0.00217702010732,7.97778853447,0.0,0.0,0.0,0.0,0.0,0.0,0.0,0.0,0.0
32620000000,223,32620000000,imu_link,0.000340037124755,-0.366827362593,0.000516759030346,0.930288827939,0.0,0.0,0.0,0.0,0.0,0.0,0.0,0.0,0.0,-0.00573841732333,0.00465051486785,0.00230891270655,0.0,0.0,0.0,0.0,0.0,0.0,0.0,0.0,0.0,5.58433816203,-0.00223117289836,7.97210881461,0.0,0.0,0.0,0.0,0.0,0.0,0.0,0.0,0.0
32624000000,224,32624000000,imu_link,0.000328009350503,-0.366818202382,0.000516779580303,0.930292444208,0.0,0.0,0.0,0.0,0.0,0.0,0.0,0.0,0.0,-0.00558913088502,0.00492720563469,0.00221312527548,0.0,0.0,0.0,0.0,0.0,0.0,0.0,0.0,0.0,5.58994565247,-0.00215682384725,7.96731271361,0.0,0.0,0.0,0.0,0.0,0.0,0.0,0.0,0.0
32628000000,225,32628000000,imu_link,0.000316419177003,-0.366808499885,0.00051681756531,0.930296273878,0.0,0.0,0.0,0.0,0.0,0.0,0.0,0.0,0.0,-0.0053822796794,0.00521847699752,0.00214083108458,0.0,0.0,0.0,0.0,0.0,0.0,0.0,0.0,0.0,5.59507558026,-0.00200339143901,7.96288602287,0.0,0.0,0.0,0.0,0.0,0.0,0.0,0.0,0.0
32632000000,226,32632000000,imu_link,0.000305284730426,-0.366798582709,0.000516922502627,0.930300187743,0.0,0.0,0.0,0.0,0.0,0.0,0.0,0.0,0.0,-0.00515797765743,0.00533366955167,0.00208833585114,0.0,0.0,0.0,0.0,0.0,0.0,0.0,0.0,0.0,5.60065934409,-0.00185403048698,7.96203937981,0.0,0.0,0.0,0.0,0.0,0.0,0.0,0.0,0.0
32636000000,227,32636000000,imu_link,0.000294585854188,-0.366788910731,0.000517097113908,0.930304004503,0.0,0.0,0.0,0.0,0.0,0.0,0.0,0.0,0.0,-0.00494264246965,0.00520170455288,0.00204092393639,0.0,0.0,0.0,0.0,0.0,0.0,0.0,0.0,0.0,5.60536745261,-0.00170907024785,7.95964534992,0.0,0.0,0.0,0.0,0.0,0.0,0.0,0.0,0.0
32640000000,228,32640000000,imu_link,0.000284434662244,-0.36677969013,0.000517350913519,0.930307642854,0.0,0.0,0.0,0.0,0.0,0.0,0.0,0.0,0.0,-0.00467345374752,0.00495889616861,0.00197742889559,0.0,0.0,0.0,0.0,0.0,0.0,0.0,0.0,0.0,5.61102370467,-0.00160559864069,7.95801708496,0.0,0.0,0.0,0.0,0.0,0.0,0.0,0.0,0.0
32644000000,229,32644000000,imu_link,0.000274922043918,-0.366770778962,0.0005176926408,0.930311158759,0.0,0.0,0.0,0.0,0.0,0.0,0.0,0.0,0.0,-0.00436035637543,0.00479235425728,0.0019012965508,0.0,0.0,0.0,0.0,0.0,0.0,0.0,0.0,0.0,5.61624358358,-0.00145133354221,7.95285274188,0.0,0.0,0.0,0.0,0.0,0.0,0.0,0.0,0.0
32648000000,230,32648000000,imu_link,0.000266120104562,-0.366761987856,0.000518129456388,0.930314626879,0.0,0.0,0.0,0.0,0.0,0.0,0.0,0.0,0.0,-0.00401236679001,0.00472757306871,0.00181522814073,0.0,0.0,0.0,0.0,0.0,0.0,0.0,0.0,0.0,5.62038698716,-0.00129548683812,7.94486352899,0.0,0.0,0.0,0.0,0.0,0.0,0.0,0.0,0.0
32652000000,231,32652000000,imu_link,0.000257953332148,-0.36675333781,0.000518609178202,0.930318039011,0.0,0.0,0.0,0.0,0.0,0.0,0.0,0.0,0.0,-0.00370907514953,0.00465153185181,0.00171874201423,0.0,0.0,0.0,0.0,0.0,0.0,0.0,0.0,0.0,5.62549801399,-0.00109763316029,7.94102621303,0.0,0.0,0.0,0.0,0.0,0.0,0.0,0.0,0.0
32656000000,232,32656000000,imu_link,0.000250203827582,-0.36674505476,0.00051904819044,0.930321306214,0.0,0.0,0.0,0.0,0.0,0.0,0.0,0.0,0.0,-0.00352252090443,0.00445413019945,0.00162337331415,0.0,0.0,0.0,0.0,0.0,0.0,0.0,0.0,0.0,5.62988541847,-0.000904896196969,7.93657414727,0.0,0.0,0.0,0.0,0.0,0.0,0.0,0.0,0.0
32660000000,233,32660000000,imu_link,0.000242576780856,-0.366737228409,0.000519378229755,0.930324393264,0.0,0.0,0.0,0.0,0.0,0.0,0.0,0.0,0.0,-0.00348563696211,0.00420861166573,0.00155033188301,0.0,0.0,0.0,0.0,0.0,0.0,0.0,0.0,0.0,5.63495544928,-0.000754578396955,7.93293434979,0.0,0.0,0.0,0.0,0.0,0.0,0.0,0.0,0.0
32664000000,234,32664000000,imu_link,0.000235048548478,-0.366729794779,0.000519588728274,0.930327325408,0.0,0.0,0.0,0.0,0.0,0.0,0.0,0.0,0.0,-0.00346167549063,0.00399748732922,0.00147669443274,0.0,0.0,0.0,0.0,0.0,0.0,0.0,0.0,0.0,5.63941485869,-0.000710527700667,7.92673446665,0.0,0.0,0.0,0.0,0.0,0.0,0.0,0.0,0.0
32668000000,235,32668000000,imu_link,0.000227994814036,-0.366722637998,0.000519755427337,0.930330148201,0.0,0.0,0.0,0.0,0.0,0.0,0.0,0.0,0.0,-0.00324904664774,0.00384852769157,0.00136937519817,0.0,0.0,0.0,0.0,0.0,0.0,0.0,0.0,0.0,5.64367046641,-0.000724482471259,7.91977106744,0.0,0.0,0.0,0.0,0.0,0.0,0.0,0.0,0.0
32672000000,236,32672000000,imu_link,0.00022187173039,-0.36671553851,0.000519955275616,0.930332948054,0.0,0.0,0.0,0.0,0.0,0.0,0.0,0.0,0.0,-0.00281007439093,0.00381743245916,0.00121416219053,0.0,0.0,0.0,0.0,0.0,0.0,0.0,0.0,0.0,5.64935203166,-0.000675018617316,7.91635071117,0.0,0.0,0.0,0.0,0.0,0.0,0.0,0.0,0.0
32676000000,237,32676000000,imu_link,0.000216892385492,-0.366708470755,0.000520235219467,0.930335734985,0.0,0.0,0.0,0.0,0.0,0.0,0.0,0.0,0.0,-0.00226336614149,0.00380001402136,0.00104171345941,0.0,0.0,0.0,0.0,0.0,0.0,0.0,0.0,0.0,5.65281007716,-0.000500253269221,7.90860045513,0.0,0.0,0.0,0.0,0.0,0.0,0.0,0.0,0.0
32680000000,238,32680000000,imu_link,0.000213047867388,-0.366701579073,0.000520579596986,0.930338452131,0.0,0.0,0.0,0.0,0.0,0.0,0.0,0.0,0.0,-0.00172370522774,0.00370502643579,0.000863647879714,0.0,0.0,0.0,0.0,0.0,0.0,0.0,0.0,0.0,5.65687973912,-0.000284689569157,7.90356495168,0.0,0.0,0.0,0.0,0.0,0.0,0.0,0.0,0.0
32684000000,239,32684000000,imu_link,0.000210152906562,-0.366695130415,0.000520929815694,0.930340994366,0.0,0.0,0.0,0.0,0.0,0.0,0.0,0.0,0.0,-0.00128102609952,0.00346662903029,0.000692355664245,0.0,0.0,0.0,0.0,0.0,0.0,0.0,0.0,0.0,5.66155649352,-6.27139292204e-05,7.90096142238,0.0,0.0,0.0,0.0,0.0,0.0,0.0,0.0,0.0
32688000000,240,32688000000,imu_link,0.000207907288471,-0.366689333882,0.000521235745371,0.930343279389,0.0,0.0,0.0,0.0,0.0,0.0,0.0,0.0,0.0,-0.000987234131354,0.00311594649744,0.000552833821673,0.0,0.0,0.0,0.0,0.0,0.0,0.0,0.0,0.0,5.66620002502,0.000141802961489,7.89786235366,0.0,0.0,0.0,0.0,0.0,0.0,0.0,0.0,0.0
32692000000,241,32692000000,imu_link,0.000206151712285,-0.366684150276,0.000521494000879,0.930345322706,0.0,0.0,0.0,0.0,0.0,0.0,0.0,0.0,0.0,-0.000768155952476,0.00278638220789,0.000440937289389,0.0,0.0,0.0,0.0,0.0,0.0,0.0,0.0,0.0,5.67106248515,0.000293958855812,7.89369674881,0.0,0.0,0.0,0.0,0.0,0.0,0.0,0.0,0.0
32696000000,242,32696000000,imu_link,0.000205020694307,-0.366679418868,0.000521726288518,0.930347187638,0.0,0.0,0.0,0.0,0.0,0.0,0.0,0.0,0.0,-0.000482489074404,0.00254316102123,0.000314443073381,0.0,0.0,0.0,0.0,0.0,0.0,0.0,0.0,0.0,5.67472086011,0.000339151504329,7.88576871913,0.0,0.0,0.0,0.0,0.0,0.0,0.0,0.0,0.0
32700000000,243,32700000000,imu_link,0.000204885058743,-0.366674971171,0.000521997823153,0.930348940482,0.0,0.0,0.0,0.0,0.0,0.0,0.0,0.0,0.0,-1.23304459338e-05,0.00239038013001,0.000150264939364,0.0,0.0,0.0,0.0,0.0,0.0,0.0,0.0,0.0,5.67905230641,0.000365158444821,7.87977664884,0.0,0.0,0.0,0.0,0.0,0.0,0.0,0.0,0.0
32704000000,244,32704000000,imu_link,0.000205906520287,-0.366670813828,0.000522339366212,0.930350578573,0.0,0.0,0.0,0.0,0.0,0.0,0.0,0.0,0.0,0.000538692730165,0.00223398156509,-2.92485079635e-05,0.0,0.0,0.0,0.0,0.0,0.0,0.0,0.0,0.0,5.68250068066,0.000484780445408,7.87267653277,0.0,0.0,0.0,0.0,0.0,0.0,0.0,0.0,0.0
32708000000,245,32708000000,imu_link,0.000208223316167,-0.366667018023,0.000522804161448,0.930352073794,0.0,0.0,0.0,0.0,0.0,0.0,0.0,0.0,0.0,0.00116376702851,0.00203928482235,-0.000209320754471,0.0,0.0,0.0,0.0,0.0,0.0,0.0,0.0,0.0,5.68746344209,0.000618678279832,7.86999431307,0.0,0.0,0.0,0.0,0.0,0.0,0.0,0.0,0.0
32712000000,246,32712000000,imu_link,0.000211892144671,-0.366663656821,0.000523433972044,0.930353397309,0.0,0.0,0.0,0.0,0.0,0.0,0.0,0.0,0.0,0.00182285732202,0.00180530149603,-0.000380342316021,0.0,0.0,0.0,0.0,0.0,0.0,0.0,0.0,0.0,5.69169092608,0.000782824189649,7.86544034612,0.0,0.0,0.0,0.0,0.0,0.0,0.0,0.0,0.0
32716000000,247,32716000000,imu_link,0.000216891881612,-0.366660660088,0.000524235101899,0.93035457675,0.0,0.0,0.0,0.0,0.0,0.0,0.0,0.0,0.0,0.00247329306465,0.0016090161461,-0.000544570146167,0.0,0.0,0.0,0.0,0.0,0.0,0.0,0.0,0.0,5.69554922329,0.000976627312635,7.8591348636,0.0,0.0,0.0,0.0,0.0,0.0,0.0,0.0,0.0
32720000000,248,32720000000,imu_link,0.000223181561017,-0.366657993915,0.000525206908583,0.930355625471,0.0,0.0,0.0,0.0,0.0,0.0,0.0,0.0,0.0,0.00310456277163,0.00143096232538,-0.000701590627014,0.0,0.0,0.0,0.0,0.0,0.0,0.0,0.0,0.0,5.69929509157,0.00116014667493,7.85291520713,0.0,0.0,0.0,0.0,0.0,0.0,0.0,0.0,0.0
32724000000,249,32724000000,imu_link,0.000230608306361,-0.366655707436,0.000526322891861,0.930356524139,0.0,0.0,0.0,0.0,0.0,0.0,0.0,0.0,0.0,0.00365984940408,0.00122654514431,-0.000842898257139,0.0,0.0,0.0,0.0,0.0,0.0,0.0,0.0,0.0,5.70355946763,0.00133468794822,7.84860245156,0.0,0.0,0.0,0.0,0.0,0.0,0.0,0.0,0.0
32728000000,250,32728000000,imu_link,0.000238787986905,-0.366653838437,0.000527494770705,0.930357257987,0.0,0.0,0.0,0.0,0.0,0.0,0.0,0.0,0.0,0.00402025484599,0.00100193507256,-0.000954839338423,0.0,0.0,0.0,0.0,0.0,0.0,0.0,0.0,0.0,5.70900599021,0.00151991809793,7.84735200145,0.0,0.0,0.0,0.0,0.0,0.0,0.0,0.0,0.0
32732000000,251,32732000000,imu_link,0.000247240594843,-0.366652583667,0.000528607527882,0.930357749651,0.0,0.0,0.0,0.0,0.0,0.0,0.0,0.0,0.0,0.00413624315782,0.000671730915241,-0.00103223920163,0.0,0.0,0.0,0.0,0.0,0.0,0.0,0.0,0.0,5.7138570722,0.00166871255246,7.84556490948,0.0,0.0,0.0,0.0,0.0,0.0,0.0,0.0,0.0
32736000000,252,32736000000,imu_link,0.000255480511151,-0.366652210396,0.000529592590034,0.93035789397,0.0,0.0,0.0,0.0,0.0,0.0,0.0,0.0,0.0,0.00401370360471,0.000198039247471,-0.00105244748629,0.0,0.0,0.0,0.0,0.0,0.0,0.0,0.0,0.0,5.71860485862,0.00175497257612,7.84401654166,0.0,0.0,0.0,0.0,0.0,0.0,0.0,0.0,0.0
32740000000,253,32740000000,imu_link,0.000263489903767,-0.366653145938,0.000530478630512,0.930357522536,0.0,0.0,0.0,0.0,0.0,0.0,0.0,0.0,0.0,0.00388803489218,-0.000505295723621,-0.00105594551596,0.0,0.0,0.0,0.0,0.0,0.0,0.0,0.0,0.0,5.7239514096,0.00165418500196,7.84517021609,0.0,0.0,0.0,0.0,0.0,0.0,0.0,0.0,0.0
32744000000,254,32744000000,imu_link,0.00027146223145,-0.366655546018,0.000531327084082,0.930356573887,0.0,0.0,0.0,0.0,0.0,0.0,0.0,0.0,0.0,0.00386358998561,-0.00129238154224,-0.00106628911428,0.0,0.0,0.0,0.0,0.0,0.0,0.0,0.0,0.0,5.72885937111,0.00149875906221,7.84339933765,0.0,0.0,0.0,0.0,0.0,0.0,0.0,0.0,0.0
32748000000,255,32748000000,imu_link,0.00027953965133,-0.366659185336,0.000532156270449,0.930355136749,0.0,0.0,0.0,0.0,0.0,0.0,0.0,0.0,0.0,0.00390868146298,-0.00195843254947,-0.00109422014104,0.0,0.0,0.0,0.0,0.0,0.0,0.0,0.0,0.0,5.73267841384,0.0014114509737,7.83629711448,0.0,0.0,0.0,0.0,0.0,0.0,0.0,0.0,0.0
32752000000,256,32752000000,imu_link,0.000287531650808,-0.366663765041,0.000532939001199,0.93035332896,0.0,0.0,0.0,0.0,0.0,0.0,0.0,0.0,0.0,0.00386023070814,-0.00246381435037,-0.00109994010401,0.0,0.0,0.0,0.0,0.0,0.0,0.0,0.0,0.0,5.7369015572,0.0014124352804,7.83016133021,0.0,0.0,0.0,0.0,0.0,0.0,0.0,0.0,0.0
32756000000,257,32756000000,imu_link,0.000295105799851,-0.366669197527,0.000533625522606,0.930351185167,0.0,0.0,0.0,0.0,0.0,0.0,0.0,0.0,0.0,0.00364803926271,-0.00292201095729,-0.00106787700313,0.0,0.0,0.0,0.0,0.0,0.0,0.0,0.0,0.0,5.73999843252,0.00139155074455,7.82277816655,0.0,0.0,0.0,0.0,0.0,0.0,0.0,0.0,0.0
32760000000,258,32760000000,imu_link,0.00030200781493,-0.366675506644,0.000534185762649,0.930348696062,0.0,0.0,0.0,0.0,0.0,0.0,0.0,0.0,0.0,0.00331204426013,-0.0033929448769,-0.00100317311779,0.0,0.0,0.0,0.0,0.0,0.0,0.0,0.0,0.0,5.7433891209,0.0013004889652,7.81689485721,0.0,0.0,0.0,0.0,0.0,0.0,0.0,0.0,0.0
32764000000,259,32764000000,imu_link,0.000308024059218,-0.366682877305,0.000534566469119,0.930345788861,0.0,0.0,0.0,0.0,0.0,0.0,0.0,0.0,0.0,0.00286687073041,-0.00396319192893,-0.000924020336109,0.0,0.0,0.0,0.0,0.0,0.0,0.0,0.0,0.0,5.74744044537,0.00117624592919,7.81379826464,0.0,0.0,0.0,0.0,0.0,0.0,0.0,0.0,0.0
32768000000,260,32768000000,imu_link,0.000312967153183,-0.366691485266,0.000534693933304,0.930342394384,0.0,0.0,0.0,0.0,0.0,0.0,0.0,0.0,0.0,0.00232098482154,-0.00462783963121,-0.000844748058678,0.0,0.0,0.0,0.0,0.0,0.0,0.0,0.0,0.0,5.75235124097,0.00102825833576,7.81273292116,0.0,0.0,0.0,0.0,0.0,0.0,0.0,0.0,0.0
32772000000,261,32772000000,imu_link,0.000316890880344,-0.366701222542,0.000534542117047,0.930338555168,0.0,0.0,0.0,0.0,0.0,0.0,0.0,0.0,0.0,0.00179536753952,-0.0052344769271,-0.00078746909355,0.0,0.0,0.0,0.0,0.0,0.0,0.0,0.0,0.0,5.75653315959,0.000835509055717,7.8080198202,0.0,0.0,0.0,0.0,0.0,0.0,0.0,0.0,0.0
32776000000,262,32776000000,imu_link,0.000319918485384,-0.366711615648,0.000534126597091,0.930334457768,0.0,0.0,0.0,0.0,0.0,0.0,0.0,0.0,0.0,0.0013300344494,-0.00558668960418,-0.000745658496307,0.0,0.0,0.0,0.0,0.0,0.0,0.0,0.0,0.0,5.76023169957,0.000656062156015,7.79985741447,0.0,0.0,0.0,0.0,0.0,0.0,0.0,0.0,0.0
32780000000,263,32780000000,imu_link,0.000322536253076,-0.366722145374,0.000533537828801,0.930330306612,0.0,0.0,0.0,0.0,0.0,0.0,0.0,0.0,0.0,0.00110759757024,-0.00566001525428,-0.000751065675432,0.0,0.0,0.0,0.0,0.0,0.0,0.0,0.0,0.0,5.7652376919,0.000448322331118,7.7950329038,0.0,0.0,0.0,0.0,0.0,0.0,0.0,0.0,0.0
32784000000,264,32784000000,imu_link,0.000325314004769,-0.366732624833,0.000532862139796,0.930326175119,0.0,0.0,0.0,0.0,0.0,0.0,0.0,0.0,0.0,0.00116608891558,-0.00563308401461,-0.000820846352913,0.0,0.0,0.0,0.0,0.0,0.0,0.0,0.0,0.0,5.77003828128,0.000311928583427,7.79231050974,0.0,0.0,0.0,0.0,0.0,0.0,0.0,0.0,0.0
32788000000,265,32788000000,imu_link,0.000328445577809,-0.366743244765,0.000532130621277,0.930321988013,0.0,0.0,0.0,0.0,0.0,0.0,0.0,0.0,0.0,0.00132040791325,-0.005708728108,-0.000911657431802,0.0,0.0,0.0,0.0,0.0,0.0,0.0,0.0,0.0,5.77466601187,0.000295688575141,7.79181927161,0.0,0.0,0.0,0.0,0.0,0.0,0.0,0.0,0.0
32792000000,266,32792000000,imu_link,0.00033175095876,-0.366754436669,0.000531282913912,0.930317575274,0.0,0.0,0.0,0.0,0.0,0.0,0.0,0.0,0.0,0.00137983570892,-0.00601622683535,-0.000997421425924,0.0,0.0,0.0,0.0,0.0,0.0,0.0,0.0,0.0,5.77980388224,0.000359680064012,7.79412767076,0.0,0.0,0.0,0.0,0.0,0.0,0.0,0.0,0.0
32796000000,267,32796000000,imu_link,0.000334944488111,-0.366766170862,0.000530301645776,0.930312948692,0.0,0.0,0.0,0.0,0.0,0.0,0.0,0.0,0.0,0.00130320636832,-0.00630768373078,-0.00103889059876,0.0,0.0,0.0,0.0,0.0,0.0,0.0,0.0,0.0,5.78304771135,0.000433250709764,7.78841907531,0.0,0.0,0.0,0.0,0.0,0.0,0.0,0.0,0.0
32800000000,268,32800000000,imu_link,0.000337927880156,-0.366778074631,0.000529200823679,0.930308255215,0.0,0.0,0.0,0.0,0.0,0.0,0.0,0.0,0.0,0.00118350170542,-0.00639879525605,-0.00105592013354,0.0,0.0,0.0,0.0,0.0,0.0,0.0,0.0,0.0,5.78708397854,0.000437278954756,7.78248455878,0.0,0.0,0.0,0.0,0.0,0.0,0.0,0.0,0.0
32804000000,269,32804000000,imu_link,0.000340995499327,-0.366789565771,0.000528056377136,0.930303724232,0.0,0.0,0.0,0.0,0.0,0.0,0.0,0.0,0.0,0.00121476178202,-0.00617708858091,-0.00109177127196,0.0,0.0,0.0,0.0,0.0,0.0,0.0,0.0,0.0,5.79132234228,0.000353319212932,7.77561650888,0.0,0.0,0.0,0.0,0.0,0.0,0.0,0.0,0.0
32808000000,270,32808000000,imu_link,0.000344574972014,-0.36680036541,0.000526944142021,0.930299465513,0.0,0.0,0.0,0.0,0.0,0.0,0.0,0.0,0.0,0.00145889496149,-0.00580563399771,-0.00117084911519,0.0,0.0,0.0,0.0,0.0,0.0,0.0,0.0,0.0,5.79545269445,0.000316024126464,7.77089996754,0.0,0.0,0.0,0.0,0.0,0.0,0.0,0.0,0.0
32812000000,271,32812000000,imu_link,0.000348862657119,-0.366810499383,0.000525929820191,0.930295468781,0.0,0.0,0.0,0.0,0.0,0.0,0.0,0.0,0.0,0.00180640733994,-0.00544812059649,-0.00125537477592,0.0,0.0,0.0,0.0,0.0,0.0,0.0,0.0,0.0,5.79942493666,0.000390088649387,7.76803065401,0.0,0.0,0.0,0.0,0.0,0.0,0.0,0.0,0.0
32816000000,272,32816000000,imu_link,0.000353721157085,-0.366819927306,0.000525020341079,0.930291750026,0.0,0.0,0.0,0.0,0.0,0.0,0.0,0.0,0.0,0.00209128646298,-0.00506885226808,-0.00131149412065,0.0,0.0,0.0,0.0,0.0,0.0,0.0,0.0,0.0,5.80198220747,0.000537387697914,7.7612913963,0.0,0.0,0.0,0.0,0.0,0.0,0.0,0.0,0.0
32820000000,273,32820000000,imu_link,0.000358779909252,-0.36682870456,0.000524185807092,0.930288287585,0.0,0.0,0.0,0.0,0.0,0.0,0.0,0.0,0.0,0.00219830410586,-0.00471922528702,-0.00131354431657,0.0,0.0,0.0,0.0,0.0,0.0,0.0,0.0,0.0,5.80530036316,0.000706325052231,7.75725907161,0.0,0.0,0.0,0.0,0.0,0.0,0.0,0.0,0.0
32824000000,274,32824000000,imu_link,0.000363764512239,-0.36683710696,0.000523407399569,0.930284972832,0.0,0.0,0.0,0.0,0.0,0.0,0.0,0.0,0.0,0.00217418020092,-0.00451774667116,-0.00127394334952,0.0,0.0,0.0,0.0,0.0,0.0,0.0,0.0,0.0,5.80974566039,0.000806058920941,7.75749275314,0.0,0.0,0.0,0.0,0.0,0.0,0.0,0.0,0.0
32828000000,275,32828000000,imu_link,0.000368428157518,-0.366845369339,0.000522663028532,0.930281713288,0.0,0.0,0.0,0.0,0.0,0.0,0.0,0.0,0.0,0.00203115865999,-0.00444240023766,-0.00119928185137,0.0,0.0,0.0,0.0,0.0,0.0,0.0,0.0,0.0,5.81368446567,0.000861613242396,7.75601977766,0.0,0.0,0.0,0.0,0.0,0.0,0.0,0.0,0.0
32832000000,276,32832000000,imu_link,0.000372675415683,-0.366853534269,0.000521970539694,0.930278492202,0.0,0.0,0.0,0.0,0.0,0.0,0.0,0.0,0.0,0.00184701475533,-0.0043899000183,-0.00109880248021,0.0,0.0,0.0,0.0,0.0,0.0,0.0,0.0,0.0,5.81704584034,0.000802698355136,7.75193034391,0.0,0.0,0.0,0.0,0.0,0.0,0.0,0.0,0.0
32836000000,277,32836000000,imu_link,0.000376612033242,-0.36686147432,0.00052138700016,0.930275359761,0.0,0.0,0.0,0.0,0.0,0.0,0.0,0.0,0.0,0.00172255000915,-0.00426893926367,-0.000991211119381,0.0,0.0,0.0,0.0,0.0,0.0,0.0,0.0,0.0,5.81961126233,0.00065774305492,7.74478094108,0.0,0.0,0.0,0.0,0.0,0.0,0.0,0.0,0.0
32840000000,278,32840000000,imu_link,0.000380543100013,-0.366869107739,0.000520946687396,0.930272348072,0.0,0.0,0.0,0.0,0.0,0.0,0.0,0.0,0.0,0.00174629751878,-0.0041041348452,-0.0009236619866,0.0,0.0,0.0,0.0,0.0,0.0,0.0,0.0,0.0,5.82311652257,0.000525332295125,7.7404425076,0.0,0.0,0.0,0.0,0.0,0.0,0.0,0.0,0.0
32844000000,279,32844000000,imu_link,0.000384933996004,-0.366876379554,0.00052069692675,0.930269478606,0.0,0.0,0.0,0.0,0.0,0.0,0.0,0.0,0.0,0.0019952016931,-0.00390993459535,-0.000919483719346,0.0,0.0,0.0,0.0,0.0,0.0,0.0,0.0,0.0,5.82661994308,0.000424087843794,7.73659568757,0.0,0.0,0.0,0.0,0.0,0.0,0.0,0.0,0.0
32848000000,280,32848000000,imu_link,0.00039030021946,-0.36688357828,0.000520735157226,0.930266637308,0.0,0.0,0.0,0.0,0.0,0.0,0.0,0.0,0.0,0.0025017025567,-0.00387096988362,-0.000964462749606,0.0,0.0,0.0,0.0,0.0,0.0,0.0,0.0,0.0,5.83043517582,0.00039137223056,7.73571967131,0.0,0.0,0.0,0.0,0.0,0.0,0.0,0.0,0.0
32852000000,281,32852000000,imu_link,0.00039698852428,-0.366891268948,0.000521111690509,0.930263601143,0.0,0.0,0.0,0.0,0.0,0.0,0.0,0.0,0.0,0.00317861546376,-0.00413581324526,-0.00104948507382,0.0,0.0,0.0,0.0,0.0,0.0,0.0,0.0,0.0,5.83537037124,0.000484821937999,7.73938419981,0.0,0.0,0.0,0.0,0.0,0.0,0.0,0.0,0.0
32856000000,282,32856000000,imu_link,0.000404805714232,-0.366899768168,0.000521756837613,0.930260245319,0.0,0.0,0.0,0.0,0.0,0.0,0.0,0.0,0.0,0.00375282464842,-0.00457077766669,-0.00113138951008,0.0,0.0,0.0,0.0,0.0,0.0,0.0,0.0,0.0,5.83875981786,0.000723331920643,7.7370300463,0.0,0.0,0.0,0.0,0.0,0.0,0.0,0.0,0.0
32860000000,283,32860000000,imu_link,0.000413281115648,-0.366909175374,0.000522584750518,0.930256530819,0.0,0.0,0.0,0.0,0.0,0.0,0.0,0.0,0.0,0.00409234271549,-0.00505904277063,-0.0011668510984,0.0,0.0,0.0,0.0,0.0,0.0,0.0,0.0,0.0,5.84307022914,0.000969006215736,7.73563499511,0.0,0.0,0.0,0.0,0.0,0.0,0.0,0.0,0.0
32864000000,284,32864000000,imu_link,0.000422178334918,-0.366919444748,0.000523583367404,0.930252475778,0.0,0.0,0.0,0.0,0.0,0.0,0.0,0.0,0.0,0.00431970364216,-0.0055226103043,-0.00116456913257,0.0,0.0,0.0,0.0,0.0,0.0,0.0,0.0,0.0,5.84732033203,0.0010986579995,7.73313827182,0.0,0.0,0.0,0.0,0.0,0.0,0.0,0.0,0.0
32868000000,285,32868000000,imu_link,0.000431475292979,-0.366930519643,0.000524772406332,0.930248102496,0.0,0.0,0.0,0.0,0.0,0.0,0.0,0.0,0.0,0.00454042371558,-0.00595572847114,-0.00114908146212,0.0,0.0,0.0,0.0,0.0,0.0,0.0,0.0,0.0,5.85007533472,0.00115635150485,7.72699281114,0.0,0.0,0.0,0.0,0.0,0.0,0.0,0.0,0.0
32872000000,286,32872000000,imu_link,0.000441222022384,-0.366942442587,0.000526151251033,0.930243394127,0.0,0.0,0.0,0.0,0.0,0.0,0.0,0.0,0.0,0.00478429572593,-0.00641172994675,-0.00114304477048,0.0,0.0,0.0,0.0,0.0,0.0,0.0,0.0,0.0,5.85317496567,0.00120293345778,7.72252928334,0.0,0.0,0.0,0.0,0.0,0.0,0.0,0.0,0.0
32876000000,287,32876000000,imu_link,0.000451324191757,-0.366955230043,0.000527690095096,0.930238344186,0.0,0.0,0.0,0.0,0.0,0.0,0.0,0.0,0.0,0.00497882176787,-0.00687656035627,-0.00113355802088,0.0,0.0,0.0,0.0,0.0,0.0,0.0,0.0,0.0,5.85529673372,0.00125777424901,7.71544910757,0.0,0.0,0.0,0.0,0.0,0.0,0.0,0.0,0.0
32880000000,288,32880000000,imu_link,0.000461641594721,-0.366968748515,0.000529339197773,0.930233005381,0.0,0.0,0.0,0.0,0.0,0.0,0.0,0.0,0.0,0.00509903333528,-0.00726960157133,-0.00112152399347,0.0,0.0,0.0,0.0,0.0,0.0,0.0,0.0,0.0,5.85783210436,0.00126088172633,7.70859987569,0.0,0.0,0.0,0.0,0.0,0.0,0.0,0.0,0.0
32884000000,289,32884000000,imu_link,0.000472115832894,-0.366982779634,0.000531079881511,0.930227463857,0.0,0.0,0.0,0.0,0.0,0.0,0.0,0.0,0.0,0.00518869478368,-0.00754525875453,-0.0011075329573,0.0,0.0,0.0,0.0,0.0,0.0,0.0,0.0,0.0,5.86064020142,0.0011898763931,7.70186962714,0.0,0.0,0.0,0.0,0.0,0.0,0.0,0.0,0.0
32888000000,290,32888000000,imu_link,0.000482720913982,-0.366996944552,0.000532903328042,0.930221869064,0.0,0.0,0.0,0.0,0.0,0.0,0.0,0.0,0.0,0.00526471492464,-0.00761727975338,-0.00109300166519,0.0,0.0,0.0,0.0,0.0,0.0,0.0,0.0,0.0,5.86340157729,0.00112875627063,7.69412630334,0.0,0.0,0.0,0.0,0.0,0.0,0.0,0.0,0.0
32892000000,291,32892000000,imu_link,0.000493294728061,-0.367011002979,0.000534806061618,0.930216315883,0.0,0.0,0.0,0.0,0.0,0.0,0.0,0.0,0.0,0.00526473968,-0.00756008652452,-0.00105042373541,0.0,0.0,0.0,0.0,0.0,0.0,0.0,0.0,0.0,5.86641797652,0.00109456225554,7.68833823484,0.0,0.0,0.0,0.0,0.0,0.0,0.0,0.0,0.0
32896000000,292,32896000000,imu_link,0.000503596133745,-0.367024906711,0.000536762238352,0.930210823486,0.0,0.0,0.0,0.0,0.0,0.0,0.0,0.0,0.0,0.00514787380034,-0.00747689659467,-0.000975632856329,0.0,0.0,0.0,0.0,0.0,0.0,0.0,0.0,0.0,5.86869206816,0.00103582241562,7.68219334452,0.0,0.0,0.0,0.0,0.0,0.0,0.0,0.0,0.0
32900000000,293,32900000000,imu_link,0.000513179657931,-0.367039024415,0.000538712740746,0.930205246702,0.0,0.0,0.0,0.0,0.0,0.0,0.0,0.0,0.0,0.00481290574153,-0.00759171085015,-0.000846455302158,0.0,0.0,0.0,0.0,0.0,0.0,0.0,0.0,0.0,5.87198403095,0.0010019360679,7.68130927493,0.0,0.0,0.0,0.0,0.0,0.0,0.0,0.0,0.0
32904000000,294,32904000000,imu_link,0.0005214789185,-0.367053913818,0.00054059829236,0.930199365816,0.0,0.0,0.0,0.0,0.0,0.0,0.0,0.0,0.0,0.00420354179566,-0.00800610888703,-0.00064069672628,0.0,0.0,0.0,0.0,0.0,0.0,0.0,0.0,0.0,5.87620870376,0.000922870274326,7.68406732156,0.0,0.0,0.0,0.0,0.0,0.0,0.0,0.0,0.0
32908000000,295,32908000000,imu_link,0.000528096433304,-0.367069904237,0.000542343509431,0.930193051136,0.0,0.0,0.0,0.0,0.0,0.0,0.0,0.0,0.0,0.00339542270532,-0.00859738675041,-0.000396916261913,0.0,0.0,0.0,0.0,0.0,0.0,0.0,0.0,0.0,5.87857907711,0.000764509748409,7.68047769349,0.0,0.0,0.0,0.0,0.0,0.0,0.0,0.0,0.0
32912000000,296,32912000000,imu_link,0.000532848977764,-0.367086833811,0.00054389157925,0.930186366647,0.0,0.0,0.0,0.0,0.0,0.0,0.0,0.0,0.0,0.00249169104141,-0.00910160326829,-0.000145973257322,0.0,0.0,0.0,0.0,0.0,0.0,0.0,0.0,0.0,5.88124776024,0.000532015237124,7.67407466051,0.0,0.0,0.0,0.0,0.0,0.0,0.0,0.0,0.0
32916000000,297,32916000000,imu_link,0.000535691439171,-0.367104103584,0.000545198241833,0.930179548757,0.0,0.0,0.0,0.0,0.0,0.0,0.0,0.0,0.0,0.00155895875072,-0.00928385748343,9.24599681627e-05,0.0,0.0,0.0,0.0,0.0,0.0,0.0,0.0,0.0,5.88450322779,0.000272696341525,7.66602784305,0.0,0.0,0.0,0.0,0.0,0.0,0.0,0.0,0.0
32920000000,298,32920000000,imu_link,0.000536728202451,-0.367121224292,0.000546274609471,0.930172790497,0.0,0.0,0.0,0.0,0.0,0.0,0.0,0.0,0.0,0.000676900569298,-0.00920315295787,0.000316735558637,0.0,0.0,0.0,0.0,0.0,0.0,0.0,0.0,0.0,5.88762962161,2.49008232155e-06,7.65851665479,0.0,0.0,0.0,0.0,0.0,0.0,0.0,0.0,0.0
32924000000,299,32924000000,imu_link,0.000536194448612,-0.367138232584,0.000547184354045,0.930166077246,0.0,0.0,0.0,0.0,0.0,0.0,0.0,0.0,0.0,-8.4092381254e-05,-0.00914222375674,0.00052748406006,0.0,0.0,0.0,0.0,0.0,0.0,0.0,0.0,0.0,5.89078940383,-0.000311891291326,7.65522408587,0.0,0.0,0.0,0.0,0.0,0.0,0.0,0.0,0.0
32928000000,300,32928000000,imu_link,0.00053449120623,-0.367155586924,0.000548035007396,0.930159227749,0.0,0.0,0.0,0.0,0.0,0.0,0.0,0.0,0.0,-0.000638907139503,-0.00932787132651,0.000714813764047,0.0,0.0,0.0,0.0,0.0,0.0,0.0,0.0,0.0,5.89379827538,-0.00065396141521,7.65458719461,0.0,0.0,0.0,0.0,0.0,0.0,0.0,0.0,0.0
32932000000,301,32932000000,imu_link,0.000531909607434,-0.367173865029,0.000548902051728,0.930152013715,0.0,0.0,0.0,0.0,0.0,0.0,0.0,0.0,0.0,-0.0010445594878,-0.00982417149616,0.000884030368566,0.0,0.0,0.0,0.0,0.0,0.0,0.0,0.0,0.0,5.8978999958,-0.000878569867587,7.65738329963,0.0,0.0,0.0,0.0,0.0,0.0,0.0,0.0,0.0
32936000000,302,32936000000,imu_link,0.000528509776575,-0.367193163012,0.000549798701195,0.930144397089,0.0,0.0,0.0,0.0,0.0,0.0,0.0,0.0,0.0,-0.00141983730773,-0.0103721702403,0.00104839745438,0.0,0.0,0.0,0.0,0.0,0.0,0.0,0.0,0.0,5.89954008866,-0.00102086060885,7.65085464757,0.0,0.0,0.0,0.0,0.0,0.0,0.0,0.0,0.0
32940000000,303,32940000000,imu_link,0.00052440362382,-0.36721313258,0.000550735483794,0.930136515224,0.0,0.0,0.0,0.0,0.0,0.0,0.0,0.0,0.0,-0.00174107420675,-0.0107329979573,0.00119699092747,0.0,0.0,0.0,0.0,0.0,0.0,0.0,0.0,0.0,5.90215324473,-0.00114782754538,7.64349011217,0.0,0.0,0.0,0.0,0.0,0.0,0.0,0.0,0.0
32944000000,304,32944000000,imu_link,0.00051968349125,-0.367233062077,0.000551702279911,0.930128648989,0.0,0.0,0.0,0.0,0.0,0.0,0.0,0.0,0.0,-0.00202109911524,-0.0107113157223,0.00132366517717,0.0,0.0,0.0,0.0,0.0,0.0,0.0,0.0,0.0,5.90560160616,-0.00120887367982,7.63556822222,0.0,0.0,0.0,0.0,0.0,0.0,0.0,0.0,0.0
32948000000,305,32948000000,imu_link,0.00051456249132,-0.367252323404,0.000552698914708,0.930121046264,0.0,0.0,0.0,0.0,0.0,0.0,0.0,0.0,0.0,-0.00220193350301,-0.0103520699654,0.00141090164842,0.0,0.0,0.0,0.0,0.0,0.0,0.0,0.0,0.0,5.90968085124,-0.0012554200165,7.63013511556,0.0,0.0,0.0,0.0,0.0,0.0,0.0,0.0,0.0
32952000000,306,32952000000,imu_link,0.000509341948849,-0.367270875917,0.000553775502405,0.930113722943,0.0,0.0,0.0,0.0,0.0,0.0,0.0,0.0,0.0,-0.00223342137032,-0.00997107535242,0.00146610362367,0.0,0.0,0.0,0.0,0.0,0.0,0.0,0.0,0.0,5.91281063093,-0.00127818666324,7.62711384858,0.0,0.0,0.0,0.0,0.0,0.0,0.0,0.0,0.0
32956000000,307,32956000000,imu_link,0.00050436139656,-0.367289018042,0.000554989479859,0.930106561009,0.0,0.0,0.0,0.0,0.0,0.0,0.0,0.0,0.0,-0.00209651013019,-0.00975061635659,0.00148577777045,0.0,0.0,0.0,0.0,0.0,0.0,0.0,0.0,0.0,5.91499576993,-0.00127914692552,7.62435212689,0.0,0.0,0.0,0.0,0.0,0.0,0.0,0.0,0.0
32960000000,308,32960000000,imu_link,0.000499993136471,-0.367307108075,0.000556359907261,0.930099418787,0.0,0.0,0.0,0.0,0.0,0.0,0.0,0.0,0.0,-0.00178302097596,-0.00972290150892,0.00144607262461,0.0,0.0,0.0,0.0,0.0,0.0,0.0,0.0,0.0,5.91801473034,-0.00124518949132,7.62407546532,0.0,0.0,0.0,0.0,0.0,0.0,0.0,0.0,0.0
32964000000,309,32964000000,imu_link,0.000496113641372,-0.367325334423,0.000557807365398,0.930092221994,0.0,0.0,0.0,0.0,0.0,0.0,0.0,0.0,0.0,-0.00154159826848,-0.00979643307327,0.00139218157688,0.0,0.0,0.0,0.0,0.0,0.0,0.0,0.0,0.0,5.92072135674,-0.00107596270765,7.62163286398,0.0,0.0,0.0,0.0,0.0,0.0,0.0,0.0,0.0
32968000000,310,32968000000,imu_link,0.000492272479525,-0.367343751926,0.000559234799042,0.930084949263,0.0,0.0,0.0,0.0,0.0,0.0,0.0,0.0,0.0,-0.00152748376763,-0.00989929198307,0.00137589747429,0.0,0.0,0.0,0.0,0.0,0.0,0.0,0.0,0.0,5.92347718902,-0.000871389099616,7.61813329382,0.0,0.0,0.0,0.0,0.0,0.0,0.0,0.0,0.0
32972000000,311,32972000000,imu_link,0.000487942281226,-0.367362401674,0.000560561277705,0.930077584678,0.0,0.0,0.0,0.0,0.0,0.0,0.0,0.0,0.0,-0.00177349141118,-0.0100240547607,0.00141885421011,0.0,0.0,0.0,0.0,0.0,0.0,0.0,0.0,0.0,5.92707850653,-0.000758839590198,7.61669015798,0.0,0.0,0.0,0.0,0.0,0.0,0.0,0.0,0.0
32976000000,312,32976000000,imu_link,0.000483078382674,-0.367381234396,0.000561773307709,0.930070147709,0.0,0.0,0.0,0.0,0.0,0.0,0.0,0.0,0.0,-0.00204273842403,-0.0101223187043,0.00146372677524,0.0,0.0,0.0,0.0,0.0,0.0,0.0,0.0,0.0,5.92909684693,-0.000821646321286,7.61057122938,0.0,0.0,0.0,0.0,0.0,0.0,0.0,0.0,0.0
32980000000,313,32980000000,imu_link,0.00047774107445,-0.367400189776,0.000562860080011,0.930062662139,0.0,0.0,0.0,0.0,0.0,0.0,0.0,0.0,0.0,-0.00228592190493,-0.0101881841571,0.00149248174393,0.0,0.0,0.0,0.0,0.0,0.0,0.0,0.0,0.0,5.93145028748,-0.000898813546938,7.60527570203,0.0,0.0,0.0,0.0,0.0,0.0,0.0,0.0,0.0
32984000000,314,32984000000,imu_link,0.00047186000868,-0.36741929476,0.000563764005532,0.930055117375,0.0,0.0,0.0,0.0,0.0,0.0,0.0,0.0,0.0,-0.00257240313407,-0.0102685189104,0.00150739296956,0.0,0.0,0.0,0.0,0.0,0.0,0.0,0.0,0.0,5.93388499899,-0.000944137631288,7.60090582034,0.0,0.0,0.0,0.0,0.0,0.0,0.0,0.0,0.0
32988000000,315,32988000000,imu_link,0.000465509005451,-0.367438737845,0.000564428214194,0.930047438926,0.0,0.0,0.0,0.0,0.0,0.0,0.0,0.0,0.0,-0.00283503906783,-0.0104502286712,0.00148236752018,0.0,0.0,0.0,0.0,0.0,0.0,0.0,0.0,0.0,5.93760810861,-0.00100598596883,7.6008459533,0.0,0.0,0.0,0.0,0.0,0.0,0.0,0.0,0.0
32992000000,316,32992000000,imu_link,0.00045905731307,-0.36745877298,0.000564861207379,0.930039526234,0.0,0.0,0.0,0.0,0.0,0.0,0.0,0.0,0.0,-0.00292445323697,-0.0107686058999,0.00139354929546,0.0,0.0,0.0,0.0,0.0,0.0,0.0,0.0,0.0,5.94150253014,-0.00106643924012,7.60168333785,0.0,0.0,0.0,0.0,0.0,0.0,0.0,0.0,0.0
32996000000,317,32996000000,imu_link,0.00045288105612,-0.367479455648,0.000565105055091,0.930031357123,0.0,0.0,0.0,0.0,0.0,0.0,0.0,0.0,0.0,-0.002831245927,-0.0111169551034,0.00125520837819,0.0,0.0,0.0,0.0,0.0,0.0,0.0,0.0,0.0,5.94480292845,-0.00104196554852,7.59966409078,0.0,0.0,0.0,0.0,0.0,0.0,0.0,0.0,0.0
33000000000,318,33000000000,imu_link,0.000447083460022,-0.367500599546,0.00056517969104,0.930023005104,0.0,0.0,0.0,0.0,0.0,0.0,0.0,0.0,0.0,-0.00268634252178,-0.0113651864192,0.0011071033352,0.0,0.0,0.0,0.0,0.0,0.0,0.0,0.0,0.0,5.9476370989,-0.000939172173449,7.59478518825,0.0,0.0,0.0,0.0,0.0,0.0,0.0,0.0,0.0
33004000000,319,33004000000,imu_link,0.000441442657629,-0.367521765922,0.000565091754538,0.930014643634,0.0,0.0,0.0,0.0,0.0,0.0,0.0,0.0,0.0,-0.00264330862088,-0.011377456586,0.00100270208062,0.0,0.0,0.0,0.0,0.0,0.0,0.0,0.0,0.0,5.9515251992,-0.000777211975702,7.59082851245,0.0,0.0,0.0,0.0,0.0,0.0,0.0,0.0,0.0
33008000000,320,33008000000,imu_link,0.000435792966558,-0.367542715318,0.000564870940829,0.930006367409,0.0,0.0,0.0,0.0,0.0,0.0,0.0,0.0,0.0,-0.0026718170632,-0.0112609213909,0.000942474620256,0.0,0.0,0.0,0.0,0.0,0.0,0.0,0.0,0.0,5.95450316634,-0.000647572293908,7.58638723398,0.0,0.0,0.0,0.0,0.0,0.0,0.0,0.0,0.0
33012000000,321,33012000000,imu_link,0.000430160128984,-0.36756349787,0.000564553539763,0.929998156598,0.0,0.0,0.0,0.0,0.0,0.0,0.0,0.0,0.0,-0.0026816972539,-0.0111713432206,0.0008944091722,0.0,0.0,0.0,0.0,0.0,0.0,0.0,0.0,0.0,5.95746953459,-0.000556406394807,7.58374013935,0.0,0.0,0.0,0.0,0.0,0.0,0.0,0.0,0.0
33016000000,322,33016000000,imu_link,0.000424689951069,-0.367584205073,0.000564170862673,0.929989974962,0.0,0.0,0.0,0.0,0.0,0.0,0.0,0.0,0.0,-0.00261804220986,-0.011131003813,0.000834137562356,0.0,0.0,0.0,0.0,0.0,0.0,0.0,0.0,0.0,5.95962579906,-0.000524937439608,7.57983078005,0.0,0.0,0.0,0.0,0.0,0.0,0.0,0.0,0.0
33020000000,323,33020000000,imu_link,0.000419496702841,-0.367604891016,0.000563746273206,0.929981801066,0.0,0.0,0.0,0.0,0.0,0.0,0.0,0.0,0.0,-0.00249697010346,-0.0111197827105,0.000763744330343,0.0,0.0,0.0,0.0,0.0,0.0,0.0,0.0,0.0,5.9620041665,-0.000496849663086,7.5762431935,0.0,0.0,0.0,0.0,0.0,0.0,0.0,0.0,0.0
33024000000,324,33024000000,imu_link,0.000414546786701,-0.367625580454,0.000563295408009,0.929973625134,0.0,0.0,0.0,0.0,0.0,0.0,0.0,0.0,0.0,-0.00238865299868,-0.0111218559302,0.000706802628639,0.0,0.0,0.0,0.0,0.0,0.0,0.0,0.0,0.0,5.96454950917,-0.000430935945783,7.5729859199,0.0,0.0,0.0,0.0,0.0,0.0,0.0,0.0,0.0
33028000000,325,33028000000,imu_link,0.000409659385129,-0.367646227659,0.000562799318015,0.92996546534,0.0,0.0,0.0,0.0,0.0,0.0,0.0,0.0,0.0,-0.00236788889466,-0.0110992787657,0.000674269419015,0.0,0.0,0.0,0.0,0.0,0.0,0.0,0.0,0.0,5.96632017092,-0.000351865641869,7.56745727448,0.0,0.0,0.0,0.0,0.0,0.0,0.0,0.0,0.0
33032000000,326,33032000000,imu_link,0.000404717500166,-0.367666786299,0.000562229433912,0.929957340072,0.0,0.0,0.0,0.0,0.0,0.0,0.0,0.0,0.0,-0.00240676994401,-0.0110517509353,0.000649943882183,0.0,0.0,0.0,0.0,0.0,0.0,0.0,0.0,0.0,5.9688908922,-0.000300760509964,7.56366173572,0.0,0.0,0.0,0.0,0.0,0.0,0.0,0.0,0.0
33036000000,327,33036000000,imu_link,0.00039980663141,-0.367687113745,0.000561556777228,0.929949305712,0.0,0.0,0.0,0.0,0.0,0.0,0.0,0.0,0.0,-0.00241119450552,-0.0109275680712,0.000596382669787,0.0,0.0,0.0,0.0,0.0,0.0,0.0,0.0,0.0,5.97105746995,-0.000227330338634,7.55833354702,0.0,0.0,0.0,0.0,0.0,0.0,0.0,0.0,0.0
33040000000,328,33040000000,imu_link,0.000395202099271,-0.367707057288,0.000560773654616,0.929941422547,0.0,0.0,0.0,0.0,0.0,0.0,0.0,0.0,0.0,-0.00228898662482,-0.0107213744524,0.000488581604077,0.0,0.0,0.0,0.0,0.0,0.0,0.0,0.0,0.0,5.97392223367,-0.000135471481906,7.55444507016,0.0,0.0,0.0,0.0,0.0,0.0,0.0,0.0,0.0
33044000000,329,33044000000,imu_link,0.000390842959294,-0.367726720605,0.000559852175567,0.929933649655,0.0,0.0,0.0,0.0,0.0,0.0,0.0,0.0,0.0,-0.00220026699374,-0.0105708998379,0.000379047406461,0.0,0.0,0.0,0.0,0.0,0.0,0.0,0.0,0.0,5.97710502421,2.13036926597e-05,7.55333180224,0.0,0.0,0.0,0.0,0.0,0.0,0.0,0.0,0.0
33048000000,330,33048000000,imu_link,0.000386536997091,-0.367746312194,0.000558797298854,0.929925904684,0.0,0.0,0.0,0.0,0.0,0.0,0.0,0.0,0.0,-0.00220005341448,-0.0105324562344,0.000307222641243,0.0,0.0,0.0,0.0,0.0,0.0,0.0,0.0,0.0,5.98044790948,0.000162066161592,7.55332060928,0.0,0.0,0.0,0.0,0.0,0.0,0.0,0.0,0.0
33052000000,331,33052000000,imu_link,0.000382300433012,-0.367766223966,0.000557681649887,0.929918032596,0.0,0.0,0.0,0.0,0.0,0.0,0.0,0.0,0.0,-0.00217902513456,-0.0107047340398,0.000266302739813,0.0,0.0,0.0,0.0,0.0,0.0,0.0,0.0,0.0,5.98478372455,0.000221091455293,7.55689682671,0.0,0.0,0.0,0.0,0.0,0.0,0.0,0.0,0.0
33056000000,332,33056000000,imu_link,0.000378156560131,-0.367786685424,0.0005565319047,0.929909942572,0.0,0.0,0.0,0.0,0.0,0.0,0.0,0.0,0.0,-0.00214230886204,-0.0110004222111,0.000233570890675,0.0,0.0,0.0,0.0,0.0,0.0,0.0,0.0,0.0,5.98703429268,0.000281854791237,7.55421260893,0.0,0.0,0.0,0.0,0.0,0.0,0.0,0.0,0.0
33060000000,333,33060000000,imu_link,0.000374146105105,-0.367807692691,0.000555338583442,0.929901636095,0.0,0.0,0.0,0.0,0.0,0.0,0.0,0.0,0.0,-0.00208839986962,-0.0112940487984,0.000188938757122,0.0,0.0,0.0,0.0,0.0,0.0,0.0,0.0,0.0,5.98973402037,0.000360329565316,7.5506444515,0.0,0.0,0.0,0.0,0.0,0.0,0.0,0.0,0.0
33064000000,334,33064000000,imu_link,0.000370322034061,-0.367829329432,0.000554060298731,0.92989308003,0.0,0.0,0.0,0.0,0.0,0.0,0.0,0.0,0.0,-0.00201749368552,-0.0116326910718,0.000115345259629,0.0,0.0,0.0,0.0,0.0,0.0,0.0,0.0,0.0,5.99361913935,0.000400649542084,7.55098848044,0.0,0.0,0.0,0.0,0.0,0.0,0.0,0.0,0.0
33068000000,335,33068000000,imu_link,0.000366813764634,-0.367851515374,0.000552700050041,0.929884306034,0.0,0.0,0.0,0.0,0.0,0.0,0.0,0.0,0.0,-0.00188584898638,-0.0119282235706,1.93179061616e-05,0.0,0.0,0.0,0.0,0.0,0.0,0.0,0.0,0.0,5.99697802448,0.000436357314016,7.54894698264,0.0,0.0,0.0,0.0,0.0,0.0,0.0,0.0,0.0
33072000000,336,33072000000,imu_link,0.000363644352009,-0.367874312114,0.000551285474322,0.929875289667,0.0,0.0,0.0,0.0,0.0,0.0,0.0,0.0,0.0,-0.00173841665709,-0.0122568907952,-6.80865098501e-05,0.0,0.0,0.0,0.0,0.0,0.0,0.0,0.0,0.0,6.00045263096,0.000505247782,7.54828486484,0.0,0.0,0.0,0.0,0.0,0.0,0.0,0.0,0.0
33076000000,337,33076000000,imu_link,0.000360555053058,-0.36789762443,0.000549819879778,0.929866068656,0.0,0.0,0.0,0.0,0.0,0.0,0.0,0.0,0.0,-0.00171065795768,-0.0125342751779,-0.000106392811425,0.0,0.0,0.0,0.0,0.0,0.0,0.0,0.0,0.0,6.00276207647,0.000617331393388,7.5438419314,0.0,0.0,0.0,0.0,0.0,0.0,0.0,0.0,0.0
33080000000,338,33080000000,imu_link,0.000357280010879,-0.367921241931,0.000548286962302,0.929856726312,0.0,0.0,0.0,0.0,0.0,0.0,0.0,0.0,0.0,-0.00180946211861,-0.0126984455398,-0.000103437846587,0.0,0.0,0.0,0.0,0.0,0.0,0.0,0.0,0.0,6.00519123153,0.000729383979172,7.53905535709,0.0,0.0,0.0,0.0,0.0,0.0,0.0,0.0,0.0
33084000000,339,33084000000,imu_link,0.000353626376786,-0.367944679033,0.000546680322118,0.929847454834,0.0,0.0,0.0,0.0,0.0,0.0,0.0,0.0,0.0,-0.00199900551669,-0.0126014454825,-6.81192753877e-05,0.0,0.0,0.0,0.0,0.0,0.0,0.0,0.0,0.0,6.00846757912,0.00080246943385,7.53419896489,0.0,0.0,0.0,0.0,0.0,0.0,0.0,0.0,0.0
33088000000,340,33088000000,imu_link,0.000349522585705,-0.367967668462,0.000545022879585,0.929838360012,0.0,0.0,0.0,0.0,0.0,0.0,0.0,0.0,0.0,-0.00221754927728,-0.0123606981002,-9.0495000783e-06,0.0,0.0,0.0,0.0,0.0,0.0,0.0,0.0,0.0,6.01116222245,0.000848430250006,7.52996528222,0.0,0.0,0.0,0.0,0.0,0.0,0.0,0.0,0.0
33092000000,341,33092000000,imu_link,0.000345037277947,-0.367990199921,0.000543325937949,0.929829445924,0.0,0.0,0.0,0.0,0.0,0.0,0.0,0.0,0.0,-0.002402097677,-0.0121144297491,4.26502230428e-05,0.0,0.0,0.0,0.0,0.0,0.0,0.0,0.0,0.0,6.01377162644,0.000848865857355,7.52735633827,0.0,0.0,0.0,0.0,0.0,0.0,0.0,0.0,0.0
33096000000,342,33096000000,imu_link,0.000340144479283,-0.368012374962,0.000541543753915,0.929820672446,0.0,0.0,0.0,0.0,0.0,0.0,0.0,0.0,0.0,-0.00260715781438,-0.0119227582316,7.78964201133e-05,0.0,0.0,0.0,0.0,0.0,0.0,0.0,0.0,0.0,6.01535047526,0.000866848262106,7.52329074637,0.0,0.0,0.0,0.0,0.0,0.0,0.0,0.0,0.0
33100000000,343,33100000000,imu_link,0.000334804984712,-0.368034270414,0.000539597078342,0.929812009248,0.0,0.0,0.0,0.0,0.0,0.0,0.0,0.0,0.0,-0.00284504187055,-0.0117723893048,8.35400028074e-05,0.0,0.0,0.0,0.0,0.0,0.0,0.0,0.0,0.0,6.01836499902,0.000881181688716,7.52237280844,0.0,0.0,0.0,0.0,0.0,0.0,0.0,0.0,0.0
33104000000,344,33104000000,imu_link,0.000328900169796,-0.368055789281,0.000537399447229,0.929803494833,0.0,0.0,0.0,0.0,0.0,0.0,0.0,0.0,0.0,-0.0031539661178,-0.0115698233559,7.07947128031e-05,0.0,0.0,0.0,0.0,0.0,0.0,0.0,0.0,0.0,6.02179605163,0.000929028242687,7.52067793164,0.0,0.0,0.0,0.0,0.0,0.0,0.0,0.0,0.0
33108000000,345,33108000000,imu_link,0.000322330748551,-0.36807669789,0.000534908657806,0.929795221781,0.0,0.0,0.0,0.0,0.0,0.0,0.0,0.0,0.0,-0.00351676778425,-0.0112415656973,5.66457949243e-05,0.0,0.0,0.0,0.0,0.0,0.0,0.0,0.0,0.0,6.02407437986,0.000904347553338,7.5155319711,0.0,0.0,0.0,0.0,0.0,0.0,0.0,0.0,0.0
33112000000,346,33112000000,imu_link,0.000315140203756,-0.368096815754,0.000532133439903,0.929787261556,0.0,0.0,0.0,0.0,0.0,0.0,0.0,0.0,0.0,-0.00385771131517,-0.0108162577403,3.85151189777e-05,0.0,0.0,0.0,0.0,0.0,0.0,0.0,0.0,0.0,6.02623545842,0.000815824222192,7.51062447701,0.0,0.0,0.0,0.0,0.0,0.0,0.0,0.0,0.0
33116000000,347,33116000000,imu_link,0.000307496094099,-0.368116196959,0.000529108520179,0.929779592714,0.0,0.0,0.0,0.0,0.0,0.0,0.0,0.0,0.0,-0.00411437786634,-0.0104200800406,5.71462135297e-06,0.0,0.0,0.0,0.0,0.0,0.0,0.0,0.0,0.0,6.02735313461,0.000722496196398,7.50514696766,0.0,0.0,0.0,0.0,0.0,0.0,0.0,0.0,0.0
33120000000,348,33120000000,imu_link,0.000299841578168,-0.368135232224,0.00052591918293,0.929772060399,0.0,0.0,0.0,0.0,0.0,0.0,0.0,0.0,0.0,-0.00414940748467,-0.0102341493208,-6.88953566055e-05,0.0,0.0,0.0,0.0,0.0,0.0,0.0,0.0,0.0,6.03019630803,0.00059673297733,7.50605356103,0.0,0.0,0.0,0.0,0.0,0.0,0.0,0.0,0.0
33124000000,349,33124000000,imu_link,0.000292701984142,-0.368154330779,0.000522664371578,0.929764502375,0.0,0.0,0.0,0.0,0.0,0.0,0.0,0.0,0.0,-0.00392209193442,-0.0102684494148,-0.000194097550593,0.0,0.0,0.0,0.0,0.0,0.0,0.0,0.0,0.0,6.03406413023,0.00056245948974,7.5095448731,0.0,0.0,0.0,0.0,0.0,0.0,0.0,0.0,0.0
33128000000,350,33128000000,imu_link,0.000286276123377,-0.368173870179,0.000519382744294,0.929756769056,0.0,0.0,0.0,0.0,0.0,0.0,0.0,0.0,0.0,-0.00359531576265,-0.0105058484056,-0.000337835469183,0.0,0.0,0.0,0.0,0.0,0.0,0.0,0.0,0.0,6.0375223908,0.000751859807456,7.51188240651,0.0,0.0,0.0,0.0,0.0,0.0,0.0,0.0,0.0
33132000000,351,33132000000,imu_link,0.000280489238514,-0.368194170931,0.000516094358444,0.929748733511,0.0,0.0,0.0,0.0,0.0,0.0,0.0,0.0,0.0,-0.0032996682976,-0.0109155878408,-0.000458417031636,0.0,0.0,0.0,0.0,0.0,0.0,0.0,0.0,0.0,6.04094761874,0.00105870577569,7.51352348515,0.0,0.0,0.0,0.0,0.0,0.0,0.0,0.0,0.0
33136000000,352,33136000000,imu_link,0.000274886193322,-0.368215552561,0.000512742896564,0.929740269314,0.0,0.0,0.0,0.0,0.0,0.0,0.0,0.0,0.0,-0.0032260368622,-0.0114970297009,-0.000521321608964,0.0,0.0,0.0,0.0,0.0,0.0,0.0,0.0,0.0,6.04321396272,0.00137338381407,7.51259397724,0.0,0.0,0.0,0.0,0.0,0.0,0.0,0.0,0.0
33140000000,353,33140000000,imu_link,0.000268856437055,-0.368238099072,0.000509256876743,0.929731343328,0.0,0.0,0.0,0.0,0.0,0.0,0.0,0.0,0.0,-0.00344941043229,-0.0121234762385,-0.000505034255627,0.0,0.0,0.0,0.0,0.0,0.0,0.0,0.0,0.0,6.04625679292,0.00161294751625,7.51171134482,0.0,0.0,0.0,0.0,0.0,0.0,0.0,0.0,0.0
33144000000,354,33144000000,imu_link,0.000262106612586,-0.368261554913,0.000505587207632,0.929722056776,0.0,0.0,0.0,0.0,0.0,0.0,0.0,0.0,0.0,-0.00381814182501,-0.0126124210613,-0.000457614183491,0.0,0.0,0.0,0.0,0.0,0.0,0.0,0.0,0.0,6.04814246119,0.00168511523981,7.50573662097,0.0,0.0,0.0,0.0,0.0,0.0,0.0,0.0,0.0
33148000000,355,33148000000,imu_link,0.000254616826294,-0.36828551859,0.000501710950835,0.929712568622,0.0,0.0,0.0,0.0,0.0,0.0,0.0,0.0,0.0,-0.00420026234778,-0.0128854552127,-0.000417281484709,0.0,0.0,0.0,0.0,0.0,0.0,0.0,0.0,0.0,6.05056169609,0.00167213505113,7.49962356355,0.0,0.0,0.0,0.0,0.0,0.0,0.0,0.0,0.0
33152000000,356,33152000000,imu_link,0.000246897137201,-0.368309758289,0.000497642344395,0.929702970493,0.0,0.0,0.0,0.0,0.0,0.0,0.0,0.0,0.0,-0.00434260914435,-0.0130339840709,-0.000464298760405,0.0,0.0,0.0,0.0,0.0,0.0,0.0,0.0,0.0,6.05398845913,0.00158937872728,7.49740637212,0.0,0.0,0.0,0.0,0.0,0.0,0.0,0.0,0.0
33156000000,357,33156000000,imu_link,0.000239445498937,-0.368334267749,0.000493403250984,0.929693264696,0.0,0.0,0.0,0.0,0.0,0.0,0.0,0.0,0.0,-0.00424945515694,-0.0131792977396,-0.000592852659066,0.0,0.0,0.0,0.0,0.0,0.0,0.0,0.0,0.0,6.05581946328,0.00154546229464,7.49335921558,0.0,0.0,0.0,0.0,0.0,0.0,0.0,0.0,0.0
33160000000,358,33160000000,imu_link,0.000232566295634,-0.368359189723,0.000489042066025,0.929683394547,0.0,0.0,0.0,0.0,0.0,0.0,0.0,0.0,0.0,-0.00400592803498,-0.0134014779907,-0.000754940276784,0.0,0.0,0.0,0.0,0.0,0.0,0.0,0.0,0.0,6.05767504545,0.00159341259367,7.49036538203,0.0,0.0,0.0,0.0,0.0,0.0,0.0,0.0,0.0
33164000000,359,33164000000,imu_link,0.000226284334248,-0.368384485488,0.000484565407153,0.929673375355,0.0,0.0,0.0,0.0,0.0,0.0,0.0,0.0,0.0,-0.00374964709468,-0.0136028416462,-0.000918537231303,0.0,0.0,0.0,0.0,0.0,0.0,0.0,0.0,0.0,6.05931942833,0.00172650179811,7.48554579451,0.0,0.0,0.0,0.0,0.0,0.0,0.0,0.0,0.0
33168000000,360,33168000000,imu_link,0.000220483485195,-0.368410129769,0.000479976414008,0.929663217135,0.0,0.0,0.0,0.0,0.0,0.0,0.0,0.0,0.0,-0.00354676824316,-0.0137905813522,-0.00105929836617,0.0,0.0,0.0,0.0,0.0,0.0,0.0,0.0,0.0,6.06126553778,0.00187683825613,7.48148948026,0.0,0.0,0.0,0.0,0.0,0.0,0.0,0.0,0.0
33172000000,361,33172000000,imu_link,0.000215049840376,-0.368436265449,0.000475279616103,0.929652863258,0.0,0.0,0.0,0.0,0.0,0.0,0.0,0.0,0.0,-0.00339603465129,-0.014055140715,-0.00117694917828,0.0,0.0,0.0,0.0,0.0,0.0,0.0,0.0,0.0,6.06438317897,0.00207813500615,7.48158057145,0.0,0.0,0.0,0.0,0.0,0.0,0.0,0.0,0.0
33176000000,362,33176000000,imu_link,0.000209903613221,-0.368463051661,0.00047048301262,0.929642250625,0.0,0.0,0.0,0.0,0.0,0.0,0.0,0.0,0.0,-0.00328094809098,-0.0144052715723,-0.00127615755513,0.0,0.0,0.0,0.0,0.0,0.0,0.0,0.0,0.0,6.06664140384,0.00229409076438,7.47977905998,0.0,0.0,0.0,0.0,0.0,0.0,0.0,0.0,0.0
33180000000,363,33180000000,imu_link,0.000204993942708,-0.36849063651,0.000465545779447,0.929631320497,0.0,0.0,0.0,0.0,0.0,0.0,0.0,0.0,0.0,-0.00319705454007,-0.0148350576982,-0.00138494789028,0.0,0.0,0.0,0.0,0.0,0.0,0.0,0.0,0.0,6.06911999309,0.00247044874614,7.47846260485,0.0,0.0,0.0,0.0,0.0,0.0,0.0,0.0,0.0
33184000000,364,33184000000,imu_link,0.000200383789224,-0.368518970689,0.000460472918212,0.929620092324,0.0,0.0,0.0,0.0,0.0,0.0,0.0,0.0,0.0,-0.00308296704484,-0.0152383554963,-0.00150302836744,0.0,0.0,0.0,0.0,0.0,0.0,0.0,0.0,0.0,6.07130451769,0.00259448105999,7.47503154279,0.0,0.0,0.0,0.0,0.0,0.0,0.0,0.0,0.0
33188000000,365,33188000000,imu_link,0.000196259050344,-0.368548083289,0.000455298583302,0.929608554441,0.0,0.0,0.0,0.0,0.0,0.0,0.0,0.0,0.0,-0.00287618713766,-0.015657362399,-0.001639487298,0.0,0.0,0.0,0.0,0.0,0.0,0.0,0.0,0.0,6.0738405808,0.00269217369737,7.47307293553,0.0,0.0,0.0,0.0,0.0,0.0,0.0,0.0,0.0
33192000000,366,33192000000,imu_link,0.000193012077244,-0.368578050606,0.000450103307011,0.929596676395,0.0,0.0,0.0,0.0,0.0,0.0,0.0,0.0,0.0,-0.00247221799726,-0.0161175229823,-0.00181080907899,0.0,0.0,0.0,0.0,0.0,0.0,0.0,0.0,0.0,6.07718885283,0.00280426448902,7.47346063334,0.0,0.0,0.0,0.0,0.0,0.0,0.0,0.0,0.0
33196000000,367,33196000000,imu_link,0.000190995940525,-0.368608715642,0.000444943961192,0.929584520255,0.0,0.0,0.0,0.0,0.0,0.0,0.0,0.0,0.0,-0.00189363588594,-0.0164933453685,-0.00202080837273,0.0,0.0,0.0,0.0,0.0,0.0,0.0,0.0,0.0,6.07941612955,0.00299329219112,7.46910261641,0.0,0.0,0.0,0.0,0.0,0.0,0.0,0.0,0.0
33200000000,368,33200000000,imu_link,0.000190346054352,-0.368639698213,0.000439862082313,0.929572236672,0.0,0.0,0.0,0.0,0.0,0.0,0.0,0.0,0.0,-0.00124439418365,-0.0166647178406,-0.00223654959135,0.0,0.0,0.0,0.0,0.0,0.0,0.0,0.0,0.0,6.08182141066,0.00322812427344,7.46371265753,0.0,0.0,0.0,0.0,0.0,0.0,0.0,0.0,0.0
33204000000,369,33204000000,imu_link,0.000191094394317,-0.368670659993,0.000434890967628,0.929559959773,0.0,0.0,0.0,0.0,0.0,0.0,0.0,0.0,0.0,-0.00057409810842,-0.0166541190444,-0.00244279221204,0.0,0.0,0.0,0.0,0.0,0.0,0.0,0.0,0.0,6.08466313739,0.0034518566477,7.46005524729,0.0,0.0,0.0,0.0,0.0,0.0,0.0,0.0,0.0
33208000000,370,33208000000,imu_link,0.000193442147857,-0.368701384583,0.000430101254341,0.929547775319,0.0,0.0,0.0,0.0,0.0,0.0,0.0,0.0,0.0,0.000202758730715,-0.0165271680171,-0.00265335166688,0.0,0.0,0.0,0.0,0.0,0.0,0.0,0.0,0.0,6.08647177638,0.003626646482,7.45523303559,0.0,0.0,0.0,0.0,0.0,0.0,0.0,0.0,0.0
33212000000,371,33212000000,imu_link,0.000197510887112,-0.368731751328,0.000425533197528,0.929535731144,0.0,0.0,0.0,0.0,0.0,0.0,0.0,0.0,0.0,0.00104355386407,-0.0163353390031,-0.00286766121253,0.0,0.0,0.0,0.0,0.0,0.0,0.0,0.0,0.0,6.08870461969,0.00382385878103,7.45224532706,0.0,0.0,0.0,0.0,0.0,0.0,0.0,0.0,0.0
33216000000,372,33216000000,imu_link,0.000203087860721,-0.368761759866,0.000421177906279,0.929523827465,0.0,0.0,0.0,0.0,0.0,0.0,0.0,0.0,0.0,0.0017838217754,-0.0161432531984,-0.00304690683077,0.0,0.0,0.0,0.0,0.0,0.0,0.0,0.0,0.0,6.09057753559,0.00412807749336,7.44928785433,0.0,0.0,0.0,0.0,0.0,0.0,0.0,0.0,0.0
33220000000,373,33220000000,imu_link,0.000209787155943,-0.368791392846,0.000417015492347,0.929512071277,0.0,0.0,0.0,0.0,0.0,0.0,0.0,0.0,0.0,0.00234106111704,-0.0159417301086,-0.00316426864192,0.0,0.0,0.0,0.0,0.0,0.0,0.0,0.0,0.0,6.09256416859,0.00447845634698,7.44675280726,0.0,0.0,0.0,0.0,0.0,0.0,0.0,0.0,0.0
33224000000,374,33224000000,imu_link,0.000217281922224,-0.368820810415,0.000413019251519,0.929500399144,0.0,0.0,0.0,0.0,0.0,0.0,0.0,0.0,0.0,0.00274143879634,-0.0158262658209,-0.00323376024975,0.0,0.0,0.0,0.0,0.0,0.0,0.0,0.0,0.0,6.09464559105,0.00476853848664,7.44512950585,0.0,0.0,0.0,0.0,0.0,0.0,0.0,0.0,0.0
33228000000,375,33228000000,imu_link,0.000225484354535,-0.368850434758,0.000409175272127,0.929488643562,0.0,0.0,0.0,0.0,0.0,0.0,0.0,0.0,0.0,0.00309837168388,-0.0159378824883,-0.00329345799979,0.0,0.0,0.0,0.0,0.0,0.0,0.0,0.0,0.0,6.09712350959,0.00494990599751,7.44633420221,0.0,0.0,0.0,0.0,0.0,0.0,0.0,0.0,0.0
33232000000,376,33232000000,imu_link,0.000234463082283,-0.368880574562,0.000405479925731,0.929476681969,0.0,0.0,0.0,0.0,0.0,0.0,0.0,0.0,0.0,0.00348648002232,-0.0162155754136,-0.00336744985218,0.0,0.0,0.0,0.0,0.0,0.0,0.0,0.0,0.0,6.09949825852,0.00507509534309,7.44648580174,0.0,0.0,0.0,0.0,0.0,0.0,0.0,0.0,0.0
33236000000,377,33236000000,imu_link,0.000244648328875,-0.368911209755,0.000401947644846,0.929464522132,0.0,0.0,0.0,0.0,0.0,0.0,0.0,0.0,0.0,0.00407719424337,-0.016482591619,-0.00351409947206,0.0,0.0,0.0,0.0,0.0,0.0,0.0,0.0,0.0,6.10165158743,0.00513489126069,7.44396517647,0.0,0.0,0.0,0.0,0.0,0.0,0.0,0.0,0.0
33240000000,378,33240000000,imu_link,0.000256265974244,-0.368942111137,0.000398551385788,0.929452254887,0.0,0.0,0.0,0.0,0.0,0.0,0.0,0.0,0.0,0.00476792579602,-0.016626381822,-0.00371504557636,0.0,0.0,0.0,0.0,0.0,0.0,0.0,0.0,0.0,6.10407294782,0.00530558067773,7.44000809042,0.0,0.0,0.0,0.0,0.0,0.0,0.0,0.0,0.0
33244000000,379,33244000000,imu_link,0.00026914761135,-0.368973102277,0.000395249089443,0.929439950257,0.0,0.0,0.0,0.0,0.0,0.0,0.0,0.0,0.0,0.00537265608679,-0.0166752305917,-0.00390452958828,0.0,0.0,0.0,0.0,0.0,0.0,0.0,0.0,0.0,6.10594075996,0.00552693461478,7.43526090655,0.0,0.0,0.0,0.0,0.0,0.0,0.0,0.0,0.0
33248000000,380,33248000000,imu_link,0.00028260972553,-0.369004035785,0.000391953411426,0.929427666943,0.0,0.0,0.0,0.0,0.0,0.0,0.0,0.0,0.0,0.00564364489118,-0.0166446293013,-0.00400855610042,0.0,0.0,0.0,0.0,0.0,0.0,0.0,0.0,0.0,6.10939330571,0.00577350155957,7.43456452032,0.0,0.0,0.0,0.0,0.0,0.0,0.0,0.0,0.0
33252000000,381,33252000000,imu_link,0.000295807162146,-0.369034780549,0.00038858540606,0.929415457287,0.0,0.0,0.0,0.0,0.0,0.0,0.0,0.0,0.0,0.0055073276053,-0.0165432854564,-0.003993375181,0.0,0.0,0.0,0.0,0.0,0.0,0.0,0.0,0.0,6.11346604729,0.00589233093906,7.43575056813,0.0,0.0,0.0,0.0,0.0,0.0,0.0,0.0,0.0
33256000000,382,33256000000,imu_link,0.000308236852611,-0.36906545173,0.000385159806156,0.929403275753,0.0,0.0,0.0,0.0,0.0,0.0,0.0,0.0,0.0,0.00513993297821,-0.0165037615422,-0.00387849363905,0.0,0.0,0.0,0.0,0.0,0.0,0.0,0.0,0.0,6.11531758865,0.00584141229667,7.43398805769,0.0,0.0,0.0,0.0,0.0,0.0,0.0,0.0,0.0
