%time,field.header.seq,field.header.stamp,field.header.frame_id,field.orientation.x,field.orientation.y,field.orientation.z,field.orientation.w,field.orientation_covariance0,field.orientation_covariance1,field.orientation_covariance2,field.orientation_covariance3,field.orientation_covariance4,field.orientation_covariance5,field.orientation_covariance6,field.orientation_covariance7,field.orientation_covariance8,field.angular_velocity.x,field.angular_velocity.y,field.angular_velocity.z,field.angular_velocity_covariance0,field.angular_velocity_covariance1,field.angular_velocity_covariance2,field.angular_velocity_covariance3,field.angular_velocity_covariance4,field.angular_velocity_covariance5,field.angular_velocity_covariance6,field.angular_velocity_covariance7,field.angular_velocity_covariance8,field.linear_acceleration.x,field.linear_acceleration.y,field.linear_acceleration.z,field.linear_acceleration_covariance0,field.linear_acceleration_covariance1,field.linear_acceleration_covariance2,field.linear_acceleration_covariance3,field.linear_acceleration_covariance4,field.linear_acceleration_covariance5,field.linear_acceleration_covariance6,field.linear_acceleration_covariance7,field.linear_acceleration_covariance8
520904000000,0,520904000000,imu_link,-0.00393381871207,-0.325669614783,0.000724507911068,0.945475172686,0.0,0.0,0.0,0.0,0.0,0.0,0.0,0.0,0.0,-0.000142732215225,-0.205668065734,0.00280122459365,0.0,0.0,0.0,0.0,0.0,0.0,0.0,0.0,0.0,4.61931847424,-0.0857005530806,8.82857485307,0.0,0.0,0.0,0.0,0.0,0.0,0.0,0.0,0.0
520908000000,1,520908000000,imu_link,-0.00393475805275,-0.326058468885,0.000731624445903,0.945341132752,0.0,0.0,0.0,0.0,0.0,0.0,0.0,0.0,0.0,0.000310249622353,-0.205665991209,0.00280092682117,0.0,0.0,0.0,0.0,0.0,0.0,0.0,0.0,0.0,4.62568900481,-0.0857226299139,8.82053082756,0.0,0.0,0.0,0.0,0.0,0.0,0.0,0.0,0.0
520912000000,2,520912000000,imu_link,-0.00393474000755,-0.326447012684,0.000739100778731,0.945207024657,0.0,0.0,0.0,0.0,0.0,0.0,0.0,0.0,0.0,0.000821414797601,-0.20553149036,0.00281554627462,0.0,0.0,0.0,0.0,0.0,0.0,0.0,0.0,0.0,4.6318047489,-0.0856394799376,8.81358920282,0.0,0.0,0.0,0.0,0.0,0.0,0.0,0.0,0.0
520916000000,3,520916000000,imu_link,-0.00393411083813,-0.326835035211,0.000746790576993,0.945072920379,0.0,0.0,0.0,0.0,0.0,0.0,0.0,0.0,0.0,0.00114527699822,-0.205285157897,0.00281770507539,0.0,0.0,0.0,0.0,0.0,0.0,0.0,0.0,0.0,4.63863174937,-0.0856304242235,8.80700351279,0.0,0.0,0.0,0.0,0.0,0.0,0.0,0.0,0.0
520920000000,4,520920000000,imu_link,-0.00393345511601,-0.327222311125,0.00075450345463,0.944938896309,0.0,0.0,0.0,0.0,0.0,0.0,0.0,0.0,0.0,0.00116203224792,-0.204919304078,0.00282571042411,0.0,0.0,0.0,0.0,0.0,0.0,0.0,0.0,0.0,4.64540484781,-0.0855320012267,8.80288852981,0.0,0.0,0.0,0.0,0.0,0.0,0.0,0.0,0.0
520924000000,5,520924000000,imu_link,-0.00393323065465,-0.327608788844,0.000762084166715,0.944804969503,0.0,0.0,0.0,0.0,0.0,0.0,0.0,0.0,0.0,0.000937143351536,-0.204525845316,0.00283535844719,0.0,0.0,0.0,0.0,0.0,0.0,0.0,0.0,0.0,4.65101996074,-0.0855410558261,8.79999916895,0.0,0.0,0.0,0.0,0.0,0.0,0.0,0.0,0.0
520928000000,6,520928000000,imu_link,-0.00393357829996,-0.327994324803,0.000769441002026,0.944671190319,0.0,0.0,0.0,0.0,0.0,0.0,0.0,0.0,0.0,0.00063085588076,-0.204056116021,0.00282510791661,0.0,0.0,0.0,0.0,0.0,0.0,0.0,0.0,0.0,4.65477899439,-0.085543531493,8.79368750889,0.0,0.0,0.0,0.0,0.0,0.0,0.0,0.0,0.0
520932000000,7,520932000000,imu_link,-0.00393422327238,-0.328379185415,0.000776553542255,0.94453746852,0.0,0.0,0.0,0.0,0.0,0.0,0.0,0.0,0.0,0.000450726670543,-0.203727119059,0.00275978564127,0.0,0.0,0.0,0.0,0.0,0.0,0.0,0.0,0.0,4.65932583082,-0.0856276249206,8.79535979095,0.0,0.0,0.0,0.0,0.0,0.0,0.0,0.0,0.0
520936000000,8,520936000000,imu_link,-0.00393432554408,-0.328763201499,0.000783601013645,0.944403867205,0.0,0.0,0.0,0.0,0.0,0.0,0.0,0.0,0.0,0.000696908560379,-0.203308575897,0.00264156433931,0.0,0.0,0.0,0.0,0.0,0.0,0.0,0.0,0.0,4.66441949621,-0.0858254195213,8.79520558178,0.0,0.0,0.0,0.0,0.0,0.0,0.0,0.0,0.0
520940000000,9,520940000000,imu_link,-0.00393291981574,-0.329146062319,0.000790750152514,0.944270499653,0.0,0.0,0.0,0.0,0.0,0.0,0.0,0.0,0.0,0.00142661389991,-0.202725422289,0.00244386544638,0.0,0.0,0.0,0.0,0.0,0.0,0.0,0.0,0.0,4.66999268009,-0.0860426863971,8.79151345383,0.0,0.0,0.0,0.0,0.0,0.0,0.0,0.0,0.0
520944000000,10,520944000000,imu_link,-0.00392963834387,-0.32952727564,0.000798071989414,0.944137540633,0.0,0.0,0.0,0.0,0.0,0.0,0.0,0.0,0.0,0.00234209479807,-0.201881427028,0.00221978367445,0.0,0.0,0.0,0.0,0.0,0.0,0.0,0.0,0.0,4.67773981224,-0.0858739061623,8.78520775034,0.0,0.0,0.0,0.0,0.0,0.0,0.0,0.0,0.0
520948000000,11,520948000000,imu_link,-0.00392470907349,-0.329906560254,0.000805528574534,0.944005089649,0.0,0.0,0.0,0.0,0.0,0.0,0.0,0.0,0.0,0.00314393850426,-0.200888161477,0.00201548364017,0.0,0.0,0.0,0.0,0.0,0.0,0.0,0.0,0.0,4.68478698147,-0.0855118379982,8.78036186281,0.0,0.0,0.0,0.0,0.0,0.0,0.0,0.0,0.0
520952000000,12,520952000000,imu_link,-0.00391902279743,-0.33028448766,0.000812940407392,0.943872945687,0.0,0.0,0.0,0.0,0.0,0.0,0.0,0.0,0.0,0.00349501422637,-0.200197128252,0.00187202954281,0.0,0.0,0.0,0.0,0.0,0.0,0.0,0.0,0.0,4.69269785141,-0.085020152465,8.78562581151,0.0,0.0,0.0,0.0,0.0,0.0,0.0,0.0,0.0
520956000000,13,520956000000,imu_link,-0.00391336198475,-0.330661361536,0.000820205274486,0.943741000937,0.0,0.0,0.0,0.0,0.0,0.0,0.0,0.0,0.0,0.00345954545505,-0.199666732311,0.00180885954202,0.0,0.0,0.0,0.0,0.0,0.0,0.0,0.0,0.0,4.69930213298,-0.0846569630356,8.78719603863,0.0,0.0,0.0,0.0,0.0,0.0,0.0,0.0,0.0
520960000000,14,520960000000,imu_link,-0.00390770759132,-0.331038069425,0.00082744194813,0.943608945354,0.0,0.0,0.0,0.0,0.0,0.0,0.0,0.0,0.0,0.00345170636796,-0.199606674202,0.00179698741787,0.0,0.0,0.0,0.0,0.0,0.0,0.0,0.0,0.0,4.70504176181,-0.0845218133665,8.78925393228,0.0,0.0,0.0,0.0,0.0,0.0,0.0,0.0,0.0
520964000000,15,520964000000,imu_link,-0.0039015035908,-0.331415125871,0.000834901038411,0.943476600427,0.0,0.0,0.0,0.0,0.0,0.0,0.0,0.0,0.0,0.0037471181148,-0.199819679247,0.00181039282728,0.0,0.0,0.0,0.0,0.0,0.0,0.0,0.0,0.0,4.71105173385,-0.0847484027824,8.78923558003,0.0,0.0,0.0,0.0,0.0,0.0,0.0,0.0,0.0
520968000000,16,520968000000,imu_link,-0.00389432220652,-0.331792135567,0.000842778052499,0.943344106228,0.0,0.0,0.0,0.0,0.0,0.0,0.0,0.0,0.0,0.00427716897723,-0.199823583777,0.00184573712678,0.0,0.0,0.0,0.0,0.0,0.0,0.0,0.0,0.0,4.71739403732,-0.0847960715924,8.78470610917,0.0,0.0,0.0,0.0,0.0,0.0,0.0,0.0,0.0
520972000000,17,520972000000,imu_link,-0.00388647032683,-0.332169444544,0.000851000740225,0.943211339657,0.0,0.0,0.0,0.0,0.0,0.0,0.0,0.0,0.0,0.00465011238016,-0.200010887398,0.00189708120155,0.0,0.0,0.0,0.0,0.0,0.0,0.0,0.0,0.0,4.72450694773,-0.0847258846301,8.78664001812,0.0,0.0,0.0,0.0,0.0,0.0,0.0,0.0,0.0
520976000000,18,520976000000,imu_link,-0.00387883885405,-0.332547037839,0.000859374683175,0.943078302003,0.0,0.0,0.0,0.0,0.0,0.0,0.0,0.0,0.0,0.00457064065204,-0.200190196209,0.00200458310193,0.0,0.0,0.0,0.0,0.0,0.0,0.0,0.0,0.0,4.73049582549,-0.0846248198158,8.7859548187,0.0,0.0,0.0,0.0,0.0,0.0,0.0,0.0,0.0
520980000000,19,520980000000,imu_link,-0.00387205058803,-0.332925029865,0.000867723276678,0.942944950021,0.0,0.0,0.0,0.0,0.0,0.0,0.0,0.0,0.0,0.00416803973793,-0.200430066759,0.00213219456496,0.0,0.0,0.0,0.0,0.0,0.0,0.0,0.0,0.0,4.7343566487,-0.0846279137308,8.78107079623,0.0,0.0,0.0,0.0,0.0,0.0,0.0,0.0,0.0
520984000000,20,520984000000,imu_link,-0.00386659314454,-0.333303382717,0.000875873910198,0.942811294678,0.0,0.0,0.0,0.0,0.0,0.0,0.0,0.0,0.0,0.0035068967102,-0.200649724278,0.00225982700596,0.0,0.0,0.0,0.0,0.0,0.0,0.0,0.0,0.0,4.73761700025,-0.0846936673038,8.77691193303,0.0,0.0,0.0,0.0,0.0,0.0,0.0,0.0,0.0
520988000000,21,520988000000,imu_link,-0.00386257178868,-0.333681755352,0.00088369713745,0.942677455848,0.0,0.0,0.0,0.0,0.0,0.0,0.0,0.0,0.0,0.00277499063069,-0.200688365839,0.00234485439267,0.0,0.0,0.0,0.0,0.0,0.0,0.0,0.0,0.0,4.74382205561,-0.0849544752174,8.77175055067,0.0,0.0,0.0,0.0,0.0,0.0,0.0,0.0,0.0
520992000000,22,520992000000,imu_link,-0.00385966973663,-0.334060295677,0.000891237813471,0.942543382289,0.0,0.0,0.0,0.0,0.0,0.0,0.0,0.0,0.0,0.00219975082999,-0.200805527219,0.00239820254559,0.0,0.0,0.0,0.0,0.0,0.0,0.0,0.0,0.0,4.75235960649,-0.0852069226854,8.77109657544,0.0,0.0,0.0,0.0,0.0,0.0,0.0,0.0,0.0
520996000000,23,520996000000,imu_link,-0.00385742134927,-0.334438921412,0.000898626043264,0.942409104697,0.0,0.0,0.0,0.0,0.0,0.0,0.0,0.0,0.0,0.00186580221747,-0.200879272883,0.00243546675852,0.0,0.0,0.0,0.0,0.0,0.0,0.0,0.0,0.0,4.76010767256,-0.0855197300063,8.76662099397,0.0,0.0,0.0,0.0,0.0,0.0,0.0,0.0,0.0
521000000000,24,521000000000,imu_link,-0.00385542068139,-0.334817582453,0.000906010398561,0.942274642213,0.0,0.0,0.0,0.0,0.0,0.0,0.0,0.0,0.0,0.00174805529686,-0.200926707724,0.00247507958291,0.0,0.0,0.0,0.0,0.0,0.0,0.0,0.0,0.0,4.76665728115,-0.0857279109736,8.7592679233,0.0,0.0,0.0,0.0,0.0,0.0,0.0,0.0,0.0
521004000000,25,521004000000,imu_link,-0.00385319728054,-0.335196228008,0.000913537641951,0.942140014567,0.0,0.0,0.0,0.0,0.0,0.0,0.0,0.0,0.0,0.00187660247758,-0.200947437612,0.00250521671188,0.0,0.0,0.0,0.0,0.0,0.0,0.0,0.0,0.0,4.77290126838,-0.0858800096295,8.75251161306,0.0,0.0,0.0,0.0,0.0,0.0,0.0,0.0,0.0
521008000000,26,521008000000,imu_link,-0.00385037447967,-0.335575159956,0.000921265023079,0.942005115648,0.0,0.0,0.0,0.0,0.0,0.0,0.0,0.0,0.0,0.00219185113844,-0.20112847306,0.00249860942777,0.0,0.0,0.0,0.0,0.0,0.0,0.0,0.0,0.0,4.7789804709,-0.0858173306364,8.74759828949,0.0,0.0,0.0,0.0,0.0,0.0,0.0,0.0,0.0
521012000000,27,521012000000,imu_link,-0.00384661047079,-0.335955147067,0.000929214860407,0.941869672145,0.0,0.0,0.0,0.0,0.0,0.0,0.0,0.0,0.0,0.00267095347127,-0.201717694074,0.00244368331756,0.0,0.0,0.0,0.0,0.0,0.0,0.0,0.0,0.0,4.78688287888,-0.0858000730265,8.75256469896,0.0,0.0,0.0,0.0,0.0,0.0,0.0,0.0,0.0
521016000000,28,521016000000,imu_link,-0.00384171781196,-0.336336455564,0.000937421088037,0.941733588179,0.0,0.0,0.0,0.0,0.0,0.0,0.0,0.0,0.0,0.00324369618937,-0.20244858196,0.00237259469255,0.0,0.0,0.0,0.0,0.0,0.0,0.0,0.0,0.0,4.79343401248,-0.0857174805872,8.75333235906,0.0,0.0,0.0,0.0,0.0,0.0,0.0,0.0,0.0
521020000000,29,521020000000,imu_link,-0.00383570436531,-0.336719199179,0.00094591529167,0.941596821108,0.0,0.0,0.0,0.0,0.0,0.0,0.0,0.0,0.0,0.00381788161806,-0.203240286582,0.0023172756445,0.0,0.0,0.0,0.0,0.0,0.0,0.0,0.0,0.0,4.79733284926,-0.0853998312617,8.74839763504,0.0,0.0,0.0,0.0,0.0,0.0,0.0,0.0,0.0
521024000000,30,521024000000,imu_link,-0.00382861923638,-0.337102884961,0.000954736868642,0.941459545123,0.0,0.0,0.0,0.0,0.0,0.0,0.0,0.0,0.0,0.00437612279654,-0.203770672152,0.00228940825174,0.0,0.0,0.0,0.0,0.0,0.0,0.0,0.0,0.0,4.79970816169,-0.0851976045544,8.73892452193,0.0,0.0,0.0,0.0,0.0,0.0,0.0,0.0,0.0
521028000000,31,521028000000,imu_link,-0.00382082416399,-0.337486637149,0.000963772488015,0.941322071446,0.0,0.0,0.0,0.0,0.0,0.0,0.0,0.0,0.0,0.00474598136458,-0.203836002083,0.00227046963355,0.0,0.0,0.0,0.0,0.0,0.0,0.0,0.0,0.0,4.80285828702,-0.0851127982858,8.7322171363,0.0,0.0,0.0,0.0,0.0,0.0,0.0,0.0,0.0
521032000000,32,521032000000,imu_link,-0.00381255884736,-0.337870173556,0.000972877686608,0.941184500364,0.0,0.0,0.0,0.0,0.0,0.0,0.0,0.0,0.0,0.00497896595008,-0.203751237912,0.00222432645493,0.0,0.0,0.0,0.0,0.0,0.0,0.0,0.0,0.0,4.80554606597,-0.0850859937272,8.72844876709,0.0,0.0,0.0,0.0,0.0,0.0,0.0,0.0,0.0
521036000000,33,521036000000,imu_link,-0.00380385196601,-0.338253062696,0.000981948328361,0.941046987172,0.0,0.0,0.0,0.0,0.0,0.0,0.0,0.0,0.0,0.00518135024975,-0.203437008264,0.00213467420267,0.0,0.0,0.0,0.0,0.0,0.0,0.0,0.0,0.0,4.81289565208,-0.0851380345574,8.72534222916,0.0,0.0,0.0,0.0,0.0,0.0,0.0,0.0,0.0
521040000000,34,521040000000,imu_link,-0.0037947576469,-0.338635882053,0.00099091318323,0.940909324692,0.0,0.0,0.0,0.0,0.0,0.0,0.0,0.0,0.0,0.00534550778681,-0.203429411347,0.00201957899365,0.0,0.0,0.0,0.0,0.0,0.0,0.0,0.0,0.0,4.81971793191,-0.0851461086698,8.72613714194,0.0,0.0,0.0,0.0,0.0,0.0,0.0,0.0,0.0
521044000000,35,521044000000,imu_link,-0.00378547552662,-0.339018732638,0.000999653467418,0.940771475858,0.0,0.0,0.0,0.0,0.0,0.0,0.0,0.0,0.0,0.00539546682869,-0.203475322796,0.00188216362837,0.0,0.0,0.0,0.0,0.0,0.0,0.0,0.0,0.0,4.82614546979,-0.085044046526,8.72121798592,0.0,0.0,0.0,0.0,0.0,0.0,0.0,0.0,0.0
521048000000,36,521048000000,imu_link,-0.00377638500148,-0.339401570763,0.00100809010435,0.940633454877,0.0,0.0,0.0,0.0,0.0,0.0,0.0,0.0,0.0,0.00525355253926,-0.203497971933,0.00177191907758,0.0,0.0,0.0,0.0,0.0,0.0,0.0,0.0,0.0,4.83353911051,-0.0849178520086,8.71944729156,0.0,0.0,0.0,0.0,0.0,0.0,0.0,0.0,0.0
521052000000,37,521052000000,imu_link,-0.00376786599855,-0.339784305314,0.00101621450878,0.940495293107,0.0,0.0,0.0,0.0,0.0,0.0,0.0,0.0,0.0,0.00493155632758,-0.203472273535,0.00172232521039,0.0,0.0,0.0,0.0,0.0,0.0,0.0,0.0,0.0,4.84137017496,-0.0849349417305,8.71657606099,0.0,0.0,0.0,0.0,0.0,0.0,0.0,0.0,0.0
521056000000,38,521056000000,imu_link,-0.00376012641581,-0.340167117629,0.00102405663417,0.940356924174,0.0,0.0,0.0,0.0,0.0,0.0,0.0,0.0,0.0,0.00451664899082,-0.20354311,0.0017219602817,0.0,0.0,0.0,0.0,0.0,0.0,0.0,0.0,0.0,4.8485728093,-0.0850917912388,8.71240530389,0.0,0.0,0.0,0.0,0.0,0.0,0.0,0.0,0.0
521060000000,39,521060000000,imu_link,-0.00375315351062,-0.34055003578,0.00103166518467,0.940218337747,0.0,0.0,0.0,0.0,0.0,0.0,0.0,0.0,0.0,0.00411598334829,-0.203629031741,0.00174245003486,0.0,0.0,0.0,0.0,0.0,0.0,0.0,0.0,0.0,4.85558548185,-0.0852934510701,8.70781132818,0.0,0.0,0.0,0.0,0.0,0.0,0.0,0.0,0.0
521064000000,40,521064000000,imu_link,-0.00374683136709,-0.340932724374,0.00103907876182,0.940079655679,0.0,0.0,0.0,0.0,0.0,0.0,0.0,0.0,0.0,0.00377679414219,-0.203536698528,0.00176207984804,0.0,0.0,0.0,0.0,0.0,0.0,0.0,0.0,0.0,4.86118437317,-0.0855066568051,8.70056706512,0.0,0.0,0.0,0.0,0.0,0.0,0.0,0.0,0.0
521068000000,41,521068000000,imu_link,-0.0037407976374,-0.34131482232,0.00104638318196,0.939941010692,0.0,0.0,0.0,0.0,0.0,0.0,0.0,0.0,0.0,0.00362299686781,-0.203252394895,0.00176102382522,0.0,0.0,0.0,0.0,0.0,0.0,0.0,0.0,0.0,4.86592428094,-0.0855861162933,8.69482654903,0.0,0.0,0.0,0.0,0.0,0.0,0.0,0.0,0.0
521072000000,42,521072000000,imu_link,-0.00373477630467,-0.341696295924,0.00105367042102,0.939802416775,0.0,0.0,0.0,0.0,0.0,0.0,0.0,0.0,0.0,0.00361466075593,-0.202950218673,0.00175620590559,0.0,0.0,0.0,0.0,0.0,0.0,0.0,0.0,0.0,4.87022084773,-0.0855639507131,8.69332384233,0.0,0.0,0.0,0.0,0.0,0.0,0.0,0.0,0.0
521076000000,43,521076000000,imu_link,-0.00372866556555,-0.342077084005,0.0010609779721,0.939663897347,0.0,0.0,0.0,0.0,0.0,0.0,0.0,0.0,0.0,0.00366064346045,-0.202615449005,0.00175171652916,0.0,0.0,0.0,0.0,0.0,0.0,0.0,0.0,0.0,4.87369056234,-0.0854558082178,8.692143213,0.0,0.0,0.0,0.0,0.0,0.0,0.0,0.0,0.0
521080000000,44,521080000000,imu_link,-0.0037224838102,-0.342457163922,0.00106832966876,0.939525461424,0.0,0.0,0.0,0.0,0.0,0.0,0.0,0.0,0.0,0.00370209110362,-0.202268568516,0.00176158697131,0.0,0.0,0.0,0.0,0.0,0.0,0.0,0.0,0.0,4.87661883178,-0.0854496965717,8.6894958139,0.0,0.0,0.0,0.0,0.0,0.0,0.0,0.0,0.0
521084000000,45,521084000000,imu_link,-0.00371634472141,-0.342836524369,0.00107569772478,0.939387113609,0.0,0.0,0.0,0.0,0.0,0.0,0.0,0.0,0.0,0.00368539743377,-0.201915509422,0.0017778697694,0.0,0.0,0.0,0.0,0.0,0.0,0.0,0.0,0.0,4.88407147096,-0.0855690206326,8.68866699655,0.0,0.0,0.0,0.0,0.0,0.0,0.0,0.0,0.0
521088000000,46,521088000000,imu_link,-0.00371053689072,-0.343215124308,0.0010829838545,0.939248868782,0.0,0.0,0.0,0.0,0.0,0.0,0.0,0.0,0.0,0.00351636437553,-0.201540319103,0.00179753096533,0.0,0.0,0.0,0.0,0.0,0.0,0.0,0.0,0.0,4.89177734511,-0.0856824225008,8.68702673923,0.0,0.0,0.0,0.0,0.0,0.0,0.0,0.0,0.0
521092000000,47,521092000000,imu_link,-0.00370532810434,-0.343593523345,0.00109015433215,0.939110522155,0.0,0.0,0.0,0.0,0.0,0.0,0.0,0.0,0.0,0.00321511164989,-0.201462900657,0.00184644631633,0.0,0.0,0.0,0.0,0.0,0.0,0.0,0.0,0.0,4.90063843932,-0.0858490950511,8.69421076575,0.0,0.0,0.0,0.0,0.0,0.0,0.0,0.0,0.0
521096000000,48,521096000000,imu_link,-0.00370095786076,-0.343971846629,0.0010971549386,0.938972027213,0.0,0.0,0.0,0.0,0.0,0.0,0.0,0.0,0.0,0.00279195262597,-0.201452039656,0.00191096253341,0.0,0.0,0.0,0.0,0.0,0.0,0.0,0.0,0.0,4.90764804448,-0.0859624198745,8.69456750359,0.0,0.0,0.0,0.0,0.0,0.0,0.0,0.0,0.0
521100000000,49,521100000000,imu_link,-0.00369745975274,-0.344350319117,0.00110393661256,0.938833301411,0.0,0.0,0.0,0.0,0.0,0.0,0.0,0.0,0.0,0.00234433478396,-0.201560909337,0.0019580223795,0.0,0.0,0.0,0.0,0.0,0.0,0.0,0.0,0.0,4.91303218208,-0.0860691948396,8.69148327042,0.0,0.0,0.0,0.0,0.0,0.0,0.0,0.0,0.0
521104000000,50,521104000000,imu_link,-0.00369484099925,-0.344728604371,0.00111044214684,0.938694468076,0.0,0.0,0.0,0.0,0.0,0.0,0.0,0.0,0.0,0.00188391124323,-0.201490537278,0.00198020632507,0.0,0.0,0.0,0.0,0.0,0.0,0.0,0.0,0.0,4.91854358215,-0.0861510419213,8.68562430653,0.0,0.0,0.0,0.0,0.0,0.0,0.0,0.0,0.0
521108000000,51,521108000000,imu_link,-0.00369265270832,-0.345105681913,0.00111677249969,0.938555904273,0.0,0.0,0.0,0.0,0.0,0.0,0.0,0.0,0.0,0.00165284827343,-0.200876680551,0.00197426328202,0.0,0.0,0.0,0.0,0.0,0.0,0.0,0.0,0.0,4.9256964737,-0.0863937113132,8.68061078891,0.0,0.0,0.0,0.0,0.0,0.0,0.0,0.0,0.0
521112000000,52,521112000000,imu_link,-0.00369033643002,-0.345481589395,0.00112305613236,0.938417599766,0.0,0.0,0.0,0.0,0.0,0.0,0.0,0.0,0.0,0.00170598031599,-0.20028284003,0.00193226946909,0.0,0.0,0.0,0.0,0.0,0.0,0.0,0.0,0.0,4.93158103509,-0.0866456470914,8.68114117537,0.0,0.0,0.0,0.0,0.0,0.0,0.0,0.0,0.0
521116000000,53,521116000000,imu_link,-0.00368766203367,-0.345856563119,0.00112928788533,0.938279469884,0.0,0.0,0.0,0.0,0.0,0.0,0.0,0.0,0.0,0.00186589727554,-0.199814652848,0.00184769033868,0.0,0.0,0.0,0.0,0.0,0.0,0.0,0.0,0.0,4.93656057811,-0.0866950271367,8.67914918223,0.0,0.0,0.0,0.0,0.0,0.0,0.0,0.0,0.0
521120000000,54,521120000000,imu_link,-0.00368453364935,-0.34623091677,0.00113542847855,0.938141400476,0.0,0.0,0.0,0.0,0.0,0.0,0.0,0.0,0.0,0.00206357860812,-0.199513382943,0.00172752546647,0.0,0.0,0.0,0.0,0.0,0.0,0.0,0.0,0.0,4.9410340958,-0.0866696683968,8.67793283334,0.0,0.0,0.0,0.0,0.0,0.0,0.0,0.0,0.0
521124000000,55,521124000000,imu_link,-0.00368110602363,-0.346605101483,0.00114146825555,0.938003225013,0.0,0.0,0.0,0.0,0.0,0.0,0.0,0.0,0.0,0.00218639167122,-0.199452482206,0.0016288036562,0.0,0.0,0.0,0.0,0.0,0.0,0.0,0.0,0.0,4.94436827056,-0.0864539768691,8.67699914438,0.0,0.0,0.0,0.0,0.0,0.0,0.0,0.0,0.0
521128000000,56,521128000000,imu_link,-0.00367758229859,-0.34697924843,0.00114742213068,0.937864894305,0.0,0.0,0.0,0.0,0.0,0.0,0.0,0.0,0.0,0.00221631121833,-0.199461571521,0.00157201939185,0.0,0.0,0.0,0.0,0.0,0.0,0.0,0.0,0.0,4.95134826526,-0.0862329902245,8.67897872901,0.0,0.0,0.0,0.0,0.0,0.0,0.0,0.0,0.0
521132000000,57,521132000000,imu_link,-0.00367405525251,-0.34735353756,0.0011533281956,0.937726341262,0.0,0.0,0.0,0.0,0.0,0.0,0.0,0.0,0.0,0.00220908358274,-0.199566732716,0.00154888957197,0.0,0.0,0.0,0.0,0.0,0.0,0.0,0.0,0.0,4.95924541101,-0.0860405516177,8.67768247822,0.0,0.0,0.0,0.0,0.0,0.0,0.0,0.0,0.0
521136000000,58,521136000000,imu_link,-0.00367061631106,-0.347727685393,0.00115924445132,0.937587670322,0.0,0.0,0.0,0.0,0.0,0.0,0.0,0.0,0.0,0.00216940937196,-0.199520927118,0.00156929694866,0.0,0.0,0.0,0.0,0.0,0.0,0.0,0.0,0.0,4.96587274953,-0.0859455458846,8.67160196402,0.0,0.0,0.0,0.0,0.0,0.0,0.0,0.0,0.0
521140000000,59,521140000000,imu_link,-0.00366730369388,-0.348101425839,0.00116523384369,0.937448980181,0.0,0.0,0.0,0.0,0.0,0.0,0.0,0.0,0.0,0.00212310603827,-0.199333346399,0.0016263049956,0.0,0.0,0.0,0.0,0.0,0.0,0.0,0.0,0.0,4.97154435423,-0.0859398709024,8.66513714715,0.0,0.0,0.0,0.0,0.0,0.0,0.0,0.0,0.0
521144000000,60,521144000000,imu_link,-0.00366434978516,-0.348474498049,0.0011712376979,0.937310367462,0.0,0.0,0.0,0.0,0.0,0.0,0.0,0.0,0.0,0.00195801896951,-0.199006469532,0.0016966972888,0.0,0.0,0.0,0.0,0.0,0.0,0.0,0.0,0.0,4.97740802908,-0.0860617593675,8.65901735199,0.0,0.0,0.0,0.0,0.0,0.0,0.0,0.0,0.0
521148000000,61,521148000000,imu_link,-0.00366190250855,-0.348847005439,0.00117720563136,0.937171793991,0.0,0.0,0.0,0.0,0.0,0.0,0.0,0.0,0.0,0.00171472713023,-0.198734562983,0.00176914889827,0.0,0.0,0.0,0.0,0.0,0.0,0.0,0.0,0.0,4.98324788343,-0.0861969506497,8.65370622521,0.0,0.0,0.0,0.0,0.0,0.0,0.0,0.0,0.0
521152000000,62,521152000000,imu_link,-0.00365990812143,-0.349219716052,0.00118313710998,0.937032974436,0.0,0.0,0.0,0.0,0.0,0.0,0.0,0.0,0.0,0.00149558071852,-0.198872379717,0.00183083399989,0.0,0.0,0.0,0.0,0.0,0.0,0.0,0.0,0.0,4.99060804291,-0.0863246025803,8.65705780177,0.0,0.0,0.0,0.0,0.0,0.0,0.0,0.0,0.0
521156000000,63,521156000000,imu_link,-0.00365826955794,-0.349593034092,0.00118897186658,0.936893758077,0.0,0.0,0.0,0.0,0.0,0.0,0.0,0.0,0.0,0.00131089737912,-0.199225867802,0.00184677163581,0.0,0.0,0.0,0.0,0.0,0.0,0.0,0.0,0.0,4.99775125863,-0.0863765017976,8.66070808027,0.0,0.0,0.0,0.0,0.0,0.0,0.0,0.0,0.0
521160000000,64,521160000000,imu_link,-0.00365706019065,-0.349967906875,0.00119457328693,0.936753789991,0.0,0.0,0.0,0.0,0.0,0.0,0.0,0.0,0.0,0.00106675609796,-0.200084899971,0.00181009104563,0.0,0.0,0.0,0.0,0.0,0.0,0.0,0.0,0.0,5.00336458528,-0.0864175366818,8.66623246256,0.0,0.0,0.0,0.0,0.0,0.0,0.0,0.0,0.0
521164000000,65,521164000000,imu_link,-0.00365626398716,-0.350344599587,0.00119994748305,0.93661296884,0.0,0.0,0.0,0.0,0.0,0.0,0.0,0.0,0.0,0.000830832230094,-0.20108592336,0.00177314323371,0.0,0.0,0.0,0.0,0.0,0.0,0.0,0.0,0.0,5.00806053508,-0.0864620811345,8.66431207694,0.0,0.0,0.0,0.0,0.0,0.0,0.0,0.0,0.0
521168000000,66,521168000000,imu_link,-0.00365597366853,-0.350722835093,0.00120512038638,0.936471395444,0.0,0.0,0.0,0.0,0.0,0.0,0.0,0.0,0.0,0.000556361290263,-0.201939524792,0.00176512442439,0.0,0.0,0.0,0.0,0.0,0.0,0.0,0.0,0.0,5.01152071569,-0.0865186573459,8.65819558949,0.0,0.0,0.0,0.0,0.0,0.0,0.0,0.0,0.0
521172000000,67,521172000000,imu_link,-0.00365657263101,-0.351102488433,0.00121005764162,0.936329113001,0.0,0.0,0.0,0.0,0.0,0.0,0.0,0.0,0.0,9.64940471913e-05,-0.202726778643,0.00180856663802,0.0,0.0,0.0,0.0,0.0,0.0,0.0,0.0,0.0,5.01468171334,-0.0866163579666,8.65435505286,0.0,0.0,0.0,0.0,0.0,0.0,0.0,0.0,0.0
521176000000,68,521176000000,imu_link,-0.00365833312992,-0.351482796898,0.00121474211325,0.936186404775,0.0,0.0,0.0,0.0,0.0,0.0,0.0,0.0,0.0,-0.000492847489261,-0.203107066286,0.00189319134492,0.0,0.0,0.0,0.0,0.0,0.0,0.0,0.0,0.0,5.02275912064,-0.0866992245747,8.64871891755,0.0,0.0,0.0,0.0,0.0,0.0,0.0,0.0,0.0
521180000000,69,521180000000,imu_link,-0.00366110524393,-0.35186346165,0.00121919457955,0.936043382664,0.0,0.0,0.0,0.0,0.0,0.0,0.0,0.0,0.0,-0.00100794116813,-0.203327965951,0.00196191281842,0.0,0.0,0.0,0.0,0.0,0.0,0.0,0.0,0.0,5.02925842474,-0.0868075987199,8.64366846067,0.0,0.0,0.0,0.0,0.0,0.0,0.0,0.0,0.0
521184000000,70,521184000000,imu_link,-0.00366439675996,-0.352244271949,0.00122352505936,0.935900127183,0.0,0.0,0.0,0.0,0.0,0.0,0.0,0.0,0.0,-0.00127300981783,-0.203436602553,0.00199607562324,0.0,0.0,0.0,0.0,0.0,0.0,0.0,0.0,0.0,5.03564215541,-0.0868952829145,8.64019983783,0.0,0.0,0.0,0.0,0.0,0.0,0.0,0.0,0.0
521188000000,71,521188000000,imu_link,-0.00366763894988,-0.352625104173,0.00122790269639,0.935756686637,0.0,0.0,0.0,0.0,0.0,0.0,0.0,0.0,0.0,-0.00124197472097,-0.20347957314,0.00200952847467,0.0,0.0,0.0,0.0,0.0,0.0,0.0,0.0,0.0,5.04182734464,-0.0869119735167,8.63833304578,0.0,0.0,0.0,0.0,0.0,0.0,0.0,0.0,0.0
521192000000,72,521192000000,imu_link,-0.00367043022651,-0.353006471383,0.00123247976954,0.935612868711,0.0,0.0,0.0,0.0,0.0,0.0,0.0,0.0,0.0,-0.000996859547936,-0.203797060608,0.00202258926669,0.0,0.0,0.0,0.0,0.0,0.0,0.0,0.0,0.0,5.04902066551,-0.0868388726992,8.64182974574,0.0,0.0,0.0,0.0,0.0,0.0,0.0,0.0,0.0
521196000000,73,521196000000,imu_link,-0.00367272637673,-0.353388766862,0.00123736105324,0.935468524043,0.0,0.0,0.0,0.0,0.0,0.0,0.0,0.0,0.0,-0.000713080777712,-0.20432514608,0.00207613054461,0.0,0.0,0.0,0.0,0.0,0.0,0.0,0.0,0.0,5.05540608721,-0.0867308360965,8.64112863596,0.0,0.0,0.0,0.0,0.0,0.0,0.0,0.0,0.0
521200000000,74,521200000000,imu_link,-0.00367490548601,-0.353771517137,0.00124254152896,0.935323828854,0.0,0.0,0.0,0.0,0.0,0.0,0.0,0.0,0.0,-0.000606396216914,-0.204600426742,0.0021947741208,0.0,0.0,0.0,0.0,0.0,0.0,0.0,0.0,0.0,5.06030338843,-0.0866487843455,8.63233462467,0.0,0.0,0.0,0.0,0.0,0.0,0.0,0.0,0.0
521204000000,75,521204000000,imu_link,-0.00367766596762,-0.354153939158,0.00124781290623,0.935179076495,0.0,0.0,0.0,0.0,0.0,0.0,0.0,0.0,0.0,-0.000862103860348,-0.204456833297,0.00234076047956,0.0,0.0,0.0,0.0,0.0,0.0,0.0,0.0,0.0,5.06611209558,-0.0864660998875,8.62427812765,0.0,0.0,0.0,0.0,0.0,0.0,0.0,0.0,0.0
521208000000,76,521208000000,imu_link,-0.00368178254412,-0.354535266254,0.00125297421043,0.935034555252,0.0,0.0,0.0,0.0,0.0,0.0,0.0,0.0,0.0,-0.00151458298944,-0.203902884058,0.00253129384391,0.0,0.0,0.0,0.0,0.0,0.0,0.0,0.0,0.0,5.0713960681,-0.0864796797666,8.61878677905,0.0,0.0,0.0,0.0,0.0,0.0,0.0,0.0,0.0
521212000000,77,521212000000,imu_link,-0.00368762619985,-0.354914785077,0.00125790115815,0.934890536069,0.0,0.0,0.0,0.0,0.0,0.0,0.0,0.0,0.0,-0.00236150915445,-0.202966972273,0.00273089770617,0.0,0.0,0.0,0.0,0.0,0.0,0.0,0.0,0.0,5.07344099601,-0.0866007538186,8.60674902506,0.0,0.0,0.0,0.0,0.0,0.0,0.0,0.0,0.0
521216000000,78,521216000000,imu_link,-0.00369524469098,-0.355291533867,0.00126253694276,0.9347473868,0.0,0.0,0.0,0.0,0.0,0.0,0.0,0.0,0.0,-0.00323947051022,-0.201516107432,0.00291431284607,0.0,0.0,0.0,0.0,0.0,0.0,0.0,0.0,0.0,5.07352706186,-0.086777978772,8.5911889558,0.0,0.0,0.0,0.0,0.0,0.0,0.0,0.0,0.0
521220000000,79,521220000000,imu_link,-0.00370420717712,-0.355664289036,0.00126692826785,0.934605578437,0.0,0.0,0.0,0.0,0.0,0.0,0.0,0.0,0.0,-0.00390604713323,-0.199410087007,0.00304534616375,0.0,0.0,0.0,0.0,0.0,0.0,0.0,0.0,0.0,5.07560550798,-0.0869801104045,8.57760443709,0.0,0.0,0.0,0.0,0.0,0.0,0.0,0.0,0.0
521224000000,80,521224000000,imu_link,-0.00371382472677,-0.356031629602,0.00127118173786,0.934465660325,0.0,0.0,0.0,0.0,0.0,0.0,0.0,0.0,0.0,-0.00422974432042,-0.196543009717,0.00310624844148,0.0,0.0,0.0,0.0,0.0,0.0,0.0,0.0,0.0,5.08213647552,-0.0872680886335,8.56371110345,0.0,0.0,0.0,0.0,0.0,0.0,0.0,0.0,0.0
521228000000,81,521228000000,imu_link,-0.00372377476047,-0.356392569283,0.00127529975268,0.934328017172,0.0,0.0,0.0,0.0,0.0,0.0,0.0,0.0,0.0,-0.00440091221251,-0.193146864055,0.00311258668342,0.0,0.0,0.0,0.0,0.0,0.0,0.0,0.0,0.0,5.08673439398,-0.0874215144283,8.54811601561,0.0,0.0,0.0,0.0,0.0,0.0,0.0,0.0,0.0
521232000000,82,521232000000,imu_link,-0.00373399191829,-0.356746755973,0.00127926176004,0.934192792145,0.0,0.0,0.0,0.0,0.0,0.0,0.0,0.0,0.0,-0.00454469460874,-0.189560746696,0.00309833752024,0.0,0.0,0.0,0.0,0.0,0.0,0.0,0.0,0.0,5.09021997432,-0.0874064038198,8.53364888219,0.0,0.0,0.0,0.0,0.0,0.0,0.0,0.0,0.0
521236000000,83,521236000000,imu_link,-0.0037443682014,-0.357094089366,0.00128306617352,0.934060032754,0.0,0.0,0.0,0.0,0.0,0.0,0.0,0.0,0.0,-0.00463814509084,-0.185919395831,0.00306432767405,0.0,0.0,0.0,0.0,0.0,0.0,0.0,0.0,0.0,5.09323044419,-0.0873896238708,8.52118587162,0.0,0.0,0.0,0.0,0.0,0.0,0.0,0.0,0.0
521240000000,84,521240000000,imu_link,-0.00375457755842,-0.357434579274,0.00128679304278,0.933929745136,0.0,0.0,0.0,0.0,0.0,0.0,0.0,0.0,0.0,-0.00456501293715,-0.182281915896,0.00300953455884,0.0,0.0,0.0,0.0,0.0,0.0,0.0,0.0,0.0,5.09466633797,-0.087201290269,8.50510626753,0.0,0.0,0.0,0.0,0.0,0.0,0.0,0.0,0.0
521244000000,85,521244000000,imu_link,-0.00376393575781,-0.357767791205,0.00129062824269,0.933802106789,0.0,0.0,0.0,0.0,0.0,0.0,0.0,0.0,0.0,-0.0041385355516,-0.178410636741,0.00291996290567,0.0,0.0,0.0,0.0,0.0,0.0,0.0,0.0,0.0,5.09846607956,-0.0868247103198,8.49435667646,0.0,0.0,0.0,0.0,0.0,0.0,0.0,0.0,0.0
521248000000,86,521248000000,imu_link,-0.00377189466991,-0.358092692359,0.00129472089856,0.933677524731,0.0,0.0,0.0,0.0,0.0,0.0,0.0,0.0,0.0,-0.00342803715848,-0.173984991695,0.00280352773482,0.0,0.0,0.0,0.0,0.0,0.0,0.0,0.0,0.0,5.10205933868,-0.0865032581452,8.48310245017,0.0,0.0,0.0,0.0,0.0,0.0,0.0,0.0,0.0
521252000000,87,521252000000,imu_link,-0.00377808300698,-0.358408500127,0.00129920327098,0.933556310672,0.0,0.0,0.0,0.0,0.0,0.0,0.0,0.0,0.0,-0.00251944814468,-0.169138699087,0.00268341685469,0.0,0.0,0.0,0.0,0.0,0.0,0.0,0.0,0.0,5.10272856496,-0.0861976779566,8.46865199088,0.0,0.0,0.0,0.0,0.0,0.0,0.0,0.0,0.0
521256000000,88,521256000000,imu_link,-0.00378237317151,-0.358714671405,0.00130416164644,0.933438684293,0.0,0.0,0.0,0.0,0.0,0.0,0.0,0.0,0.0,-0.00153508368902,-0.163999799714,0.00258131724387,0.0,0.0,0.0,0.0,0.0,0.0,0.0,0.0,0.0,5.10241255957,-0.0859845178536,8.45592895164,0.0,0.0,0.0,0.0,0.0,0.0,0.0,0.0,0.0
521260000000,89,521260000000,imu_link,-0.00378490770933,-0.359010920664,0.00130953542495,0.933324765789,0.0,0.0,0.0,0.0,0.0,0.0,0.0,0.0,0.0,-0.000627710869678,-0.158705896901,0.00247665589276,0.0,0.0,0.0,0.0,0.0,0.0,0.0,0.0,0.0,5.10047894069,-0.0857750664217,8.43972124957,0.0,0.0,0.0,0.0,0.0,0.0,0.0,0.0,0.0
521264000000,90,521264000000,imu_link,-0.0037858403222,-0.359296909862,0.0013152213746,0.933214695646,0.0,0.0,0.0,0.0,0.0,0.0,0.0,0.0,0.0,0.000189884514547,-0.153228749338,0.00235167704237,0.0,0.0,0.0,0.0,0.0,0.0,0.0,0.0,0.0,5.09997528768,-0.0855700468954,8.42767704925,0.0,0.0,0.0,0.0,0.0,0.0,0.0,0.0,0.0
521268000000,91,521268000000,imu_link,-0.00378531474902,-0.359572110568,0.00132115125943,0.933108687803,0.0,0.0,0.0,0.0,0.0,0.0,0.0,0.0,0.0,0.000928891687918,-0.147466393314,0.00222128844737,0.0,0.0,0.0,0.0,0.0,0.0,0.0,0.0,0.0,5.10370311128,-0.085222433469,8.41768782231,0.0,0.0,0.0,0.0,0.0,0.0,0.0,0.0,0.0
521272000000,92,521272000000,imu_link,-0.00378330360128,-0.359836371463,0.00132731555935,0.933006811668,0.0,0.0,0.0,0.0,0.0,0.0,0.0,0.0,0.0,0.00167918402216,-0.141620978354,0.00208154622538,0.0,0.0,0.0,0.0,0.0,0.0,0.0,0.0,0.0,5.10778596102,-0.0850375845877,8.40697090401,0.0,0.0,0.0,0.0,0.0,0.0,0.0,0.0,0.0
521276000000,93,521276000000,imu_link,-0.00377993120115,-0.36009016506,0.00133365166699,0.932908895081,0.0,0.0,0.0,0.0,0.0,0.0,0.0,0.0,0.0,0.00235956104347,-0.136026780681,0.00193395374324,0.0,0.0,0.0,0.0,0.0,0.0,0.0,0.0,0.0,5.11215961874,-0.0847711443673,8.40209344091,0.0,0.0,0.0,0.0,0.0,0.0,0.0,0.0,0.0
521280000000,94,521280000000,imu_link,-0.00377537482706,-0.360334292874,0.00134012621376,0.932814637528,0.0,0.0,0.0,0.0,0.0,0.0,0.0,0.0,0.0,0.00295011710323,-0.130860392941,0.00180118865321,0.0,0.0,0.0,0.0,0.0,0.0,0.0,0.0,0.0,5.11677822139,-0.0845801972553,8.39716347402,0.0,0.0,0.0,0.0,0.0,0.0,0.0,0.0,0.0
521284000000,95,521284000000,imu_link,-0.00376996428722,-0.360569433662,0.00134666071465,0.932723784077,0.0,0.0,0.0,0.0,0.0,0.0,0.0,0.0,0.0,0.00337175577774,-0.126056156132,0.00168994280632,0.0,0.0,0.0,0.0,0.0,0.0,0.0,0.0,0.0,5.12021631381,-0.0843929784182,8.38818941587,0.0,0.0,0.0,0.0,0.0,0.0,0.0,0.0,0.0
521288000000,96,521288000000,imu_link,-0.00376390518323,-0.360796353265,0.0013532183478,0.932636045458,0.0,0.0,0.0,0.0,0.0,0.0,0.0,0.0,0.0,0.00368979876486,-0.121661031801,0.00159720408128,0.0,0.0,0.0,0.0,0.0,0.0,0.0,0.0,0.0,5.1242823239,-0.0842665100444,8.38045100454,0.0,0.0,0.0,0.0,0.0,0.0,0.0,0.0,0.0
521292000000,97,521292000000,imu_link,-0.00375724785635,-0.361015007382,0.00135977644206,0.93255144552,0.0,0.0,0.0,0.0,0.0,0.0,0.0,0.0,0.0,0.00398034340744,-0.117240879701,0.00150293237241,0.0,0.0,0.0,0.0,0.0,0.0,0.0,0.0,0.0,5.128610202,-0.0839725974732,8.36940552253,0.0,0.0,0.0,0.0,0.0,0.0,0.0,0.0,0.0
521296000000,98,521296000000,imu_link,-0.0037499520443,-0.361224825568,0.00136630518705,0.932470212105,0.0,0.0,0.0,0.0,0.0,0.0,0.0,0.0,0.0,0.00428508765372,-0.112513595557,0.00138830668054,0.0,0.0,0.0,0.0,0.0,0.0,0.0,0.0,0.0,5.13274052382,-0.0835768190185,8.35809474208,0.0,0.0,0.0,0.0,0.0,0.0,0.0,0.0,0.0
521300000000,99,521300000000,imu_link,-0.00374193402515,-0.361425665239,0.00137282425224,0.932392407621,0.0,0.0,0.0,0.0,0.0,0.0,0.0,0.0,0.0,0.00463262052542,-0.107708664179,0.00126784606328,0.0,0.0,0.0,0.0,0.0,0.0,0.0,0.0,0.0,5.13503873632,-0.0834566057501,8.34633081149,0.0,0.0,0.0,0.0,0.0,0.0,0.0,0.0,0.0
521304000000,100,521304000000,imu_link,-0.00373307832917,-0.361617800127,0.00137941970756,0.932317932874,0.0,0.0,0.0,0.0,0.0,0.0,0.0,0.0,0.0,0.00504915185584,-0.103049518307,0.00116608068149,0.0,0.0,0.0,0.0,0.0,0.0,0.0,0.0,0.0,5.13714069672,-0.0833011780574,8.33731329052,0.0,0.0,0.0,0.0,0.0,0.0,0.0,0.0,0.0
521308000000,101,521308000000,imu_link,-0.00372320103397,-0.361801548369,0.00138620947915,0.93224667111,0.0,0.0,0.0,0.0,0.0,0.0,0.0,0.0,0.0,0.00557229511754,-0.0985601399217,0.00108538669803,0.0,0.0,0.0,0.0,0.0,0.0,0.0,0.0,0.0,5.13966944264,-0.08327451836,8.33093236639,0.0,0.0,0.0,0.0,0.0,0.0,0.0,0.0,0.0
521312000000,102,521312000000,imu_link,-0.00371207894231,-0.361977018504,0.00139328476683,0.932178586593,0.0,0.0,0.0,0.0,0.0,0.0,0.0,0.0,0.0,0.00621582623789,-0.0941281481983,0.00100649612838,0.0,0.0,0.0,0.0,0.0,0.0,0.0,0.0,0.0,5.14210322995,-0.0832458755965,8.32400134583,0.0,0.0,0.0,0.0,0.0,0.0,0.0,0.0,0.0
521316000000,103,521316000000,imu_link,-0.00369963012595,-0.362144089533,0.00140067324452,0.932113731938,0.0,0.0,0.0,0.0,0.0,0.0,0.0,0.0,0.0,0.00690272813425,-0.0896303518793,0.000925687721301,0.0,0.0,0.0,0.0,0.0,0.0,0.0,0.0,0.0,5.14677714886,-0.0832510295253,8.31616061674,0.0,0.0,0.0,0.0,0.0,0.0,0.0,0.0,0.0
521320000000,104,521320000000,imu_link,-0.00368616610418,-0.362302784753,0.00140824627784,0.932052102182,0.0,0.0,0.0,0.0,0.0,0.0,0.0,0.0,0.0,0.00742112080433,-0.085143862079,0.00084111099914,0.0,0.0,0.0,0.0,0.0,0.0,0.0,0.0,0.0,5.15147707404,-0.0832028028258,8.3072372681,0.0,0.0,0.0,0.0,0.0,0.0,0.0,0.0,0.0
521324000000,105,521324000000,imu_link,-0.00367208430122,-0.362453160155,0.00141588901911,0.931993679028,0.0,0.0,0.0,0.0,0.0,0.0,0.0,0.0,0.0,0.00773341882239,-0.0806862931637,0.000774761075047,0.0,0.0,0.0,0.0,0.0,0.0,0.0,0.0,0.0,5.15594838518,-0.083119964328,8.299292529,0.0,0.0,0.0,0.0,0.0,0.0,0.0,0.0,0.0
521328000000,106,521328000000,imu_link,-0.00365787805532,-0.362595755635,0.00142350366864,0.93193825523,0.0,0.0,0.0,0.0,0.0,0.0,0.0,0.0,0.0,0.00779733256055,-0.0765173474952,0.000751278922551,0.0,0.0,0.0,0.0,0.0,0.0,0.0,0.0,0.0,5.16090448021,-0.0830585119518,8.29635364226,0.0,0.0,0.0,0.0,0.0,0.0,0.0,0.0,0.0
521332000000,107,521332000000,imu_link,-0.00364414320179,-0.362731417526,0.0014309913804,0.93188550328,0.0,0.0,0.0,0.0,0.0,0.0,0.0,0.0,0.0,0.00756448635037,-0.0728015404886,0.000788371697083,0.0,0.0,0.0,0.0,0.0,0.0,0.0,0.0,0.0,5.16619308803,-0.0830282808564,8.29605703072,0.0,0.0,0.0,0.0,0.0,0.0,0.0,0.0,0.0
521336000000,108,521336000000,imu_link,-0.00363123500816,-0.362861524993,0.00143833238619,0.931834888278,0.0,0.0,0.0,0.0,0.0,0.0,0.0,0.0,0.0,0.00716057055897,-0.0698250695562,0.000878534456002,0.0,0.0,0.0,0.0,0.0,0.0,0.0,0.0,0.0,5.17284021574,-0.0830926552812,8.30055556095,0.0,0.0,0.0,0.0,0.0,0.0,0.0,0.0,0.0
521340000000,109,521340000000,imu_link,-0.00361935843288,-0.362986771423,0.00144548525331,0.931786142089,0.0,0.0,0.0,0.0,0.0,0.0,0.0,0.0,0.0,0.00665267636054,-0.0672200836019,0.000985526465392,0.0,0.0,0.0,0.0,0.0,0.0,0.0,0.0,0.0,5.17854706689,-0.0832703884944,8.29720954624,0.0,0.0,0.0,0.0,0.0,0.0,0.0,0.0,0.0
521344000000,110,521344000000,imu_link,-0.0036085733708,-0.363107342339,0.00145239271031,0.931739194568,0.0,0.0,0.0,0.0,0.0,0.0,0.0,0.0,0.0,0.00610624181244,-0.0647141141692,0.0010764552294,0.0,0.0,0.0,0.0,0.0,0.0,0.0,0.0,0.0,5.18423872426,-0.0833251681215,8.29167105334,0.0,0.0,0.0,0.0,0.0,0.0,0.0,0.0,0.0
521348000000,111,521348000000,imu_link,-0.00359876245045,-0.363223160951,0.00145906969753,0.931694078211,0.0,0.0,0.0,0.0,0.0,0.0,0.0,0.0,0.0,0.00561733119898,-0.0621665830152,0.00115319010265,0.0,0.0,0.0,0.0,0.0,0.0,0.0,0.0,0.0,5.18848289708,-0.0836358356099,8.28128823834,0.0,0.0,0.0,0.0,0.0,0.0,0.0,0.0,0.0
521352000000,112,521352000000,imu_link,-0.00358970469895,-0.363334133223,0.00146557954315,0.931650832518,0.0,0.0,0.0,0.0,0.0,0.0,0.0,0.0,0.0,0.00524301647916,-0.0595683448359,0.00121946756701,0.0,0.0,0.0,0.0,0.0,0.0,0.0,0.0,0.0,5.19290451148,-0.0838820243067,8.27247753133,0.0,0.0,0.0,0.0,0.0,0.0,0.0,0.0,0.0
521356000000,113,521356000000,imu_link,-0.00358117375447,-0.363440244672,0.00147199300913,0.931609465916,0.0,0.0,0.0,0.0,0.0,0.0,0.0,0.0,0.0,0.0049870420212,-0.0569621222418,0.00127762244849,0.0,0.0,0.0,0.0,0.0,0.0,0.0,0.0,0.0,5.19701842713,-0.0839861202258,8.26396365069,0.0,0.0,0.0,0.0,0.0,0.0,0.0,0.0,0.0
521360000000,114,521360000000,imu_link,-0.00357315940732,-0.363541498811,0.00147832874312,0.93156997897,0.0,0.0,0.0,0.0,0.0,0.0,0.0,0.0,0.0,0.0047392237195,-0.0543574734609,0.00134260466209,0.0,0.0,0.0,0.0,0.0,0.0,0.0,0.0,0.0,5.20100912755,-0.0839860772571,8.25453267633,0.0,0.0,0.0,0.0,0.0,0.0,0.0,0.0,0.0
521364000000,115,521364000000,imu_link,-0.00356559027984,-0.363637816745,0.00148462606972,0.931532404527,0.0,0.0,0.0,0.0,0.0,0.0,0.0,0.0,0.0,0.00453193124252,-0.0517102279975,0.00141304826203,0.0,0.0,0.0,0.0,0.0,0.0,0.0,0.0,0.0,5.20677644562,-0.0840241125048,8.24592679611,0.0,0.0,0.0,0.0,0.0,0.0,0.0,0.0,0.0
521368000000,116,521368000000,imu_link,-0.00355848422841,-0.363728987827,0.00149088731905,0.931496826543,0.0,0.0,0.0,0.0,0.0,0.0,0.0,0.0,0.0,0.00431706638605,-0.0489495968271,0.001488134457,0.0,0.0,0.0,0.0,0.0,0.0,0.0,0.0,0.0,5.21246913844,-0.0841363930518,8.23784548581,0.0,0.0,0.0,0.0,0.0,0.0,0.0,0.0,0.0
521372000000,117,521372000000,imu_link,-0.00355168938372,-0.36381480875,0.00149716219113,0.931463326676,0.0,0.0,0.0,0.0,0.0,0.0,0.0,0.0,0.0,0.00418228554909,-0.0460796248235,0.00155904679186,0.0,0.0,0.0,0.0,0.0,0.0,0.0,0.0,0.0,5.21705099172,-0.0843178582695,8.22754597164,0.0,0.0,0.0,0.0,0.0,0.0,0.0,0.0,0.0
521376000000,118,521376000000,imu_link,-0.00354515454963,-0.36389535039,0.00150347810774,0.931431879096,0.0,0.0,0.0,0.0,0.0,0.0,0.0,0.0,0.0,0.00407625319589,-0.0432474478719,0.00163329926564,0.0,0.0,0.0,0.0,0.0,0.0,0.0,0.0,0.0,5.22230033046,-0.0845019864191,8.22116572128,0.0,0.0,0.0,0.0,0.0,0.0,0.0,0.0,0.0
521380000000,119,521380000000,imu_link,-0.00353896924445,-0.363971089199,0.00150981705841,0.931402298889,0.0,0.0,0.0,0.0,0.0,0.0,0.0,0.0,0.0,0.00392458353846,-0.0406707063466,0.00171473218072,0.0,0.0,0.0,0.0,0.0,0.0,0.0,0.0,0.0,5.22776666571,-0.0845933343646,8.21645730849,0.0,0.0,0.0,0.0,0.0,0.0,0.0,0.0,0.0
521384000000,120,521384000000,imu_link,-0.00353313041598,-0.364042485309,0.00151614970677,0.93137440762,0.0,0.0,0.0,0.0,0.0,0.0,0.0,0.0,0.0,0.00376834889926,-0.0383406717928,0.00178126028576,0.0,0.0,0.0,0.0,0.0,0.0,0.0,0.0,0.0,5.23425652547,-0.084607293008,8.21412100929,0.0,0.0,0.0,0.0,0.0,0.0,0.0,0.0,0.0
521388000000,121,521388000000,imu_link,-0.0035274230685,-0.364109515798,0.00152247907684,0.931348216216,0.0,0.0,0.0,0.0,0.0,0.0,0.0,0.0,0.0,0.00371283555085,-0.0359981406783,0.00181008949239,0.0,0.0,0.0,0.0,0.0,0.0,0.0,0.0,0.0,5.24049274718,-0.084736509935,8.20923359657,0.0,0.0,0.0,0.0,0.0,0.0,0.0,0.0,0.0
521392000000,122,521392000000,imu_link,-0.00352143979444,-0.364172000108,0.00152887890246,0.931323797789,0.0,0.0,0.0,0.0,0.0,0.0,0.0,0.0,0.0,0.00386074193767,-0.0335586584612,0.00179933355313,0.0,0.0,0.0,0.0,0.0,0.0,0.0,0.0,0.0,5.24569286616,-0.0848369118637,8.20148625426,0.0,0.0,0.0,0.0,0.0,0.0,0.0,0.0,0.0
521396000000,123,521396000000,imu_link,-0.00351459146932,-0.36422976711,0.00153546129693,0.931301222353,0.0,0.0,0.0,0.0,0.0,0.0,0.0,0.0,0.0,0.00430365757042,-0.0310273878567,0.00173373222854,0.0,0.0,0.0,0.0,0.0,0.0,0.0,0.0,0.0,5.2513951156,-0.0849754573063,8.19533523923,0.0,0.0,0.0,0.0,0.0,0.0,0.0,0.0,0.0
521400000000,124,521400000000,imu_link,-0.00350642606384,-0.364282840115,0.00154229055293,0.931280483374,0.0,0.0,0.0,0.0,0.0,0.0,0.0,0.0,0.0,0.00496874493299,-0.0285086238219,0.00161566234646,0.0,0.0,0.0,0.0,0.0,0.0,0.0,0.0,0.0,5.25624886828,-0.0849742288371,8.18819425229,0.0,0.0,0.0,0.0,0.0,0.0,0.0,0.0,0.0
521404000000,125,521404000000,imu_link,-0.00349681674982,-0.36433142003,0.00154937719453,0.931261503597,0.0,0.0,0.0,0.0,0.0,0.0,0.0,0.0,0.0,0.00569451650757,-0.0260976016015,0.00147903663642,0.0,0.0,0.0,0.0,0.0,0.0,0.0,0.0,0.0,5.26084847877,-0.0848322983985,8.18148616843,0.0,0.0,0.0,0.0,0.0,0.0,0.0,0.0,0.0
521408000000,126,521408000000,imu_link,-0.00348595365248,-0.36437600386,0.00155665931574,0.931244088706,0.0,0.0,0.0,0.0,0.0,0.0,0.0,0.0,0.0,0.00631975804677,-0.0239531457107,0.00134743610844,0.0,0.0,0.0,0.0,0.0,0.0,0.0,0.0,0.0,5.26746920329,-0.0845730041445,8.18122155151,0.0,0.0,0.0,0.0,0.0,0.0,0.0,0.0,0.0
521412000000,127,521412000000,imu_link,-0.00347405619057,-0.364417269646,0.00156409849713,0.931227973223,0.0,0.0,0.0,0.0,0.0,0.0,0.0,0.0,0.0,0.00683484283509,-0.0221725339909,0.00123688988323,0.0,0.0,0.0,0.0,0.0,0.0,0.0,0.0,0.0,5.27464717974,-0.0843721204544,8.18237306567,0.0,0.0,0.0,0.0,0.0,0.0,0.0,0.0,0.0
521416000000,128,521416000000,imu_link,-0.00346140771283,-0.364455906118,0.00157162377222,0.931212887127,0.0,0.0,0.0,0.0,0.0,0.0,0.0,0.0,0.0,0.00720405766028,-0.0207614618082,0.00114389691184,0.0,0.0,0.0,0.0,0.0,0.0,0.0,0.0,0.0,5.28158731487,-0.0841525780573,8.18346605618,0.0,0.0,0.0,0.0,0.0,0.0,0.0,0.0,0.0
521420000000,129,521420000000,imu_link,-0.00344842678539,-0.364492473773,0.00157916743783,0.931198609935,0.0,0.0,0.0,0.0,0.0,0.0,0.0,0.0,0.0,0.00736522532004,-0.0196510959218,0.00109482288355,0.0,0.0,0.0,0.0,0.0,0.0,0.0,0.0,0.0,5.28828486752,-0.0839548171763,8.18289838575,0.0,0.0,0.0,0.0,0.0,0.0,0.0,0.0,0.0
521424000000,130,521424000000,imu_link,-0.00343518543944,-0.364527163816,0.00158672853413,0.931185066801,0.0,0.0,0.0,0.0,0.0,0.0,0.0,0.0,0.0,0.00749240087496,-0.0186433372065,0.00105813611473,0.0,0.0,0.0,0.0,0.0,0.0,0.0,0.0,0.0,5.29475973667,-0.0839195216225,8.17918586058,0.0,0.0,0.0,0.0,0.0,0.0,0.0,0.0,0.0
521428000000,131,521428000000,imu_link,-0.00342137984425,-0.364559883918,0.00159438896923,0.931172295079,0.0,0.0,0.0,0.0,0.0,0.0,0.0,0.0,0.0,0.00777610481276,-0.0175861651343,0.0010043169753,0.0,0.0,0.0,0.0,0.0,0.0,0.0,0.0,0.0,5.30092231982,-0.0839620039976,8.17264859606,0.0,0.0,0.0,0.0,0.0,0.0,0.0,0.0,0.0
521432000000,132,521432000000,imu_link,-0.00340643286182,-0.364590333329,0.00160228381948,0.931160414614,0.0,0.0,0.0,0.0,0.0,0.0,0.0,0.0,0.0,0.00835358292283,-0.0163678158094,0.000908579364421,0.0,0.0,0.0,0.0,0.0,0.0,0.0,0.0,0.0,5.30714894573,-0.0840195173811,8.16535774557,0.0,0.0,0.0,0.0,0.0,0.0,0.0,0.0,0.0
521436000000,133,521436000000,imu_link,-0.00338996547407,-0.364617995991,0.00161048188583,0.931149628944,0.0,0.0,0.0,0.0,0.0,0.0,0.0,0.0,0.0,0.00912082562824,-0.0148725193667,0.000776457588363,0.0,0.0,0.0,0.0,0.0,0.0,0.0,0.0,0.0,5.31335047232,-0.0840197980197,8.15757053478,0.0,0.0,0.0,0.0,0.0,0.0,0.0,0.0,0.0
521440000000,134,521440000000,imu_link,-0.00337193117348,-0.364642770308,0.00161896258096,0.931139978254,0.0,0.0,0.0,0.0,0.0,0.0,0.0,0.0,0.0,0.00990611614057,-0.0133226022193,0.000626361884208,0.0,0.0,0.0,0.0,0.0,0.0,0.0,0.0,0.0,5.31827692889,-0.0840190897076,8.14907755144,0.0,0.0,0.0,0.0,0.0,0.0,0.0,0.0,0.0
521444000000,135,521444000000,imu_link,-0.00335265598589,-0.364664685988,0.00162765420824,0.931131450029,0.0,0.0,0.0,0.0,0.0,0.0,0.0,0.0,0.0,0.0105264997817,-0.0117884174744,0.000502236274112,0.0,0.0,0.0,0.0,0.0,0.0,0.0,0.0,0.0,5.32375270814,-0.0838782536995,8.14324278055,0.0,0.0,0.0,0.0,0.0,0.0,0.0,0.0,0.0
521448000000,136,521448000000,imu_link,-0.00333286819889,-0.364683827445,0.00163643711965,0.931124008961,0.0,0.0,0.0,0.0,0.0,0.0,0.0,0.0,0.0,0.0107858727164,-0.0102991802527,0.000455037331993,0.0,0.0,0.0,0.0,0.0,0.0,0.0,0.0,0.0,5.33070818113,-0.0836988502012,8.14223965263,0.0,0.0,0.0,0.0,0.0,0.0,0.0,0.0,0.0
521452000000,137,521452000000,imu_link,-0.00331337912532,-0.364700193093,0.0016451864474,0.931117653167,0.0,0.0,0.0,0.0,0.0,0.0,0.0,0.0,0.0,0.010644759137,-0.00880867823609,0.000497607751981,0.0,0.0,0.0,0.0,0.0,0.0,0.0,0.0,0.0,5.33712211133,-0.0835781397994,8.13895457768,0.0,0.0,0.0,0.0,0.0,0.0,0.0,0.0,0.0
521456000000,138,521456000000,imu_link,-0.00329463886638,-0.364713697537,0.00165388223287,0.931112414726,0.0,0.0,0.0,0.0,0.0,0.0,0.0,0.0,0.0,0.0102905831531,-0.00727216507071,0.000613048085007,0.0,0.0,0.0,0.0,0.0,0.0,0.0,0.0,0.0,5.34349172162,-0.0836249539476,8.13397482108,0.0,0.0,0.0,0.0,0.0,0.0,0.0,0.0,0.0
521460000000,139,521460000000,imu_link,-0.00327670860706,-0.364724331539,0.00166252766252,0.931108297227,0.0,0.0,0.0,0.0,0.0,0.0,0.0,0.0,0.0,0.00990852030485,-0.00573064880289,0.000741115180928,0.0,0.0,0.0,0.0,0.0,0.0,0.0,0.0,0.0,5.34870255458,-0.0838003320003,8.1259341052,0.0,0.0,0.0,0.0,0.0,0.0,0.0,0.0,0.0
521464000000,140,521464000000,imu_link,-0.00325907646641,-0.364732092155,0.00167120719882,0.931105303625,0.0,0.0,0.0,0.0,0.0,0.0,0.0,0.0,0.0,0.00978017956894,-0.00418778409626,0.000815132613793,0.0,0.0,0.0,0.0,0.0,0.0,0.0,0.0,0.0,5.35469342937,-0.0840578167034,8.12091319111,0.0,0.0,0.0,0.0,0.0,0.0,0.0,0.0,0.0
521468000000,141,521468000000,imu_link,-0.00324140130801,-0.364737046561,0.0016799611628,0.931103408819,0.0,0.0,0.0,0.0,0.0,0.0,0.0,0.0,0.0,0.00981791508372,-0.00268111952167,0.0008455923071,0.0,0.0,0.0,0.0,0.0,0.0,0.0,0.0,0.0,5.36067309742,-0.0841936269071,8.11652956579,0.0,0.0,0.0,0.0,0.0,0.0,0.0,0.0,0.0
521472000000,142,521472000000,imu_link,-0.00322365392174,-0.364739433364,0.00168877530114,0.931102519513,0.0,0.0,0.0,0.0,0.0,0.0,0.0,0.0,0.0,0.00986630115379,-0.00130255384488,0.000863751206934,0.0,0.0,0.0,0.0,0.0,0.0,0.0,0.0,0.0,5.36647214705,-0.0842013143108,8.11268492636,0.0,0.0,0.0,0.0,0.0,0.0,0.0,0.0,0.0
521476000000,143,521476000000,imu_link,-0.00320620951065,-0.364739914527,0.00169757658544,0.931102375255,0.0,0.0,0.0,0.0,0.0,0.0,0.0,0.0,0.0,0.00972571648076,-0.000279230526275,0.000915462942041,0.0,0.0,0.0,0.0,0.0,0.0,0.0,0.0,0.0,5.37354185386,-0.0841479313736,8.11465999763,0.0,0.0,0.0,0.0,0.0,0.0,0.0,0.0,0.0
521480000000,144,521480000000,imu_link,-0.00318965634196,-0.364739008984,0.00170627424366,0.931102770937,0.0,0.0,0.0,0.0,0.0,0.0,0.0,0.0,0.0,0.00929394183406,0.00046574385408,0.00103152028175,0.0,0.0,0.0,0.0,0.0,0.0,0.0,0.0,0.0,5.37972267197,-0.0841673895855,8.11296548096,0.0,0.0,0.0,0.0,0.0,0.0,0.0,0.0,0.0
521484000000,145,521484000000,imu_link,-0.0031747325345,-0.364737136783,0.00171474766657,0.931103539766,0.0,0.0,0.0,0.0,0.0,0.0,0.0,0.0,0.0,0.00849591657289,0.000985570872782,0.00122549632041,0.0,0.0,0.0,0.0,0.0,0.0,0.0,0.0,0.0,5.38645778139,-0.0843252118361,8.11274529846,0.0,0.0,0.0,0.0,0.0,0.0,0.0,0.0,0.0
521488000000,146,521488000000,imu_link,-0.00316180008658,-0.364734623514,0.00172292578075,0.931104553182,0.0,0.0,0.0,0.0,0.0,0.0,0.0,0.0,0.0,0.00751591846835,0.00133080245363,0.00145198412257,0.0,0.0,0.0,0.0,0.0,0.0,0.0,0.0,0.0,5.3924287428,-0.0847258309218,8.1099498569,0.0,0.0,0.0,0.0,0.0,0.0,0.0,0.0,0.0
521492000000,147,521492000000,imu_link,-0.00315074541328,-0.364731553894,0.00173082095084,0.931105778446,0.0,0.0,0.0,0.0,0.0,0.0,0.0,0.0,0.0,0.00659093065028,0.00163051235373,0.00166340060346,0.0,0.0,0.0,0.0,0.0,0.0,0.0,0.0,0.0,5.39797202179,-0.085196135191,8.10437479871,0.0,0.0,0.0,0.0,0.0,0.0,0.0,0.0,0.0
521496000000,148,521496000000,imu_link,-0.00314104880734,-0.364727874821,0.00173849572836,0.931107238063,0.0,0.0,0.0,0.0,0.0,0.0,0.0,0.0,0.0,0.00591938302795,0.00195850505973,0.00180921851468,0.0,0.0,0.0,0.0,0.0,0.0,0.0,0.0,0.0,5.4039093205,-0.0856452189689,8.0991021066,0.0,0.0,0.0,0.0,0.0,0.0,0.0,0.0,0.0
521500000000,149,521500000000,imu_link,-0.0031324107045,-0.364723466133,0.00174597030935,0.931108980111,0.0,0.0,0.0,0.0,0.0,0.0,0.0,0.0,0.0,0.0053911622267,0.00235091922601,0.00190994946329,0.0,0.0,0.0,0.0,0.0,0.0,0.0,0.0,0.0,5.40854634492,-0.0859012199336,8.08925082361,0.0,0.0,0.0,0.0,0.0,0.0,0.0,0.0,0.0
521504000000,150,521504000000,imu_link,-0.00312467722646,-0.364718083075,0.00175324175262,0.931111101004,0.0,0.0,0.0,0.0,0.0,0.0,0.0,0.0,0.0,0.00493440950843,0.00287473717638,0.00198154207218,0.0,0.0,0.0,0.0,0.0,0.0,0.0,0.0,0.0,5.41403020349,-0.0860816003236,8.08111500862,0.0,0.0,0.0,0.0,0.0,0.0,0.0,0.0,0.0
521508000000,151,521508000000,imu_link,-0.00311788790301,-0.364711633617,0.00176026539925,0.931113636752,0.0,0.0,0.0,0.0,0.0,0.0,0.0,0.0,0.0,0.00445124810949,0.00344807243591,0.00203965650316,0.0,0.0,0.0,0.0,0.0,0.0,0.0,0.0,0.0,5.41943820859,-0.086199001532,8.07402955703,0.0,0.0,0.0,0.0,0.0,0.0,0.0,0.0,0.0
521512000000,152,521512000000,imu_link,-0.00311207493726,-0.364704103665,0.00176700798149,0.931116592829,0.0,0.0,0.0,0.0,0.0,0.0,0.0,0.0,0.0,0.00394705065144,0.00402905102641,0.00208816405219,0.0,0.0,0.0,0.0,0.0,0.0,0.0,0.0,0.0,5.424217293,-0.0862797165537,8.06616032623,0.0,0.0,0.0,0.0,0.0,0.0,0.0,0.0,0.0
521516000000,153,521516000000,imu_link,-0.00310736506595,-0.364695604859,0.00177340026951,0.931119925214,0.0,0.0,0.0,0.0,0.0,0.0,0.0,0.0,0.0,0.00337106054097,0.00455024885615,0.00212740830774,0.0,0.0,0.0,0.0,0.0,0.0,0.0,0.0,0.0,5.42961964629,-0.0863470148153,8.06097611673,0.0,0.0,0.0,0.0,0.0,0.0,0.0,0.0,0.0
521520000000,154,521520000000,imu_link,-0.00310374875327,-0.364686359661,0.00177941021822,0.931123546861,0.0,0.0,0.0,0.0,0.0,0.0,0.0,0.0,0.0,0.002793335945,0.00495204915912,0.00214971761496,0.0,0.0,0.0,0.0,0.0,0.0,0.0,0.0,0.0,5.4344402501,-0.0864297239104,8.0548780907,0.0,0.0,0.0,0.0,0.0,0.0,0.0,0.0,0.0
521524000000,155,521524000000,imu_link,-0.00310109847634,-0.364676812562,0.0017850833508,0.931127284019,0.0,0.0,0.0,0.0,0.0,0.0,0.0,0.0,0.0,0.00228261836344,0.00511504798589,0.00216942467407,0.0,0.0,0.0,0.0,0.0,0.0,0.0,0.0,0.0,5.44057423808,-0.086548192892,8.05374455616,0.0,0.0,0.0,0.0,0.0,0.0,0.0,0.0,0.0
521528000000,156,521528000000,imu_link,-0.00309929503053,-0.364667399677,0.00179048344447,0.931130966165,0.0,0.0,0.0,0.0,0.0,0.0,0.0,0.0,0.0,0.00183837401884,0.00504371085827,0.00219655851391,0.0,0.0,0.0,0.0,0.0,0.0,0.0,0.0,0.0,5.44668149414,-0.0866923379347,8.05240303649,0.0,0.0,0.0,0.0,0.0,0.0,0.0,0.0,0.0
521532000000,157,521532000000,imu_link,-0.0030980598273,-0.364658425788,0.00179568557748,0.931134474735,0.0,0.0,0.0,0.0,0.0,0.0,0.0,0.0,0.0,0.00153706299222,0.00480849622122,0.00220747974173,0.0,0.0,0.0,0.0,0.0,0.0,0.0,0.0,0.0,5.45275889003,-0.0868755972736,8.05010133067,0.0,0.0,0.0,0.0,0.0,0.0,0.0,0.0,0.0
521536000000,158,521536000000,imu_link,-0.00309683805342,-0.364649860458,0.00180075947257,0.931137823379,0.0,0.0,0.0,0.0,0.0,0.0,0.0,0.0,0.0,0.00150681465432,0.00458933590256,0.00214973564315,0.0,0.0,0.0,0.0,0.0,0.0,0.0,0.0,0.0,5.45873593786,-0.0870308977121,8.04546430469,0.0,0.0,0.0,0.0,0.0,0.0,0.0,0.0,0.0
521540000000,159,521540000000,imu_link,-0.00309502431276,-0.364641678282,0.00180576838399,0.931141023951,0.0,0.0,0.0,0.0,0.0,0.0,0.0,0.0,0.0,0.00176999358261,0.00438352218805,0.00201109100866,0.0,0.0,0.0,0.0,0.0,0.0,0.0,0.0,0.0,5.46470557851,-0.0870852786922,8.04092175496,0.0,0.0,0.0,0.0,0.0,0.0,0.0,0.0,0.0
521544000000,160,521544000000,imu_link,-0.00309228851524,-0.364633722553,0.00181076999954,0.93114413881,0.0,0.0,0.0,0.0,0.0,0.0,0.0,0.0,0.0,0.00219760878235,0.00426164599353,0.00183931104212,0.0,0.0,0.0,0.0,0.0,0.0,0.0,0.0,0.0,5.47038605732,-0.0869889876265,8.03469033396,0.0,0.0,0.0,0.0,0.0,0.0,0.0,0.0,0.0
521548000000,161,521548000000,imu_link,-0.0030886137061,-0.364625668605,0.00181578412859,0.931147295109,0.0,0.0,0.0,0.0,0.0,0.0,0.0,0.0,0.0,0.0026372207846,0.00431406029768,0.0016740536717,0.0,0.0,0.0,0.0,0.0,0.0,0.0,0.0,0.0,5.47607023946,-0.0868043550073,8.0277069465,0.0,0.0,0.0,0.0,0.0,0.0,0.0,0.0,0.0
521552000000,162,521552000000,imu_link,-0.00308414094626,-0.364617111902,0.00182081361333,0.931150650765,0.0,0.0,0.0,0.0,0.0,0.0,0.0,0.0,0.0,0.00301228945562,0.00458372673831,0.0015363216343,0.0,0.0,0.0,0.0,0.0,0.0,0.0,0.0,0.0,5.48112731815,-0.0865912731986,8.01898622801,0.0,0.0,0.0,0.0,0.0,0.0,0.0,0.0,0.0
521556000000,163,521556000000,imu_link,-0.00307941592701,-0.364607837339,0.00182579568704,0.931154288299,0.0,0.0,0.0,0.0,0.0,0.0,0.0,0.0,0.0,0.00312217999823,0.00496917671197,0.00146910954158,0.0,0.0,0.0,0.0,0.0,0.0,0.0,0.0,0.0,5.48773634764,-0.0863500407134,8.01636004855,0.0,0.0,0.0,0.0,0.0,0.0,0.0,0.0,0.0
521560000000,164,521560000000,imu_link,-0.00307512528162,-0.364597948345,0.00183062165492,0.931158165132,0.0,0.0,0.0,0.0,0.0,0.0,0.0,0.0,0.0,0.00289241611122,0.00529950367515,0.00147634588707,0.0,0.0,0.0,0.0,0.0,0.0,0.0,0.0,0.0,5.49252892592,-0.0861213756209,8.01080029277,0.0,0.0,0.0,0.0,0.0,0.0,0.0,0.0,0.0
521564000000,165,521564000000,imu_link,-0.00307157486586,-0.364587858694,0.00183523893116,0.931162118333,0.0,0.0,0.0,0.0,0.0,0.0,0.0,0.0,0.0,0.00251003749795,0.00540784637839,0.00151436514677,0.0,0.0,0.0,0.0,0.0,0.0,0.0,0.0,0.0,5.49809379554,-0.086058917875,8.00905709796,0.0,0.0,0.0,0.0,0.0,0.0,0.0,0.0,0.0
521568000000,166,521568000000,imu_link,-0.00306858959003,-0.364577895991,0.00183970870306,0.931166020098,0.0,0.0,0.0,0.0,0.0,0.0,0.0,0.0,0.0,0.00221983442071,0.00534010952201,0.00154856373495,0.0,0.0,0.0,0.0,0.0,0.0,0.0,0.0,0.0,5.50366261208,-0.0861254793486,8.00664424489,0.0,0.0,0.0,0.0,0.0,0.0,0.0,0.0,0.0
521572000000,167,521572000000,imu_link,-0.00306563977983,-0.364568320836,0.00184415585289,0.931169769905,0.0,0.0,0.0,0.0,0.0,0.0,0.0,0.0,0.0,0.00219860883112,0.00513204114874,0.00154404143916,0.0,0.0,0.0,0.0,0.0,0.0,0.0,0.0,0.0,5.50940071048,-0.0862270446555,8.00413574846,0.0,0.0,0.0,0.0,0.0,0.0,0.0,0.0,0.0
521576000000,168,521576000000,imu_link,-0.00306236226003,-0.364559058344,0.00184865415711,0.931173398135,0.0,0.0,0.0,0.0,0.0,0.0,0.0,0.0,0.0,0.00236003545211,0.00496392813046,0.00150775472909,0.0,0.0,0.0,0.0,0.0,0.0,0.0,0.0,0.0,5.51445984444,-0.086242256139,7.99782140561,0.0,0.0,0.0,0.0,0.0,0.0,0.0,0.0,0.0
521580000000,169,521580000000,imu_link,-0.00305880233122,-0.36454984741,0.00185319933488,0.931177006876,0.0,0.0,0.0,0.0,0.0,0.0,0.0,0.0,0.0,0.00249998791583,0.00493603801113,0.00147804012222,0.0,0.0,0.0,0.0,0.0,0.0,0.0,0.0,0.0,5.51865963888,-0.0861509615754,7.9881567857,0.0,0.0,0.0,0.0,0.0,0.0,0.0,0.0,0.0
521584000000,170,521584000000,imu_link,-0.00305565153853,-0.36454041817,0.00185770377134,0.931180699677,0.0,0.0,0.0,0.0,0.0,0.0,0.0,0.0,0.0,0.00230240357271,0.00505344234304,0.00153390267481,0.0,0.0,0.0,0.0,0.0,0.0,0.0,0.0,0.0,5.52393359074,-0.0859457361572,7.98178162577,0.0,0.0,0.0,0.0,0.0,0.0,0.0,0.0,0.0
521588000000,171,521588000000,imu_link,-0.00305386406753,-0.364530757197,0.00186206003195,0.931184478879,0.0,0.0,0.0,0.0,0.0,0.0,0.0,0.0,0.0,0.00164099335417,0.00517857565649,0.00171368015048,0.0,0.0,0.0,0.0,0.0,0.0,0.0,0.0,0.0,5.53009058894,-0.0858127577913,7.97976193797,0.0,0.0,0.0,0.0,0.0,0.0,0.0,0.0,0.0
521592000000,172,521592000000,imu_link,-0.00305393579404,-0.364521302455,0.00186621919873,0.931188171509,0.0,0.0,0.0,0.0,0.0,0.0,0.0,0.0,0.0,0.000739117848794,0.00506880923886,0.00196054783615,0.0,0.0,0.0,0.0,0.0,0.0,0.0,0.0,0.0,5.53587125951,-0.0858828941616,7.9794470743,0.0,0.0,0.0,0.0,0.0,0.0,0.0,0.0,0.0
521596000000,173,521596000000,imu_link,-0.00305582643043,-0.364512646808,0.00187017580242,0.931191545647,0.0,0.0,0.0,0.0,0.0,0.0,0.0,0.0,0.0,-0.000145907091498,0.00464071324974,0.00219682835036,0.0,0.0,0.0,0.0,0.0,0.0,0.0,0.0,0.0,5.54166653568,-0.0861227050441,7.9799168743,0.0,0.0,0.0,0.0,0.0,0.0,0.0,0.0,0.0
521600000000,174,521600000000,imu_link,-0.00305900563546,-0.364504970948,0.00187395448128,0.931194532272,0.0,0.0,0.0,0.0,0.0,0.0,0.0,0.0,0.0,-0.000779795398195,0.00411537826812,0.00234770241339,0.0,0.0,0.0,0.0,0.0,0.0,0.0,0.0,0.0,5.54650986498,-0.0864122286671,7.97539936211,0.0,0.0,0.0,0.0,0.0,0.0,0.0,0.0,0.0
521604000000,175,521604000000,imu_link,-0.00306293975512,-0.364498097555,0.0018776006689,0.931197202474,0.0,0.0,0.0,0.0,0.0,0.0,0.0,0.0,0.0,-0.00115666430657,0.00368499353514,0.00242266903183,0.0,0.0,0.0,0.0,0.0,0.0,0.0,0.0,0.0,5.55046073055,-0.0865866962467,7.96618342347,0.0,0.0,0.0,0.0,0.0,0.0,0.0,0.0,0.0
521608000000,176,521608000000,imu_link,-0.00306723277087,-0.364491557219,0.00188115703567,0.93119974122,0.0,0.0,0.0,0.0,0.0,0.0,0.0,0.0,0.0,-0.001340649589,0.00350643890197,0.00244587038332,0.0,0.0,0.0,0.0,0.0,0.0,0.0,0.0,0.0,5.55574497193,-0.0866718983654,7.95883712246,0.0,0.0,0.0,0.0,0.0,0.0,0.0,0.0,0.0
521612000000,177,521612000000,imu_link,-0.00307150740258,-0.364484930044,0.00188468225765,0.931202313993,0.0,0.0,0.0,0.0,0.0,0.0,0.0,0.0,0.0,-0.0013376321173,0.00355310343903,0.00242812012736,0.0,0.0,0.0,0.0,0.0,0.0,0.0,0.0,0.0,5.56021801416,-0.0866835044607,7.94996770962,0.0,0.0,0.0,0.0,0.0,0.0,0.0,0.0,0.0
521616000000,178,521616000000,imu_link,-0.00307561416961,-0.36447808931,0.00188819736936,0.931204970842,0.0,0.0,0.0,0.0,0.0,0.0,0.0,0.0,0.0,-0.00126098628941,0.00366771576319,0.00239306945082,0.0,0.0,0.0,0.0,0.0,0.0,0.0,0.0,0.0,5.56487124197,-0.0866031421319,7.94366250271,0.0,0.0,0.0,0.0,0.0,0.0,0.0,0.0,0.0
521620000000,179,521620000000,imu_link,-0.0030795800047,-0.364471132677,0.00189168094343,0.931207673495,0.0,0.0,0.0,0.0,0.0,0.0,0.0,0.0,0.0,-0.00120093555823,0.0037299414486,0.00235283713618,0.0,0.0,0.0,0.0,0.0,0.0,0.0,0.0,0.0,5.56878796792,-0.0864376649375,7.93685628974,0.0,0.0,0.0,0.0,0.0,0.0,0.0,0.0,0.0
521624000000,180,521624000000,imu_link,-0.00308348033203,-0.3644642929,0.00189514092266,0.931210330586,0.0,0.0,0.0,0.0,0.0,0.0,0.0,0.0,0.0,-0.00117491539356,0.00366720436493,0.00232977659822,0.0,0.0,0.0,0.0,0.0,0.0,0.0,0.0,0.0,5.57296117718,-0.0862874951568,7.93162348386,0.0,0.0,0.0,0.0,0.0,0.0,0.0,0.0,0.0
521628000000,181,521628000000,imu_link,-0.00308742619168,-0.364457827332,0.00189861749652,0.931212840949,0.0,0.0,0.0,0.0,0.0,0.0,0.0,0.0,0.0,-0.00119367221033,0.00346624991744,0.00234536270042,0.0,0.0,0.0,0.0,0.0,0.0,0.0,0.0,0.0,5.57824771127,-0.0861742379763,7.92952755397,0.0,0.0,0.0,0.0,0.0,0.0,0.0,0.0,0.0
521632000000,182,521632000000,imu_link,-0.00309167503026,-0.364451704719,0.00190211715691,0.931215215953,0.0,0.0,0.0,0.0,0.0,0.0,0.0,0.0,0.0,-0.00133106863624,0.00328215309138,0.00241092252959,0.0,0.0,0.0,0.0,0.0,0.0,0.0,0.0,0.0,5.58311703728,-0.0860442137174,7.92471094074,0.0,0.0,0.0,0.0,0.0,0.0,0.0,0.0,0.0
521636000000,183,521636000000,imu_link,-0.00309630584486,-0.364445796808,0.00190565285091,0.931217505509,0.0,0.0,0.0,0.0,0.0,0.0,0.0,0.0,0.0,-0.0015026896061,0.00316692307489,0.00249705533322,0.0,0.0,0.0,0.0,0.0,0.0,0.0,0.0,0.0,5.58819517559,-0.0859807619737,7.91963556671,0.0,0.0,0.0,0.0,0.0,0.0,0.0,0.0,0.0
521640000000,184,521640000000,imu_link,-0.00310131005586,-0.36443995572,0.00190924138152,0.931219767481,0.0,0.0,0.0,0.0,0.0,0.0,0.0,0.0,0.0,-0.00166702456694,0.0031310574447,0.00258962072638,0.0,0.0,0.0,0.0,0.0,0.0,0.0,0.0,0.0,5.5913999338,-0.085918816388,7.90976692642,0.0,0.0,0.0,0.0,0.0,0.0,0.0,0.0,0.0
521644000000,185,521644000000,imu_link,-0.00310662267161,-0.364434021211,0.00191289691121,0.931222064765,0.0,0.0,0.0,0.0,0.0,0.0,0.0,0.0,0.0,-0.001798268363,0.00318118035543,0.00267712481971,0.0,0.0,0.0,0.0,0.0,0.0,0.0,0.0,0.0,5.59538559151,-0.085880632502,7.90229586992,0.0,0.0,0.0,0.0,0.0,0.0,0.0,0.0,0.0
521648000000,186,521648000000,imu_link,-0.00311212260657,-0.364427838309,0.00191663530244,0.931224458371,0.0,0.0,0.0,0.0,0.0,0.0,0.0,0.0,0.0,-0.00187000028079,0.00331443670503,0.00275013252023,0.0,0.0,0.0,0.0,0.0,0.0,0.0,0.0,0.0,5.59930667995,-0.0858448418245,7.8947386031,0.0,0.0,0.0,0.0,0.0,0.0,0.0,0.0,0.0
521652000000,187,521652000000,imu_link,-0.00311752934501,-0.364421355164,0.00192050629055,0.931226969416,0.0,0.0,0.0,0.0,0.0,0.0,0.0,0.0,0.0,-0.00180197536991,0.00347533686707,0.0027952441974,0.0,0.0,0.0,0.0,0.0,0.0,0.0,0.0,0.0,5.60429281136,-0.0858371663123,7.89090443181,0.0,0.0,0.0,0.0,0.0,0.0,0.0,0.0,0.0
521656000000,188,521656000000,imu_link,-0.00312250120614,-0.364414727744,0.00192457270328,0.931229537874,0.0,0.0,0.0,0.0,0.0,0.0,0.0,0.0,0.0,-0.00156365414366,0.00355225237862,0.00280716700332,0.0,0.0,0.0,0.0,0.0,0.0,0.0,0.0,0.0,5.60971828228,-0.0858142920797,7.88950167538,0.0,0.0,0.0,0.0,0.0,0.0,0.0,0.0,0.0
521660000000,189,521660000000,imu_link,-0.00312694329623,-0.364408000263,0.00192884106122,0.931232146751,0.0,0.0,0.0,0.0,0.0,0.0,0.0,0.0,0.0,-0.00128002962837,0.00360538164657,0.00280478482008,0.0,0.0,0.0,0.0,0.0,0.0,0.0,0.0,0.0,5.61351476458,-0.0856816727877,7.88303973292,0.0,0.0,0.0,0.0,0.0,0.0,0.0,0.0,0.0
521664000000,190,521664000000,imu_link,-0.00313092932679,-0.364401219656,0.00193325732225,0.931234777546,0.0,0.0,0.0,0.0,0.0,0.0,0.0,0.0,0.0,-0.00104064694487,0.00363344026123,0.00279061692354,0.0,0.0,0.0,0.0,0.0,0.0,0.0,0.0,0.0,5.61802717448,-0.0854859451841,7.87854601933,0.0,0.0,0.0,0.0,0.0,0.0,0.0,0.0,0.0
521668000000,191,521668000000,imu_link,-0.00313474540033,-0.364394540551,0.0019377315299,0.93123736898,0.0,0.0,0.0,0.0,0.0,0.0,0.0,0.0,0.0,-0.000951113823956,0.00357875259812,0.00278651075716,0.0,0.0,0.0,0.0,0.0,0.0,0.0,0.0,0.0,5.62300199044,-0.0852719901468,7.87606215176,0.0,0.0,0.0,0.0,0.0,0.0,0.0,0.0,0.0
521672000000,192,521672000000,imu_link,-0.00313858431021,-0.364388166203,0.00194221187058,0.931239840983,0.0,0.0,0.0,0.0,0.0,0.0,0.0,0.0,0.0,-0.000961111890223,0.00341510509521,0.00279316517574,0.0,0.0,0.0,0.0,0.0,0.0,0.0,0.0,0.0,5.62804469292,-0.0851503331301,7.87417484642,0.0,0.0,0.0,0.0,0.0,0.0,0.0,0.0,0.0
521676000000,193,521676000000,imu_link,-0.00314217440382,-0.364382363712,0.00194672160557,0.931242089916,0.0,0.0,0.0,0.0,0.0,0.0,0.0,0.0,0.0,-0.000840808001884,0.00310790698071,0.00276083811388,0.0,0.0,0.0,0.0,0.0,0.0,0.0,0.0,0.0,5.63376724788,-0.085145829184,7.8745105067,0.0,0.0,0.0,0.0,0.0,0.0,0.0,0.0,0.0
521680000000,194,521680000000,imu_link,-0.00314500556532,-0.364377251947,0.00195132703873,0.931244070868,0.0,0.0,0.0,0.0,0.0,0.0,0.0,0.0,0.0,-0.0004710912231,0.00273657755612,0.00266630210587,0.0,0.0,0.0,0.0,0.0,0.0,0.0,0.0,0.0,5.63866855066,-0.0851260189387,7.87170714479,0.0,0.0,0.0,0.0,0.0,0.0,0.0,0.0,0.0
521684000000,195,521684000000,imu_link,-0.00314678714043,-0.36437281084,0.00195608363162,0.931245792575,0.0,0.0,0.0,0.0,0.0,0.0,0.0,0.0,0.0,4.40969082451e-05,0.00237581082941,0.00254466103348,0.0,0.0,0.0,0.0,0.0,0.0,0.0,0.0,0.0,5.64287690232,-0.0849843623059,7.8659067252,0.0,0.0,0.0,0.0,0.0,0.0,0.0,0.0,0.0
521688000000,196,521688000000,imu_link,-0.00314765334702,-0.364369018661,0.00196093236078,0.931247263224,0.0,0.0,0.0,0.0,0.0,0.0,0.0,0.0,0.0,0.000486069734381,0.00202687626796,0.00242001861126,0.0,0.0,0.0,0.0,0.0,0.0,0.0,0.0,0.0,5.64728671631,-0.0847476172619,7.86107018079,0.0,0.0,0.0,0.0,0.0,0.0,0.0,0.0,0.0
521692000000,197,521692000000,imu_link,-0.00314816542086,-0.364365962282,0.00196569909829,0.931248447307,0.0,0.0,0.0,0.0,0.0,0.0,0.0,0.0,0.0,0.000634852273002,0.00163184361161,0.0023164468098,0.0,0.0,0.0,0.0,0.0,0.0,0.0,0.0,0.0,5.65295951593,-0.0844885778661,7.86049095979,0.0,0.0,0.0,0.0,0.0,0.0,0.0,0.0,0.0
521696000000,198,521696000000,imu_link,-0.00314888350557,-0.364364012657,0.00197017251894,0.931249198246,0.0,0.0,0.0,0.0,0.0,0.0,0.0,0.0,0.0,0.000483721701504,0.00103826496727,0.00221608664212,0.0,0.0,0.0,0.0,0.0,0.0,0.0,0.0,0.0,5.65739401862,-0.0842890875422,7.85865502933,0.0,0.0,0.0,0.0,0.0,0.0,0.0,0.0,0.0
521700000000,199,521700000000,imu_link,-0.00315014756386,-0.364363651318,0.00197422958532,0.931249326758,0.0,0.0,0.0,0.0,0.0,0.0,0.0,0.0,0.0,0.000151106142708,0.000186518829987,0.00211980089385,0.0,0.0,0.0,0.0,0.0,0.0,0.0,0.0,0.0,5.66131072614,-0.0841986191933,7.85621587118,0.0,0.0,0.0,0.0,0.0,0.0,0.0,0.0,0.0
521704000000,200,521704000000,imu_link,-0.00315191769985,-0.364365189103,0.00197785314698,0.931248711399,0.0,0.0,0.0,0.0,0.0,0.0,0.0,0.0,0.0,-0.000166559103776,-0.000832097951446,0.00200789158806,0.0,0.0,0.0,0.0,0.0,0.0,0.0,0.0,0.0,5.66520518628,-0.0842229054222,7.85247332107,0.0,0.0,0.0,0.0,0.0,0.0,0.0,0.0,0.0
521708000000,201,521708000000,imu_link,-0.00315407266544,-0.36436870636,0.00198106481646,0.931247321088,0.0,0.0,0.0,0.0,0.0,0.0,0.0,0.0,0.0,-0.000423963564812,-0.00189394162777,0.00188386061795,0.0,0.0,0.0,0.0,0.0,0.0,0.0,0.0,0.0,5.66906562655,-0.08427383787,7.84702494652,0.0,0.0,0.0,0.0,0.0,0.0,0.0,0.0,0.0
521712000000,202,521712000000,imu_link,-0.00315657887654,-0.364374131671,0.00198385764681,0.931245183874,0.0,0.0,0.0,0.0,0.0,0.0,0.0,0.0,0.0,-0.00066688560626,-0.00291744179144,0.00175056140638,0.0,0.0,0.0,0.0,0.0,0.0,0.0,0.0,0.0,5.67313747914,-0.0842649541064,7.84115114103,0.0,0.0,0.0,0.0,0.0,0.0,0.0,0.0,0.0
521720000000,203,521720000000,imu_link,-0.00316329252409,-0.364389897769,0.00198806561118,0.931238983065,0.0,0.0,0.0,0.0,0.0,0.0,0.0,0.0,0.0,-0.00139005859422,-0.00464091430134,0.00153283168986,0.0,0.0,0.0,0.0,0.0,0.0,0.0,0.0,0.0,5.67930335906,-0.0842599208818,7.83134279245,0.0,0.0,0.0,0.0,0.0,0.0,0.0,0.0,0.0
521724000000,204,521724000000,imu_link,-0.00316788593717,-0.364399763081,0.00198947700762,0.93123510412,0.0,0.0,0.0,0.0,0.0,0.0,0.0,0.0,0.0,-0.00189757492213,-0.00529787193593,0.00148232271526,0.0,0.0,0.0,0.0,0.0,0.0,0.0,0.0,0.0,5.68486702054,-0.0841694738723,7.82036838009,0.0,0.0,0.0,0.0,0.0,0.0,0.0,0.0,0.0
521728000000,205,521728000000,imu_link,-0.00317370524767,-0.36441068578,0.00199044749701,0.931230808019,0.0,0.0,0.0,0.0,0.0,0.0,0.0,0.0,0.0,-0.00255042006864,-0.00586429811277,0.00149912714422,0.0,0.0,0.0,0.0,0.0,0.0,0.0,0.0,0.0,5.68926912781,-0.0841546883445,7.81566205869,0.0,0.0,0.0,0.0,0.0,0.0,0.0,0.0,0.0
521732000000,206,521732000000,imu_link,-0.00318090733909,-0.364422647248,0.00199103088922,0.93122610133,0.0,0.0,0.0,0.0,0.0,0.0,0.0,0.0,0.0,-0.00326648068874,-0.00642078549976,0.00156959906003,0.0,0.0,0.0,0.0,0.0,0.0,0.0,0.0,0.0,5.69400462242,-0.0842058468284,7.81289677988,0.0,0.0,0.0,0.0,0.0,0.0,0.0,0.0,0.0
521736000000,207,521736000000,imu_link,-0.00318922928294,-0.364435467999,0.00199133276932,0.931221054892,0.0,0.0,0.0,0.0,0.0,0.0,0.0,0.0,0.0,-0.00384058907067,-0.00688122282957,0.00164154471188,0.0,0.0,0.0,0.0,0.0,0.0,0.0,0.0,0.0,5.69736578959,-0.0843329381485,7.80562870212,0.0,0.0,0.0,0.0,0.0,0.0,0.0,0.0,0.0
521740000000,208,521740000000,imu_link,-0.00319818906647,-0.36444892671,0.00199149647064,0.931215756604,0.0,0.0,0.0,0.0,0.0,0.0,0.0,0.0,0.0,-0.0041637893666,-0.00722329962791,0.00169266638071,0.0,0.0,0.0,0.0,0.0,0.0,0.0,0.0,0.0,5.70211524854,-0.084468190575,7.80136528828,0.0,0.0,0.0,0.0,0.0,0.0,0.0,0.0,0.0
521744000000,209,521744000000,imu_link,-0.00320728365543,-0.364462697392,0.00199161384079,0.931210335539,0.0,0.0,0.0,0.0,0.0,0.0,0.0,0.0,0.0,-0.00423550548404,-0.00739072041806,0.0016952824538,0.0,0.0,0.0,0.0,0.0,0.0,0.0,0.0,0.0,5.70626113774,-0.0845255497809,7.79511560291,0.0,0.0,0.0,0.0,0.0,0.0,0.0,0.0,0.0
521748000000,210,521748000000,imu_link,-0.00321624937764,-0.364476527609,0.00199170761199,0.931204891344,0.0,0.0,0.0,0.0,0.0,0.0,0.0,0.0,0.0,-0.0041799013046,-0.00742274543769,0.00166073865677,0.0,0.0,0.0,0.0,0.0,0.0,0.0,0.0,0.0,5.7100052077,-0.0844753277039,7.78871075182,0.0,0.0,0.0,0.0,0.0,0.0,0.0,0.0,0.0
521752000000,211,521752000000,imu_link,-0.00322503899982,-0.364490351902,0.00199176804686,0.931199449825,0.0,0.0,0.0,0.0,0.0,0.0,0.0,0.0,0.0,-0.00410397365545,-0.00741962173824,0.00161313187887,0.0,0.0,0.0,0.0,0.0,0.0,0.0,0.0,0.0,5.71292095063,-0.0843531760384,7.78149606637,0.0,0.0,0.0,0.0,0.0,0.0,0.0,0.0,0.0
521756000000,212,521756000000,imu_link,-0.00323344315983,-0.364504151941,0.00199180138914,0.931194018876,0.0,0.0,0.0,0.0,0.0,0.0,0.0,0.0,0.0,-0.00392939887065,-0.00740674303604,0.00153029754264,0.0,0.0,0.0,0.0,0.0,0.0,0.0,0.0,0.0,5.71558442856,-0.0841907803915,7.77427640315,0.0,0.0,0.0,0.0,0.0,0.0,0.0,0.0,0.0
521760000000,213,521760000000,imu_link,-0.00324119928058,-0.364517987123,0.00199184852306,0.931188576085,0.0,0.0,0.0,0.0,0.0,0.0,0.0,0.0,0.0,-0.00362521431441,-0.00742593107536,0.00141856736267,0.0,0.0,0.0,0.0,0.0,0.0,0.0,0.0,0.0,5.71908605774,-0.0839867889998,7.76974104522,0.0,0.0,0.0,0.0,0.0,0.0,0.0,0.0,0.0
521764000000,214,521764000000,imu_link,-0.00324822638049,-0.36453192796,0.00199193796853,0.931183094083,0.0,0.0,0.0,0.0,0.0,0.0,0.0,0.0,0.0,-0.00327824348779,-0.00748306443828,0.00130526459764,0.0,0.0,0.0,0.0,0.0,0.0,0.0,0.0,0.0,5.72225935735,-0.0837515205808,7.76456934635,0.0,0.0,0.0,0.0,0.0,0.0,0.0,0.0,0.0
521768000000,215,521768000000,imu_link,-0.00325448673821,-0.364545867807,0.00199210591543,0.931177614687,0.0,0.0,0.0,0.0,0.0,0.0,0.0,0.0,0.0,-0.0029069414466,-0.00748302029236,0.00120206221099,0.0,0.0,0.0,0.0,0.0,0.0,0.0,0.0,0.0,5.72575238209,-0.0835280526437,7.75896770056,0.0,0.0,0.0,0.0,0.0,0.0,0.0,0.0,0.0
521772000000,216,521772000000,imu_link,-0.0032598427019,-0.36455961302,0.00199240387589,0.931172214097,0.0,0.0,0.0,0.0,0.0,0.0,0.0,0.0,0.0,-0.00246184565449,-0.0073791487583,0.00109798673666,0.0,0.0,0.0,0.0,0.0,0.0,0.0,0.0,0.0,5.72947364008,-0.0833330677094,7.75368467486,0.0,0.0,0.0,0.0,0.0,0.0,0.0,0.0,0.0
521776000000,217,521776000000,imu_link,-0.00326416667449,-0.364573040999,0.00199285788341,0.931166940731,0.0,0.0,0.0,0.0,0.0,0.0,0.0,0.0,0.0,-0.00195239731331,-0.00720954120293,0.000982919270191,0.0,0.0,0.0,0.0,0.0,0.0,0.0,0.0,0.0,5.73339125339,-0.0831145634622,7.74934954324,0.0,0.0,0.0,0.0,0.0,0.0,0.0,0.0,0.0
521780000000,218,521780000000,imu_link,-0.00326749063902,-0.364586137583,0.0019934379853,0.931161800115,0.0,0.0,0.0,0.0,0.0,0.0,0.0,0.0,0.0,-0.00146327791772,-0.0070322524487,0.000859747324642,0.0,0.0,0.0,0.0,0.0,0.0,0.0,0.0,0.0,5.73671167045,-0.0828372307198,7.74443772313,0.0,0.0,0.0,0.0,0.0,0.0,0.0,0.0,0.0
521784000000,219,521784000000,imu_link,-0.00326995153927,-0.36459885968,0.00199404993248,0.931156808868,0.0,0.0,0.0,0.0,0.0,0.0,0.0,0.0,0.0,-0.00105502920618,-0.00683158190655,0.000717706179453,0.0,0.0,0.0,0.0,0.0,0.0,0.0,0.0,0.0,5.73991703118,-0.0825707781279,7.73891645989,0.0,0.0,0.0,0.0,0.0,0.0,0.0,0.0,0.0
521788000000,220,521788000000,imu_link,-0.00327152945603,-0.364610828509,0.0019946349279,0.931152115533,0.0,0.0,0.0,0.0,0.0,0.0,0.0,0.0,0.0,-0.00064760634322,-0.0064274038768,0.000545125189723,0.0,0.0,0.0,0.0,0.0,0.0,0.0,0.0,0.0,5.74405229303,-0.0823699003153,7.7336635921,0.0,0.0,0.0,0.0,0.0,0.0,0.0,0.0,0.0
521792000000,221,521792000000,imu_link,-0.00327214845225,-0.364621732299,0.00199514819925,0.931147842592,0.0,0.0,0.0,0.0,0.0,0.0,0.0,0.0,0.0,-0.000212481742653,-0.00585574611043,0.00033823865803,0.0,0.0,0.0,0.0,0.0,0.0,0.0,0.0,0.0,5.74767486776,-0.0821894022947,7.72769233445,0.0,0.0,0.0,0.0,0.0,0.0,0.0,0.0,0.0
521796000000,222,521796000000,imu_link,-0.00327191946462,-0.364631478041,0.0019955631208,0.931144026181,0.0,0.0,0.0,0.0,0.0,0.0,0.0,0.0,0.0,0.000166289344976,-0.00523404394011,0.000139292115499,0.0,0.0,0.0,0.0,0.0,0.0,0.0,0.0,0.0,5.75093138647,-0.0819808422523,7.72249263217,0.0,0.0,0.0,0.0,0.0,0.0,0.0,0.0,0.0
521800000000,223,521800000000,imu_link,-0.00327132845364,-0.364640327736,0.00199585025375,0.931140562096,0.0,0.0,0.0,0.0,0.0,0.0,0.0,0.0,0.0,0.000313009859335,-0.00475278722861,1.4909115089e-05,0.0,0.0,0.0,0.0,0.0,0.0,0.0,0.0,0.0,5.75531047399,-0.0817037643142,7.72247565181,0.0,0.0,0.0,0.0,0.0,0.0,0.0,0.0,0.0
521804000000,224,521804000000,imu_link,-0.0032711435377,-0.364648743715,0.00199596442862,0.931137266708,0.0,0.0,0.0,0.0,0.0,0.0,0.0,0.0,0.0,9.31190850648e-05,-0.00451941625344,8.96535520865e-06,0.0,0.0,0.0,0.0,0.0,0.0,0.0,0.0,0.0,5.76084340669,-0.0814414911799,7.72678162412,0.0,0.0,0.0,0.0,0.0,0.0,0.0,0.0,0.0
521808000000,225,521808000000,imu_link,-0.00327218958376,-0.364657405763,0.00199579744067,0.931133871143,0.0,0.0,0.0,0.0,0.0,0.0,0.0,0.0,0.0,-0.000531650469568,-0.00465055514898,0.00010219665174,0.0,0.0,0.0,0.0,0.0,0.0,0.0,0.0,0.0,5.76555163638,-0.081292020552,7.73046498497,0.0,0.0,0.0,0.0,0.0,0.0,0.0,0.0,0.0
521812000000,226,521812000000,imu_link,-0.00327486177689,-0.364666866625,0.00199527891526,0.931130157673,0.0,0.0,0.0,0.0,0.0,0.0,0.0,0.0,0.0,-0.00135414340406,-0.0050782218958,0.000234036021366,0.0,0.0,0.0,0.0,0.0,0.0,0.0,0.0,0.0,5.76938888214,-0.0813550775624,7.73095632967,0.0,0.0,0.0,0.0,0.0,0.0,0.0,0.0,0.0
521816000000,227,521816000000,imu_link,-0.00327916466755,-0.36467754014,0.00199437320755,0.931125964235,0.0,0.0,0.0,0.0,0.0,0.0,0.0,0.0,0.0,-0.00218593121041,-0.00572804406592,0.000349601345104,0.0,0.0,0.0,0.0,0.0,0.0,0.0,0.0,0.0,5.77291743305,-0.0815125787851,7.72954242927,0.0,0.0,0.0,0.0,0.0,0.0,0.0,0.0,0.0
521820000000,228,521820000000,imu_link,-0.00328480032355,-0.364689500115,0.00199308149723,0.931121262897,0.0,0.0,0.0,0.0,0.0,0.0,0.0,0.0,0.0,-0.00287891624086,-0.00641762000179,0.00041130482209,0.0,0.0,0.0,0.0,0.0,0.0,0.0,0.0,0.0,5.77556872695,-0.0816949390765,7.72351116086,0.0,0.0,0.0,0.0,0.0,0.0,0.0,0.0,0.0
521824000000,229,521824000000,imu_link,-0.00329147687979,-0.364702663978,0.00199142674098,0.931116086901,0.0,0.0,0.0,0.0,0.0,0.0,0.0,0.0,0.0,-0.00343169723393,-0.00706302094284,0.000430583371766,0.0,0.0,0.0,0.0,0.0,0.0,0.0,0.0,0.0,5.77853202802,-0.0818158772775,7.71705953591,0.0,0.0,0.0,0.0,0.0,0.0,0.0,0.0,0.0
521828000000,230,521828000000,imu_link,-0.00329908653982,-0.364716805848,0.00198943369343,0.931110524972,0.0,0.0,0.0,0.0,0.0,0.0,0.0,0.0,0.0,-0.00392940804241,-0.00758722950973,0.000442016592411,0.0,0.0,0.0,0.0,0.0,0.0,0.0,0.0,0.0,5.78193866424,-0.0818815975315,7.71092331564,0.0,0.0,0.0,0.0,0.0,0.0,0.0,0.0,0.0
521832000000,231,521832000000,imu_link,-0.00330771993193,-0.364731694898,0.00198709814769,0.931104667138,0.0,0.0,0.0,0.0,0.0,0.0,0.0,0.0,0.0,-0.00446970066201,-0.00798746021096,0.000468312741744,0.0,0.0,0.0,0.0,0.0,0.0,0.0,0.0,0.0,5.78480960017,-0.0818857398763,7.70354328622,0.0,0.0,0.0,0.0,0.0,0.0,0.0,0.0,0.0
521836000000,232,521836000000,imu_link,-0.00331732344691,-0.364747222992,0.00198444326855,0.93109855583,0.0,0.0,0.0,0.0,0.0,0.0,0.0,0.0,0.0,-0.00498063326749,-0.0083297019663,0.000495758558874,0.0,0.0,0.0,0.0,0.0,0.0,0.0,0.0,0.0,5.78752123953,-0.081916044175,7.69677299125,0.0,0.0,0.0,0.0,0.0,0.0,0.0,0.0,0.0
521840000000,233,521840000000,imu_link,-0.00332752450591,-0.364763383183,0.0019815498964,0.93109219486,0.0,0.0,0.0,0.0,0.0,0.0,0.0,0.0,0.0,-0.00530335556676,-0.00866851759461,0.000492903860562,0.0,0.0,0.0,0.0,0.0,0.0,0.0,0.0,0.0,5.79001292289,-0.0819923795201,7.69013926543,0.0,0.0,0.0,0.0,0.0,0.0,0.0,0.0,0.0
521844000000,234,521844000000,imu_link,-0.00333775445945,-0.364780270282,0.00197853803567,0.931085548806,0.0,0.0,0.0,0.0,0.0,0.0,0.0,0.0,0.0,-0.00533961197441,-0.00905869507175,0.000442084849135,0.0,0.0,0.0,0.0,0.0,0.0,0.0,0.0,0.0,5.79400398349,-0.0820662093804,7.68794758477,0.0,0.0,0.0,0.0,0.0,0.0,0.0,0.0,0.0
521848000000,235,521848000000,imu_link,-0.00334741407717,-0.364797856972,0.00197556286102,0.931078630148,0.0,0.0,0.0,0.0,0.0,0.0,0.0,0.0,0.0,-0.00506855209648,-0.00943473031249,0.000354242304598,0.0,0.0,0.0,0.0,0.0,0.0,0.0,0.0,0.0,5.79901236441,-0.0820212628667,7.6875929641,0.0,0.0,0.0,0.0,0.0,0.0,0.0,0.0,0.0
521852000000,236,521852000000,imu_link,-0.00335612836581,-0.364815961317,0.0019727112288,0.931071511314,0.0,0.0,0.0,0.0,0.0,0.0,0.0,0.0,0.0,-0.00460677660732,-0.00971337142327,0.000238660481282,0.0,0.0,0.0,0.0,0.0,0.0,0.0,0.0,0.0,5.80317133745,-0.0817664728551,7.6843514245,0.0,0.0,0.0,0.0,0.0,0.0,0.0,0.0,0.0
521856000000,237,521856000000,imu_link,-0.00336363572425,-0.364834367499,0.00197001964417,0.931064277732,0.0,0.0,0.0,0.0,0.0,0.0,0.0,0.0,0.0,-0.00401620375863,-0.00987627709538,9.26213424279e-05,0.0,0.0,0.0,0.0,0.0,0.0,0.0,0.0,0.0,5.80597131097,-0.0814854384225,7.67780950126,0.0,0.0,0.0,0.0,0.0,0.0,0.0,0.0,0.0
521860000000,238,521860000000,imu_link,-0.00336956073484,-0.364852847856,0.0019675095003,0.931057019939,0.0,0.0,0.0,0.0,0.0,0.0,0.0,0.0,0.0,-0.0032465858492,-0.00991708876276,-0.000111660498186,0.0,0.0,0.0,0.0,0.0,0.0,0.0,0.0,0.0,5.80856133025,-0.0812135102806,7.67086282855,0.0,0.0,0.0,0.0,0.0,0.0,0.0,0.0,0.0
521864000000,239,521864000000,imu_link,-0.00337357110363,-0.364871250841,0.00196521248354,0.931049798489,0.0,0.0,0.0,0.0,0.0,0.0,0.0,0.0,0.0,-0.00231624813957,-0.00987668224923,-0.000361630404087,0.0,0.0,0.0,0.0,0.0,0.0,0.0,0.0,0.0,5.81171348519,-0.080914452922,7.66591517246,0.0,0.0,0.0,0.0,0.0,0.0,0.0,0.0,0.0
521868000000,240,521868000000,imu_link,-0.00337563048959,-0.364889579428,0.00196312334767,0.931042612392,0.0,0.0,0.0,0.0,0.0,0.0,0.0,0.0,0.0,-0.00136995944196,-0.0098378662708,-0.000620694694562,0.0,0.0,0.0,0.0,0.0,0.0,0.0,0.0,0.0,5.8143618347,-0.0805195123435,7.66076868501,0.0,0.0,0.0,0.0,0.0,0.0,0.0,0.0,0.0
521872000000,241,521872000000,imu_link,-0.0033757347794,-0.364908053317,0.00196123368523,0.931035375591,0.0,0.0,0.0,0.0,0.0,0.0,0.0,0.0,0.0,-0.00042365583581,-0.00991701388699,-0.0008847281373,0.0,0.0,0.0,0.0,0.0,0.0,0.0,0.0,0.0,5.81829831291,-0.0801384507857,7.66029547187,0.0,0.0,0.0,0.0,0.0,0.0,0.0,0.0,0.0
521876000000,242,521876000000,imu_link,-0.00337408171914,-0.36492695543,0.00195950371226,0.93102797655,0.0,0.0,0.0,0.0,0.0,0.0,0.0,0.0,0.0,0.000422863920726,-0.0101479537088,-0.00113158915598,0.0,0.0,0.0,0.0,0.0,0.0,0.0,0.0,0.0,5.82264097665,-0.0797565289975,7.66110356693,0.0,0.0,0.0,0.0,0.0,0.0,0.0,0.0,0.0
521880000000,243,521880000000,imu_link,-0.00337107613321,-0.364946568054,0.00195789505703,0.931020303193,0.0,0.0,0.0,0.0,0.0,0.0,0.0,0.0,0.0,0.00107346069596,-0.0105302889391,-0.00132283048568,0.0,0.0,0.0,0.0,0.0,0.0,0.0,0.0,0.0,5.82601007889,-0.0793727615458,7.65940977945,0.0,0.0,0.0,0.0,0.0,0.0,0.0,0.0,0.0
521884000000,244,521884000000,imu_link,-0.00336702187069,-0.364966831532,0.00195638697002,0.931012377789,0.0,0.0,0.0,0.0,0.0,0.0,0.0,0.0,0.0,0.00157891932286,-0.0108804560819,-0.00146822071669,0.0,0.0,0.0,0.0,0.0,0.0,0.0,0.0,0.0,5.82900573303,-0.0790707306948,7.65437358744,0.0,0.0,0.0,0.0,0.0,0.0,0.0,0.0,0.0
521888000000,245,521888000000,imu_link,-0.00336224995845,-0.364987341776,0.00195493421539,0.931004357589,0.0,0.0,0.0,0.0,0.0,0.0,0.0,0.0,0.0,0.00192268597096,-0.0110134213475,-0.00157374502798,0.0,0.0,0.0,0.0,0.0,0.0,0.0,0.0,0.0,5.83265471223,-0.0788327987252,7.64851321559,0.0,0.0,0.0,0.0,0.0,0.0,0.0,0.0,0.0
521892000000,246,521892000000,imu_link,-0.00335690446068,-0.365007556404,0.0019535020269,0.930996454768,0.0,0.0,0.0,0.0,0.0,0.0,0.0,0.0,0.0,0.00219393075866,-0.0108549852428,-0.00166846494358,0.0,0.0,0.0,0.0,0.0,0.0,0.0,0.0,0.0,5.83605600076,-0.0786522416145,7.64133657954,0.0,0.0,0.0,0.0,0.0,0.0,0.0,0.0,0.0
521896000000,247,521896000000,imu_link,-0.00335089177893,-0.365027175685,0.00195211624028,0.930988787139,0.0,0.0,0.0,0.0,0.0,0.0,0.0,0.0,0.0,0.00251394850088,-0.0105356590686,-0.00176785901558,0.0,0.0,0.0,0.0,0.0,0.0,0.0,0.0,0.0,5.83757581899,-0.0784725587129,7.63162284822,0.0,0.0,0.0,0.0,0.0,0.0,0.0,0.0,0.0
521900000000,248,521900000000,imu_link,-0.00334392713374,-0.365046020046,0.00195082388799,0.930981426069,0.0,0.0,0.0,0.0,0.0,0.0,0.0,0.0,0.0,0.00297540517146,-0.0101200723386,-0.00189711300304,0.0,0.0,0.0,0.0,0.0,0.0,0.0,0.0,0.0,5.83959561088,-0.0783356643728,7.62424663673,0.0,0.0,0.0,0.0,0.0,0.0,0.0,0.0,0.0
521904000000,249,521904000000,imu_link,-0.0033358794042,-0.3650641026,0.00194967176895,0.930974366823,0.0,0.0,0.0,0.0,0.0,0.0,0.0,0.0,0.0,0.00350641438752,-0.00971165929907,-0.00202854422833,0.0,0.0,0.0,0.0,0.0,0.0,0.0,0.0,0.0,5.84240163149,-0.0781882849251,7.62029939957,0.0,0.0,0.0,0.0,0.0,0.0,0.0,0.0,0.0
521908000000,250,521908000000,imu_link,-0.00332678487644,-0.365081410039,0.00194869204185,0.930967614445,0.0,0.0,0.0,0.0,0.0,0.0,0.0,0.0,0.0,0.00402642004235,-0.00929614783304,-0.00213837851974,0.0,0.0,0.0,0.0,0.0,0.0,0.0,0.0,0.0,5.84539623382,-0.0780171019835,7.61685908982,0.0,0.0,0.0,0.0,0.0,0.0,0.0,0.0,0.0
521912000000,251,521912000000,imu_link,-0.00331679418761,-0.365098092393,0.00194793282935,0.93096110948,0.0,0.0,0.0,0.0,0.0,0.0,0.0,0.0,0.0,0.00448484199378,-0.0089612581544,-0.00219851972587,0.0,0.0,0.0,0.0,0.0,0.0,0.0,0.0,0.0,5.84878086539,-0.0778518978821,7.61568784796,0.0,0.0,0.0,0.0,0.0,0.0,0.0,0.0,0.0
521916000000,252,521916000000,imu_link,-0.0033063158192,-0.365114372643,0.0019473387369,0.930954763153,0.0,0.0,0.0,0.0,0.0,0.0,0.0,0.0,0.0,0.00474264458487,-0.00874587605963,-0.00221017265096,0.0,0.0,0.0,0.0,0.0,0.0,0.0,0.0,0.0,5.85186017039,-0.0776495840651,7.61414607508,0.0,0.0,0.0,0.0,0.0,0.0,0.0,0.0,0.0
521920000000,253,521920000000,imu_link,-0.00329592014387,-0.365130381215,0.00194683665287,0.93094852245,0.0,0.0,0.0,0.0,0.0,0.0,0.0,0.0,0.0,0.00472138876435,-0.00860020524262,-0.00215190231686,0.0,0.0,0.0,0.0,0.0,0.0,0.0,0.0,0.0,5.85442346016,-0.0774838282651,7.61096928854,0.0,0.0,0.0,0.0,0.0,0.0,0.0,0.0,0.0
521924000000,254,521924000000,imu_link,-0.003286135285,-0.365146030466,0.0019463388205,0.930942420086,0.0,0.0,0.0,0.0,0.0,0.0,0.0,0.0,0.0,0.00443842337264,-0.00840710708697,-0.00203795196486,0.0,0.0,0.0,0.0,0.0,0.0,0.0,0.0,0.0,5.85784607806,-0.0774113763944,7.60763638652,0.0,0.0,0.0,0.0,0.0,0.0,0.0,0.0,0.0
521928000000,255,521928000000,imu_link,-0.0032774763923,-0.365161377783,0.00194573713515,0.930936432003,0.0,0.0,0.0,0.0,0.0,0.0,0.0,0.0,0.0,0.00389583939064,-0.0082444345952,-0.00188033661985,0.0,0.0,0.0,0.0,0.0,0.0,0.0,0.0,0.0,5.86151744865,-0.0774094899645,7.6059932811,0.0,0.0,0.0,0.0,0.0,0.0,0.0,0.0,0.0
521932000000,256,521932000000,imu_link,-0.00327010215651,-0.365176595718,0.0019449818531,0.93093049011,0.0,0.0,0.0,0.0,0.0,0.0,0.0,0.0,0.0,0.00327003020164,-0.0081742763423,-0.00171711036944,0.0,0.0,0.0,0.0,0.0,0.0,0.0,0.0,0.0,5.86432221305,-0.0775214360269,7.60308609451,0.0,0.0,0.0,0.0,0.0,0.0,0.0,0.0,0.0
521936000000,257,521936000000,imu_link,-0.00326382434829,-0.365191918935,0.00194413666613,0.930924502915,0.0,0.0,0.0,0.0,0.0,0.0,0.0,0.0,0.0,0.00274308923436,-0.00823034014903,-0.00155889122761,0.0,0.0,0.0,0.0,0.0,0.0,0.0,0.0,0.0,5.86759523093,-0.0777295064825,7.60143643009,0.0,0.0,0.0,0.0,0.0,0.0,0.0,0.0,0.0
521940000000,258,521940000000,imu_link,-0.00325836424516,-0.365207475705,0.00194327610905,0.930918420932,0.0,0.0,0.0,0.0,0.0,0.0,0.0,0.0,0.0,0.00235929014125,-0.00835553788064,-0.00141702478457,0.0,0.0,0.0,0.0,0.0,0.0,0.0,0.0,0.0,5.87055995762,-0.0778752766477,7.5984605799,0.0,0.0,0.0,0.0,0.0,0.0,0.0,0.0,0.0
521944000000,259,521944000000,imu_link,-0.00325360089026,-0.365223311273,0.00194244579655,0.930912226737,0.0,0.0,0.0,0.0,0.0,0.0,0.0,0.0,0.0,0.00204005133711,-0.00850516965556,-0.00127606351941,0.0,0.0,0.0,0.0,0.0,0.0,0.0,0.0,0.0,5.87359295759,-0.0779356352291,7.5950365553,0.0,0.0,0.0,0.0,0.0,0.0,0.0,0.0,0.0
521948000000,260,521948000000,imu_link,-0.00324955412914,-0.365239340971,0.0019416791401,0.930905953406,0.0,0.0,0.0,0.0,0.0,0.0,0.0,0.0,0.0,0.0017178154322,-0.00860938720401,-0.00111581499437,0.0,0.0,0.0,0.0,0.0,0.0,0.0,0.0,0.0,5.87739039476,-0.0780176258449,7.59274652161,0.0,0.0,0.0,0.0,0.0,0.0,0.0,0.0,0.0
521952000000,261,521952000000,imu_link,-0.00324643114675,-0.365255585006,0.00194099382336,0.930899592249,0.0,0.0,0.0,0.0,0.0,0.0,0.0,0.0,0.0,0.0013023433164,-0.00872442546136,-0.000909518008537,0.0,0.0,0.0,0.0,0.0,0.0,0.0,0.0,0.0,5.88047403381,-0.0781260411021,7.58986960108,0.0,0.0,0.0,0.0,0.0,0.0,0.0,0.0,0.0
521956000000,262,521956000000,imu_link,-0.00324413242484,-0.365272241055,0.001940446454,0.930893065925,0.0,0.0,0.0,0.0,0.0,0.0,0.0,0.0,0.0,0.000943216512982,-0.00894578513025,-0.000695286043927,0.0,0.0,0.0,0.0,0.0,0.0,0.0,0.0,0.0,5.88316754242,-0.0782728284366,7.58734385591,0.0,0.0,0.0,0.0,0.0,0.0,0.0,0.0,0.0
521960000000,263,521960000000,imu_link,-0.00324251665097,-0.365289514314,0.00194005923102,0.930886294339,0.0,0.0,0.0,0.0,0.0,0.0,0.0,0.0,0.0,0.000653592561619,-0.00927745430921,-0.000496778685696,0.0,0.0,0.0,0.0,0.0,0.0,0.0,0.0,0.0,5.886649397,-0.0783963618845,7.58658916034,0.0,0.0,0.0,0.0,0.0,0.0,0.0,0.0,0.0
521964000000,264,521964000000,imu_link,-0.00324147137194,-0.365307330636,0.00193984564645,0.930879306917,0.0,0.0,0.0,0.0,0.0,0.0,0.0,0.0,0.0,0.000418897083857,-0.00956936845066,-0.000312433060093,0.0,0.0,0.0,0.0,0.0,0.0,0.0,0.0,0.0,5.88941026725,-0.0784661756556,7.58210480333,0.0,0.0,0.0,0.0,0.0,0.0,0.0,0.0,0.0
521968000000,265,521968000000,imu_link,-0.00324105721235,-0.365325555756,0.00193980768569,0.930872156102,0.0,0.0,0.0,0.0,0.0,0.0,0.0,0.0,0.0,0.000156566083877,-0.00978915655723,-0.000115918574935,0.0,0.0,0.0,0.0,0.0,0.0,0.0,0.0,0.0,5.89290885297,-0.0784993635909,7.57902409999,0.0,0.0,0.0,0.0,0.0,0.0,0.0,0.0,0.0
521972000000,266,521972000000,imu_link,-0.00324131559274,-0.365344057258,0.00193994821039,0.930864893688,0.0,0.0,0.0,0.0,0.0,0.0,0.0,0.0,0.0,-0.000124304549491,-0.00993781610475,8.96633724972e-05,0.0,0.0,0.0,0.0,0.0,0.0,0.0,0.0,0.0,5.89655951816,-0.0785584530738,7.57625920593,0.0,0.0,0.0,0.0,0.0,0.0,0.0,0.0,0.0
521976000000,267,521976000000,imu_link,-0.00324211632237,-0.365362979105,0.00194028091984,0.930857463574,0.0,0.0,0.0,0.0,0.0,0.0,0.0,0.0,0.0,-0.000342304213711,-0.0101638780252,0.000277665859675,0.0,0.0,0.0,0.0,0.0,0.0,0.0,0.0,0.0,5.9007453716,-0.0786577043427,7.57697060559,0.0,0.0,0.0,0.0,0.0,0.0,0.0,0.0,0.0
521980000000,268,521980000000,imu_link,-0.00324292755206,-0.365382538944,0.00194089326709,0.930849781968,0.0,0.0,0.0,0.0,0.0,0.0,0.0,0.0,0.0,-0.000297133219683,-0.0105072041637,0.000408945253532,0.0,0.0,0.0,0.0,0.0,0.0,0.0,0.0,0.0,5.90402491649,-0.0788054312091,7.57608090547,0.0,0.0,0.0,0.0,0.0,0.0,0.0,0.0,0.0
521984000000,269,521984000000,imu_link,-0.00324306660904,-0.36540301111,0.00194188749706,0.930841743297,0.0,0.0,0.0,0.0,0.0,0.0,0.0,0.0,0.0,8.40149938577e-05,-0.0109983278234,0.00046275009574,0.0,0.0,0.0,0.0,0.0,0.0,0.0,0.0,0.0,5.90800654731,-0.0788879875052,7.5770970946,0.0,0.0,0.0,0.0,0.0,0.0,0.0,0.0,0.0
521988000000,270,521988000000,imu_link,-0.00324220013392,-0.365424598903,0.00194333046833,0.930833268702,0.0,0.0,0.0,0.0,0.0,0.0,0.0,0.0,0.0,0.000632206263108,-0.0115989116142,0.000486505670528,0.0,0.0,0.0,0.0,0.0,0.0,0.0,0.0,0.0,5.91128957919,-0.0787826720073,7.57590059501,0.0,0.0,0.0,0.0,0.0,0.0,0.0,0.0,0.0
521992000000,271,521992000000,imu_link,-0.00324045479358,-0.365447314359,0.00194517331451,0.930824353023,0.0,0.0,0.0,0.0,0.0,0.0,0.0,0.0,0.0,0.00111249606004,-0.0122058388031,0.000510635146403,0.0,0.0,0.0,0.0,0.0,0.0,0.0,0.0,0.0,5.91431245703,-0.0785443770888,7.57274991023,0.0,0.0,0.0,0.0,0.0,0.0,0.0,0.0,0.0
521996000000,272,521996000000,imu_link,-0.00323819075564,-0.365471154691,0.00194730488023,0.930814996234,0.0,0.0,0.0,0.0,0.0,0.0,0.0,0.0,0.0,0.00140485139552,-0.0128109431462,0.000548836878843,0.0,0.0,0.0,0.0,0.0,0.0,0.0,0.0,0.0,5.91669281104,-0.0783131712204,7.56807851101,0.0,0.0,0.0,0.0,0.0,0.0,0.0,0.0,0.0
522000000000,273,522000000000,imu_link,-0.00323580382907,-0.365495881561,0.00194960577333,0.930805290688,0.0,0.0,0.0,0.0,0.0,0.0,0.0,0.0,0.0,0.00149155897086,-0.0132876683147,0.000604091162198,0.0,0.0,0.0,0.0,0.0,0.0,0.0,0.0,0.0,5.92027199896,-0.0781799356368,7.56467337979,0.0,0.0,0.0,0.0,0.0,0.0,0.0,0.0,0.0
522004000000,274,522004000000,imu_link,-0.00323342640749,-0.365521091057,0.00195200470703,0.930795394608,0.0,0.0,0.0,0.0,0.0,0.0,0.0,0.0,0.0,0.00150427331434,-0.0135472531705,0.000650861428204,0.0,0.0,0.0,0.0,0.0,0.0,0.0,0.0,0.0,5.92284480188,-0.0781372640762,7.55805412343,0.0,0.0,0.0,0.0,0.0,0.0,0.0,0.0,0.0
522008000000,275,522008000000,imu_link,-0.00323118639187,-0.365546423352,0.00195443714666,0.930785448954,0.0,0.0,0.0,0.0,0.0,0.0,0.0,0.0,0.0,0.00144624845473,-0.0136133837337,0.000691417249976,0.0,0.0,0.0,0.0,0.0,0.0,0.0,0.0,0.0,5.92550760708,-0.0780992905484,7.55207867724,0.0,0.0,0.0,0.0,0.0,0.0,0.0,0.0,0.0
522012000000,276,522012000000,imu_link,-0.00322920633532,-0.365571581165,0.00195684209333,0.930775570178,0.0,0.0,0.0,0.0,0.0,0.0,0.0,0.0,0.0,0.00132051897142,-0.0135196595145,0.000726352323955,0.0,0.0,0.0,0.0,0.0,0.0,0.0,0.0,0.0,5.92811188778,-0.078092987382,7.54676902936,0.0,0.0,0.0,0.0,0.0,0.0,0.0,0.0,0.0
522016000000,277,522016000000,imu_link,-0.00322757075505,-0.365596561314,0.0019591687291,0.930765759362,0.0,0.0,0.0,0.0,0.0,0.0,0.0,0.0,0.0,0.00114617336361,-0.0134240905464,0.000753093114852,0.0,0.0,0.0,0.0,0.0,0.0,0.0,0.0,0.0,5.93103186692,-0.0781190405488,7.54400561547,0.0,0.0,0.0,0.0,0.0,0.0,0.0,0.0,0.0
522020000000,278,522020000000,imu_link,-0.00322637323356,-0.365621586631,0.00196136457888,0.930755928777,0.0,0.0,0.0,0.0,0.0,0.0,0.0,0.0,0.0,0.000918324699266,-0.0134480848457,0.000772250420827,0.0,0.0,0.0,0.0,0.0,0.0,0.0,0.0,0.0,5.93431851676,-0.0781514848277,7.54384647234,0.0,0.0,0.0,0.0,0.0,0.0,0.0,0.0,0.0
522024000000,279,522024000000,imu_link,-0.00322552952063,-0.365646766067,0.00196342645406,0.93074603592,0.0,0.0,0.0,0.0,0.0,0.0,0.0,0.0,0.0,0.000728926391193,-0.0135306296813,0.00077439406223,0.0,0.0,0.0,0.0,0.0,0.0,0.0,0.0,0.0,5.9359260872,-0.0782038111455,7.53887781271,0.0,0.0,0.0,0.0,0.0,0.0,0.0,0.0,0.0
522028000000,280,522028000000,imu_link,-0.00322490309169,-0.365672082242,0.00196537581847,0.930736088033,0.0,0.0,0.0,0.0,0.0,0.0,0.0,0.0,0.0,0.000607015696131,-0.0136039297063,0.000761592680423,0.0,0.0,0.0,0.0,0.0,0.0,0.0,0.0,0.0,5.93783971371,-0.0782719342392,7.53366006969,0.0,0.0,0.0,0.0,0.0,0.0,0.0,0.0,0.0
522032000000,281,522032000000,imu_link,-0.00322443188585,-0.365697380807,0.00196721483727,0.930726145961,0.0,0.0,0.0,0.0,0.0,0.0,0.0,0.0,0.0,0.000514631353214,-0.0135943411069,0.000738644414849,0.0,0.0,0.0,0.0,0.0,0.0,0.0,0.0,0.0,5.94009551604,-0.0782594023738,7.52846956385,0.0,0.0,0.0,0.0,0.0,0.0,0.0,0.0,0.0
522036000000,282,522036000000,imu_link,-0.0032240255004,-0.365722592572,0.00196894171681,0.930716237212,0.0,0.0,0.0,0.0,0.0,0.0,0.0,0.0,0.0,0.000464100922593,-0.0135476099717,0.000698418433607,0.0,0.0,0.0,0.0,0.0,0.0,0.0,0.0,0.0,5.94162087468,-0.0781956839049,7.52233434417,0.0,0.0,0.0,0.0,0.0,0.0,0.0,0.0,0.0
522040000000,283,522040000000,imu_link,-0.00322363608702,-0.365747836743,0.00197055750394,0.930706315113,0.0,0.0,0.0,0.0,0.0,0.0,0.0,0.0,0.0,0.000435834907432,-0.0135649359831,0.000649785113107,0.0,0.0,0.0,0.0,0.0,0.0,0.0,0.0,0.0,5.94412131656,-0.0781822838474,7.52018919566,0.0,0.0,0.0,0.0,0.0,0.0,0.0,0.0,0.0
522044000000,284,522044000000,imu_link,-0.00322322648986,-0.365773263452,0.0019721150545,0.930696320675,0.0,0.0,0.0,0.0,0.0,0.0,0.0,0.0,0.0,0.000434281091871,-0.0136630353205,0.000618770516596,0.0,0.0,0.0,0.0,0.0,0.0,0.0,0.0,0.0,5.94667355262,-0.0782176925352,7.51850337656,0.0,0.0,0.0,0.0,0.0,0.0,0.0,0.0,0.0
522048000000,285,522048000000,imu_link,-0.00322284164291,-0.365798893263,0.00197364652333,0.930686245573,0.0,0.0,0.0,0.0,0.0,0.0,0.0,0.0,0.0,0.000417663364578,-0.0137722347645,0.000610912125472,0.0,0.0,0.0,0.0,0.0,0.0,0.0,0.0,0.0,5.94975461019,-0.0782143965195,7.51685730004,0.0,0.0,0.0,0.0,0.0,0.0,0.0,0.0,0.0
522052000000,286,522052000000,imu_link,-0.00322255661823,-0.365824304887,0.00197514092909,0.930676255151,0.0,0.0,0.0,0.0,0.0,0.0,0.0,0.0,0.0,0.00036478470479,-0.0136550563148,0.000612190546625,0.0,0.0,0.0,0.0,0.0,0.0,0.0,0.0,0.0,5.9538135628,-0.0782090472434,7.51418625459,0.0,0.0,0.0,0.0,0.0,0.0,0.0,0.0,0.0
522056000000,287,522056000000,imu_link,-0.00322230852997,-0.365849079456,0.00197657019837,0.930666514364,0.0,0.0,0.0,0.0,0.0,0.0,0.0,0.0,0.0,0.000336713895542,-0.0133128078313,0.000589416121255,0.0,0.0,0.0,0.0,0.0,0.0,0.0,0.0,0.0,5.9570370582,-0.0782040330379,7.5096329051,0.0,0.0,0.0,0.0,0.0,0.0,0.0,0.0,0.0
522060000000,288,522060000000,imu_link,-0.00322162490778,-0.365872925472,0.0019779383417,0.930657139498,0.0,0.0,0.0,0.0,0.0,0.0,0.0,0.0,0.0,0.000529708112163,-0.0128141174543,0.000482436750072,0.0,0.0,0.0,0.0,0.0,0.0,0.0,0.0,0.0,5.96001741052,-0.0782546828771,7.50581397411,0.0,0.0,0.0,0.0,0.0,0.0,0.0,0.0,0.0
522064000000,289,522064000000,imu_link,-0.00321963394729,-0.365895742246,0.00197931132263,0.930648173098,0.0,0.0,0.0,0.0,0.0,0.0,0.0,0.0,0.0,0.00114061079863,-0.0122617585944,0.000246781933973,0.0,0.0,0.0,0.0,0.0,0.0,0.0,0.0,0.0,5.96425317201,-0.0783362402889,7.50608981471,0.0,0.0,0.0,0.0,0.0,0.0,0.0,0.0,0.0
522068000000,290,522068000000,imu_link,-0.00321580142028,-0.365917634192,0.00198077276427,0.930639575855,0.0,0.0,0.0,0.0,0.0,0.0,0.0,0.0,0.0,0.0020152292905,-0.0117658428738,-4.78423776856e-05,0.0,0.0,0.0,0.0,0.0,0.0,0.0,0.0,0.0,5.9679107512,-0.0782381063584,7.50658080536,0.0,0.0,0.0,0.0,0.0,0.0,0.0,0.0,0.0
522072000000,291,522072000000,imu_link,-0.00321018563796,-0.365938818406,0.00198234689633,0.930631262205,0.0,0.0,0.0,0.0,0.0,0.0,0.0,0.0,0.0,0.00286678789467,-0.0113865824222,-0.00032081048423,0.0,0.0,0.0,0.0,0.0,0.0,0.0,0.0,0.0,5.97050687014,-0.0779636855722,7.50518190288,0.0,0.0,0.0,0.0,0.0,0.0,0.0,0.0,0.0
522076000000,292,522076000000,imu_link,-0.00320379376196,-0.365959574886,0.00198388284056,0.930623118918,0.0,0.0,0.0,0.0,0.0,0.0,0.0,0.0,0.0,0.00322162662069,-0.0111570875875,-0.00048006358058,0.0,0.0,0.0,0.0,0.0,0.0,0.0,0.0,0.0,5.97557007071,-0.0775318983823,7.51021560157,0.0,0.0,0.0,0.0,0.0,0.0,0.0,0.0,0.0
522080000000,293,522080000000,imu_link,-0.00319755161137,-0.365980143216,0.00198523832656,0.930615048914,0.0,0.0,0.0,0.0,0.0,0.0,0.0,0.0,0.0,0.00311924147346,-0.0110556925318,-0.000536407455905,0.0,0.0,0.0,0.0,0.0,0.0,0.0,0.0,0.0,5.9780734865,-0.0771968500733,7.50904166748,0.0,0.0,0.0,0.0,0.0,0.0,0.0,0.0,0.0
522084000000,294,522084000000,imu_link,-0.0031921429464,-0.36600089251,0.00198629131362,0.930606904956,0.0,0.0,0.0,0.0,0.0,0.0,0.0,0.0,0.0,0.00267576218046,-0.0111521183091,-0.000524858810463,0.0,0.0,0.0,0.0,0.0,0.0,0.0,0.0,0.0,5.98152747486,-0.0770409958499,7.51094129498,0.0,0.0,0.0,0.0,0.0,0.0,0.0,0.0,0.0
522088000000,295,522088000000,imu_link,-0.003187691944,-0.366022161579,0.00198704270956,0.930598553359,0.0,0.0,0.0,0.0,0.0,0.0,0.0,0.0,0.0,0.00217411954676,-0.0114305369083,-0.000490560904121,0.0,0.0,0.0,0.0,0.0,0.0,0.0,0.0,0.0,5.98437823802,-0.0771429547112,7.51135626277,0.0,0.0,0.0,0.0,0.0,0.0,0.0,0.0,0.0
522092000000,296,522092000000,imu_link,-0.00318419024582,-0.366044125828,0.00198753124806,0.930589925047,0.0,0.0,0.0,0.0,0.0,0.0,0.0,0.0,0.0,0.00168317143753,-0.0118032839107,-0.000439968172942,0.0,0.0,0.0,0.0,0.0,0.0,0.0,0.0,0.0,5.98637686425,-0.0773197768947,7.50869333286,0.0,0.0,0.0,0.0,0.0,0.0,0.0,0.0,0.0
522096000000,297,522096000000,imu_link,-0.00318139164139,-0.366066644333,0.00198783281078,0.930581076089,0.0,0.0,0.0,0.0,0.0,0.0,0.0,0.0,0.0,0.00132090267721,-0.0121005624769,-0.000398948553314,0.0,0.0,0.0,0.0,0.0,0.0,0.0,0.0,0.0,5.98912169859,-0.0775226122829,7.50544131843,0.0,0.0,0.0,0.0,0.0,0.0,0.0,0.0,0.0
522100000000,298,522100000000,imu_link,-0.00317883073406,-0.366089405889,0.0019880197605,0.930572130309,0.0,0.0,0.0,0.0,0.0,0.0,0.0,0.0,0.0,0.00118893087673,-0.0122309554257,-0.000409060798501,0.0,0.0,0.0,0.0,0.0,0.0,0.0,0.0,0.0,5.99118186949,-0.0776803009088,7.49921808034,0.0,0.0,0.0,0.0,0.0,0.0,0.0,0.0,0.0
522104000000,299,522104000000,imu_link,-0.00317585766129,-0.366112165684,0.00198819641836,0.930563186001,0.0,0.0,0.0,0.0,0.0,0.0,0.0,0.0,0.0,0.00137882593764,-0.0122302595382,-0.000489292816877,0.0,0.0,0.0,0.0,0.0,0.0,0.0,0.0,0.0,5.99369324167,-0.0778019627868,7.49500688343,0.0,0.0,0.0,0.0,0.0,0.0,0.0,0.0,0.0
522108000000,300,522108000000,imu_link,-0.00317199352967,-0.366134746742,0.0019884263869,0.930554314291,0.0,0.0,0.0,0.0,0.0,0.0,0.0,0.0,0.0,0.00180347102206,-0.012134777529,-0.000627390432133,0.0,0.0,0.0,0.0,0.0,0.0,0.0,0.0,0.0,5.99666456921,-0.0777943963197,7.49196042424,0.0,0.0,0.0,0.0,0.0,0.0,0.0,0.0,0.0
522112000000,301,522112000000,imu_link,-0.00316701901999,-0.366157395204,0.00198874090825,0.930545419008,0.0,0.0,0.0,0.0,0.0,0.0,0.0,0.0,0.0,0.00233547903133,-0.0121716927692,-0.000791407400486,0.0,0.0,0.0,0.0,0.0,0.0,0.0,0.0,0.0,5.99899534534,-0.0776755508372,7.49040383571,0.0,0.0,0.0,0.0,0.0,0.0,0.0,0.0,0.0
522116000000,302,522116000000,imu_link,-0.00316104481479,-0.366180716767,0.00198912162146,0.930536261442,0.0,0.0,0.0,0.0,0.0,0.0,0.0,0.0,0.0,0.00281164375181,-0.0125339857339,-0.0009444381478,0.0,0.0,0.0,0.0,0.0,0.0,0.0,0.0,0.0,6.00288864191,-0.0774860626401,7.49508552273,0.0,0.0,0.0,0.0,0.0,0.0,0.0,0.0,0.0
522120000000,303,522120000000,imu_link,-0.00315451564704,-0.366204935258,0.00198955096926,0.930526751959,0.0,0.0,0.0,0.0,0.0,0.0,0.0,0.0,0.0,0.00307730640706,-0.0130163586714,-0.00102448592114,0.0,0.0,0.0,0.0,0.0,0.0,0.0,0.0,0.0,6.00561863212,-0.0772516149952,7.49426422737,0.0,0.0,0.0,0.0,0.0,0.0,0.0,0.0,0.0
522124000000,304,522124000000,imu_link,-0.00314789391853,-0.366229876575,0.0019899978343,0.93051695749,0.0,0.0,0.0,0.0,0.0,0.0,0.0,0.0,0.0,0.00312241043847,-0.0134049648776,-0.00103414048289,0.0,0.0,0.0,0.0,0.0,0.0,0.0,0.0,0.0,6.00757812858,-0.0770291895586,7.48874148469,0.0,0.0,0.0,0.0,0.0,0.0,0.0,0.0,0.0
522128000000,305,522128000000,imu_link,-0.00314151844808,-0.366255146988,0.00199039324925,0.930507031946,0.0,0.0,0.0,0.0,0.0,0.0,0.0,0.0,0.0,0.00299788175284,-0.0135817551199,-0.00101337210596,0.0,0.0,0.0,0.0,0.0,0.0,0.0,0.0,0.0,6.00995679397,-0.0768614181749,7.48248533208,0.0,0.0,0.0,0.0,0.0,0.0,0.0,0.0,0.0
522132000000,306,522132000000,imu_link,-0.00313548862114,-0.366280289101,0.00199069833186,0.930497155099,0.0,0.0,0.0,0.0,0.0,0.0,0.0,0.0,0.0,0.00282073173179,-0.0135126597566,-0.000991949619379,0.0,0.0,0.0,0.0,0.0,0.0,0.0,0.0,0.0,6.01229893984,-0.0768446201894,7.47607302432,0.0,0.0,0.0,0.0,0.0,0.0,0.0,0.0,0.0
522136000000,307,522136000000,imu_link,-0.00312958569364,-0.366305149339,0.00199093403928,0.930487388116,0.0,0.0,0.0,0.0,0.0,0.0,0.0,0.0,0.0,0.00274943936605,-0.0133611621512,-0.0010006533916,0.0,0.0,0.0,0.0,0.0,0.0,0.0,0.0,0.0,6.01428138741,-0.0769415708354,7.47149956003,0.0,0.0,0.0,0.0,0.0,0.0,0.0,0.0,0.0
522140000000,308,522140000000,imu_link,-0.00312334962146,-0.366329802088,0.00199115979092,0.930477703157,0.0,0.0,0.0,0.0,0.0,0.0,0.0,0.0,0.0,0.00290294429914,-0.013249921977,-0.00106605853894,0.0,0.0,0.0,0.0,0.0,0.0,0.0,0.0,0.0,6.01602684085,-0.0770539346532,7.46834961744,0.0,0.0,0.0,0.0,0.0,0.0,0.0,0.0,0.0
522144000000,309,522144000000,imu_link,-0.00311634754722,-0.366354431481,0.00199145232006,0.930468029021,0.0,0.0,0.0,0.0,0.0,0.0,0.0,0.0,0.0,0.00327158966637,-0.0132379406527,-0.00117527004237,0.0,0.0,0.0,0.0,0.0,0.0,0.0,0.0,0.0,6.01828829834,-0.0770682833964,7.46693915008,0.0,0.0,0.0,0.0,0.0,0.0,0.0,0.0,0.0
522148000000,310,522148000000,imu_link,-0.00310841391046,-0.366379074004,0.00199186506137,0.930458351765,0.0,0.0,0.0,0.0,0.0,0.0,0.0,0.0,0.0,0.00372698643514,-0.0132457355645,-0.00129000162799,0.0,0.0,0.0,0.0,0.0,0.0,0.0,0.0,0.0,6.02126860582,-0.0769720699605,7.46588889157,0.0,0.0,0.0,0.0,0.0,0.0,0.0,0.0,0.0
522152000000,311,522152000000,imu_link,-0.00309984223669,-0.366403470001,0.00199239461304,0.930448772643,0.0,0.0,0.0,0.0,0.0,0.0,0.0,0.0,0.0,0.00404561634539,-0.0131138844174,-0.00135225433663,0.0,0.0,0.0,0.0,0.0,0.0,0.0,0.0,0.0,6.02354147169,-0.0767649843603,7.46140705872,0.0,0.0,0.0,0.0,0.0,0.0,0.0,0.0,0.0
522156000000,312,522156000000,imu_link,-0.00309118979916,-0.366427179625,0.00199300739079,0.930439463103,0.0,0.0,0.0,0.0,0.0,0.0,0.0,0.0,0.0,0.00409953837267,-0.0127453883781,-0.00132753632205,0.0,0.0,0.0,0.0,0.0,0.0,0.0,0.0,0.0,6.02695116346,-0.0765985454756,7.45782455726,0.0,0.0,0.0,0.0,0.0,0.0,0.0,0.0,0.0
522160000000,313,522160000000,imu_link,-0.00308280610702,-0.366449907686,0.00199364620334,0.930430538427,0.0,0.0,0.0,0.0,0.0,0.0,0.0,0.0,0.0,0.00398085561722,-0.0122180060591,-0.00126505303305,0.0,0.0,0.0,0.0,0.0,0.0,0.0,0.0,0.0,6.02898294292,-0.076530510295,7.45251195001,0.0,0.0,0.0,0.0,0.0,0.0,0.0,0.0,0.0
522164000000,314,522164000000,imu_link,-0.00307471525251,-0.366471808299,0.00199428402126,0.930421937983,0.0,0.0,0.0,0.0,0.0,0.0,0.0,0.0,0.0,0.00384576543115,-0.0117733639307,-0.00121090835988,0.0,0.0,0.0,0.0,0.0,0.0,0.0,0.0,0.0,6.03037450734,-0.076567543523,7.44908274846,0.0,0.0,0.0,0.0,0.0,0.0,0.0,0.0,0.0
522168000000,315,522168000000,imu_link,-0.00306651378387,-0.366493273456,0.00199497303409,0.930413508655,0.0,0.0,0.0,0.0,0.0,0.0,0.0,0.0,0.0,0.00390730236284,-0.0115396192932,-0.00120686158242,0.0,0.0,0.0,0.0,0.0,0.0,0.0,0.0,0.0,6.03302743155,-0.076658654745,7.45047248972,0.0,0.0,0.0,0.0,0.0,0.0,0.0,0.0,0.0
522172000000,316,522172000000,imu_link,-0.0030580209027,-0.366514912528,0.00199573759196,0.930405010968,0.0,0.0,0.0,0.0,0.0,0.0,0.0,0.0,0.0,0.00405643452079,-0.0116334587869,-0.00122531635101,0.0,0.0,0.0,0.0,0.0,0.0,0.0,0.0,0.0,6.03551434698,-0.076617280006,7.4525810197,0.0,0.0,0.0,0.0,0.0,0.0,0.0,0.0,0.0
522176000000,317,522176000000,imu_link,-0.00304926131081,-0.366537146748,0.0019965260097,0.930396278982,0.0,0.0,0.0,0.0,0.0,0.0,0.0,0.0,0.0,0.00418392939315,-0.011953563047,-0.00126376960072,0.0,0.0,0.0,0.0,0.0,0.0,0.0,0.0,0.0,6.03835005585,-0.0765098556184,7.45380623193,0.0,0.0,0.0,0.0,0.0,0.0,0.0,0.0,0.0
522180000000,318,522180000000,imu_link,-0.00304001225717,-0.366559823123,0.00199732747626,0.930387373668,0.0,0.0,0.0,0.0,0.0,0.0,0.0,0.0,0.0,0.0044133118801,-0.0121915266584,-0.00134790336412,0.0,0.0,0.0,0.0,0.0,0.0,0.0,0.0,0.0,6.0399638643,-0.0764973334441,7.44825543429,0.0,0.0,0.0,0.0,0.0,0.0,0.0,0.0,0.0
522184000000,319,522184000000,imu_link,-0.00302994288636,-0.366582338262,0.00199818440675,0.930378533705,0.0,0.0,0.0,0.0,0.0,0.0,0.0,0.0,0.0,0.00480534402685,-0.0121054463836,-0.00147226973581,0.0,0.0,0.0,0.0,0.0,0.0,0.0,0.0,0.0,6.04257026733,-0.0765527017312,7.44169005762,0.0,0.0,0.0,0.0,0.0,0.0,0.0,0.0,0.0
522188000000,320,522188000000,imu_link,-0.00301871625264,-0.366603782021,0.00199915711218,0.930370118679,0.0,0.0,0.0,0.0,0.0,0.0,0.0,0.0,0.0,0.00536662500995,-0.0115304962589,-0.00162932998748,0.0,0.0,0.0,0.0,0.0,0.0,0.0,0.0,0.0,6.04607091693,-0.0765402237604,7.43513830913,0.0,0.0,0.0,0.0,0.0,0.0,0.0,0.0,0.0
522192000000,321,522192000000,imu_link,-0.00300628830356,-0.366623927447,0.00200024316661,0.930362218214,0.0,0.0,0.0,0.0,0.0,0.0,0.0,0.0,0.0,0.00594831049687,-0.0108335836497,-0.00179535980364,0.0,0.0,0.0,0.0,0.0,0.0,0.0,0.0,0.0,6.04800808945,-0.0763809589139,7.43071025749,0.0,0.0,0.0,0.0,0.0,0.0,0.0,0.0,0.0
522196000000,322,522196000000,imu_link,-0.00299291548059,-0.366643190408,0.00200139015431,0.930354667759,0.0,0.0,0.0,0.0,0.0,0.0,0.0,0.0,0.0,0.00640042646679,-0.0103599527684,-0.00193924506557,0.0,0.0,0.0,0.0,0.0,0.0,0.0,0.0,0.0,6.05099935446,-0.0761743022443,7.43369921574,0.0,0.0,0.0,0.0,0.0,0.0,0.0,0.0,0.0
522200000000,323,522200000000,imu_link,-0.00297890324195,-0.366662569315,0.00200256234288,0.930347072948,0.0,0.0,0.0,0.0,0.0,0.0,0.0,0.0,0.0,0.00670230560331,-0.0104226971703,-0.00204487001038,0.0,0.0,0.0,0.0,0.0,0.0,0.0,0.0,0.0,6.05350142341,-0.0759901996224,7.43932867448,0.0,0.0,0.0,0.0,0.0,0.0,0.0,0.0,0.0
522204000000,324,522204000000,imu_link,-0.00296450215527,-0.366682904514,0.00200376730197,0.930339101716,0.0,0.0,0.0,0.0,0.0,0.0,0.0,0.0,0.0,0.00688767710076,-0.0109369869778,-0.00210196149004,0.0,0.0,0.0,0.0,0.0,0.0,0.0,0.0,0.0,6.05738277836,-0.075884837202,7.44640103684,0.0,0.0,0.0,0.0,0.0,0.0,0.0,0.0,0.0
522208000000,325,522208000000,imu_link,-0.00294975657276,-0.36670450586,0.00200507343843,0.930330631549,0.0,0.0,0.0,0.0,0.0,0.0,0.0,0.0,0.0,0.00706446799943,-0.0116179307368,-0.00211943410059,0.0,0.0,0.0,0.0,0.0,0.0,0.0,0.0,0.0,6.0604087033,-0.0758337176511,7.44746367809,0.0,0.0,0.0,0.0,0.0,0.0,0.0,0.0,0.0
522212000000,326,522212000000,imu_link,-0.00293478801062,-0.366727183006,0.00200650264319,0.930321736934,0.0,0.0,0.0,0.0,0.0,0.0,0.0,0.0,0.0,0.00718905070531,-0.0121965836457,-0.00210423195916,0.0,0.0,0.0,0.0,0.0,0.0,0.0,0.0,0.0,6.06231368919,-0.0757866618673,7.44222221267,0.0,0.0,0.0,0.0,0.0,0.0,0.0,0.0,0.0
522216000000,327,522216000000,imu_link,-0.00291978206741,-0.366750589222,0.00200804097976,0.930312553903,0.0,0.0,0.0,0.0,0.0,0.0,0.0,0.0,0.0,0.00722529505727,-0.0125888014566,-0.00206110291829,0.0,0.0,0.0,0.0,0.0,0.0,0.0,0.0,0.0,6.06404135334,-0.0757084216122,7.43566698042,0.0,0.0,0.0,0.0,0.0,0.0,0.0,0.0,0.0
522220000000,328,522220000000,imu_link,-0.00290493315524,-0.366774424324,0.00200963657892,0.930303200245,0.0,0.0,0.0,0.0,0.0,0.0,0.0,0.0,0.0,0.00716207191888,-0.0128195149442,-0.00200612606725,0.0,0.0,0.0,0.0,0.0,0.0,0.0,0.0,0.0,6.06565986381,-0.075658849177,7.42916234476,0.0,0.0,0.0,0.0,0.0,0.0,0.0,0.0,0.0
522224000000,329,522224000000,imu_link,-0.00289034138751,-0.366798540183,0.00201126125725,0.930293734083,0.0,0.0,0.0,0.0,0.0,0.0,0.0,0.0,0.0,0.00704734800398,-0.0129705252485,-0.00194573759003,0.0,0.0,0.0,0.0,0.0,0.0,0.0,0.0,0.0,6.06700894673,-0.0756903562794,7.42360650533,0.0,0.0,0.0,0.0,0.0,0.0,0.0,0.0,0.0
522228000000,330,522228000000,imu_link,-0.00287608616698,-0.36682298317,0.00201294543435,0.930284136808,0.0,0.0,0.0,0.0,0.0,0.0,0.0,0.0,0.0,0.00690119770263,-0.0131464815163,-0.00185668031328,0.0,0.0,0.0,0.0,0.0,0.0,0.0,0.0,0.0,6.06896543005,-0.0757736173486,7.42141355476,0.0,0.0,0.0,0.0,0.0,0.0,0.0,0.0,0.0
522232000000,331,522232000000,imu_link,-0.00286198935124,-0.366847980145,0.00201479805308,0.930274319257,0.0,0.0,0.0,0.0,0.0,0.0,0.0,0.0,0.0,0.0068575367666,-0.0134446487661,-0.00174985272331,0.0,0.0,0.0,0.0,0.0,0.0,0.0,0.0,0.0,6.07173215712,-0.0759687883627,7.42230594953,0.0,0.0,0.0,0.0,0.0,0.0,0.0,0.0,0.0
522236000000,332,522236000000,imu_link,-0.00284754471346,-0.366873811664,0.00201693503557,0.930264172038,0.0,0.0,0.0,0.0,0.0,0.0,0.0,0.0,0.0,0.00707016838052,-0.0138940522446,-0.00168224559802,0.0,0.0,0.0,0.0,0.0,0.0,0.0,0.0,0.0,6.07488142287,-0.0761442239484,7.42420479025,0.0,0.0,0.0,0.0,0.0,0.0,0.0,0.0,0.0
522240000000,333,522240000000,imu_link,-0.00283222873523,-0.366900569951,0.00201941065529,0.930253660154,0.0,0.0,0.0,0.0,0.0,0.0,0.0,0.0,0.0,0.00753612153869,-0.0143933757734,-0.00168552231419,0.0,0.0,0.0,0.0,0.0,0.0,0.0,0.0,0.0,6.07683040637,-0.0761937554849,7.42194213183,0.0,0.0,0.0,0.0,0.0,0.0,0.0,0.0,0.0
522244000000,334,522244000000,imu_link,-0.00281559039095,-0.366928147499,0.00202224470917,0.930242827196,0.0,0.0,0.0,0.0,0.0,0.0,0.0,0.0,0.0,0.00821566242335,-0.0148351801252,-0.00176222936904,0.0,0.0,0.0,0.0,0.0,0.0,0.0,0.0,0.0,6.07938607561,-0.0761397563306,7.41955080345,0.0,0.0,0.0,0.0,0.0,0.0,0.0,0.0,0.0
522248000000,335,522248000000,imu_link,-0.00279756011087,-0.366956387805,0.00202545902387,0.930231734904,0.0,0.0,0.0,0.0,0.0,0.0,0.0,0.0,0.0,0.00893181055431,-0.0151929638402,-0.00184140293907,0.0,0.0,0.0,0.0,0.0,0.0,0.0,0.0,0.0,6.08208683229,-0.075970186612,7.41647766177,0.0,0.0,0.0,0.0,0.0,0.0,0.0,0.0,0.0
522252000000,336,522252000000,imu_link,-0.00277854740074,-0.366985203645,0.00202901758643,0.930220416389,0.0,0.0,0.0,0.0,0.0,0.0,0.0,0.0,0.0,0.00945101703465,-0.0155036376747,-0.00186211823247,0.0,0.0,0.0,0.0,0.0,0.0,0.0,0.0,0.0,6.0849466088,-0.0757124143995,7.41478469705,0.0,0.0,0.0,0.0,0.0,0.0,0.0,0.0,0.0
522256000000,337,522256000000,imu_link,-0.00275933817556,-0.36701475417,0.00203280700365,0.93020880665,0.0,0.0,0.0,0.0,0.0,0.0,0.0,0.0,0.0,0.00958362838368,-0.0158993042199,-0.00179152966324,0.0,0.0,0.0,0.0,0.0,0.0,0.0,0.0,0.0,6.08876144229,-0.0754755869032,7.41724522431,0.0,0.0,0.0,0.0,0.0,0.0,0.0,0.0,0.0
522260000000,338,522260000000,imu_link,-0.00274079616134,-0.367045145845,0.00203671219093,0.930196861289,0.0,0.0,0.0,0.0,0.0,0.0,0.0,0.0,0.0,0.00929323229081,-0.0163515981034,-0.00161606574377,0.0,0.0,0.0,0.0,0.0,0.0,0.0,0.0,0.0,6.09145017703,-0.0753371108757,7.41692562498,0.0,0.0,0.0,0.0,0.0,0.0,0.0,0.0,0.0
522264000000,339,522264000000,imu_link,-0.00272366856286,-0.367076344071,0.00204062119564,0.930184591959,0.0,0.0,0.0,0.0,0.0,0.0,0.0,0.0,0.0,0.00863482501034,-0.0167847436547,-0.00135548842658,0.0,0.0,0.0,0.0,0.0,0.0,0.0,0.0,0.0,6.09415961449,-0.0753678936293,7.41530020104,0.0,0.0,0.0,0.0,0.0,0.0,0.0,0.0,0.0
522268000000,340,522268000000,imu_link,-0.00270828377627,-0.367108220615,0.00204443068483,0.930172048526,0.0,0.0,0.0,0.0,0.0,0.0,0.0,0.0,0.0,0.00780492635532,-0.0171486189127,-0.00108254390769,0.0,0.0,0.0,0.0,0.0,0.0,0.0,0.0,0.0,6.09640588674,-0.0755325594358,7.41151744042,0.0,0.0,0.0,0.0,0.0,0.0,0.0,0.0,0.0
522272000000,341,522272000000,imu_link,-0.00269469213416,-0.367140453007,0.00204808694519,0.93015935825,0.0,0.0,0.0,0.0,0.0,0.0,0.0,0.0,0.0,0.00694227153517,-0.0173390322189,-0.00082500122131,0.0,0.0,0.0,0.0,0.0,0.0,0.0,0.0,0.0,6.09832791973,-0.0758726442143,7.40618142909,0.0,0.0,0.0,0.0,0.0,0.0,0.0,0.0,0.0
522276000000,342,522276000000,imu_link,-0.00268288222651,-0.367172730069,0.00205155744126,0.93014664411,0.0,0.0,0.0,0.0,0.0,0.0,0.0,0.0,0.0,0.0060794443531,-0.0173621131779,-0.00058435876409,0.0,0.0,0.0,0.0,0.0,0.0,0.0,0.0,0.0,6.10057485983,-0.076304895209,7.40215440477,0.0,0.0,0.0,0.0,0.0,0.0,0.0,0.0,0.0
522280000000,343,522280000000,imu_link,-0.00267291216801,-0.367204839787,0.00205483433713,0.930133989721,0.0,0.0,0.0,0.0,0.0,0.0,0.0,0.0,0.0,0.00518848905025,-0.0172711691862,-0.000336462642651,0.0,0.0,0.0,0.0,0.0,0.0,0.0,0.0,0.0,6.10100410046,-0.0766539587623,7.39548330435,0.0,0.0,0.0,0.0,0.0,0.0,0.0,0.0,0.0
522284000000,344,522284000000,imu_link,-0.00266483787817,-0.367236734913,0.00205790828564,0.930121413678,0.0,0.0,0.0,0.0,0.0,0.0,0.0,0.0,0.0,0.00426989316732,-0.0171547660092,-8.25727501594e-05,0.0,0.0,0.0,0.0,0.0,0.0,0.0,0.0,0.0,6.10230881588,-0.0769570570212,7.39179882737,0.0,0.0,0.0,0.0,0.0,0.0,0.0,0.0,0.0
522288000000,345,522288000000,imu_link,-0.00265859766977,-0.367268459677,0.00206079249931,0.930108898742,0.0,0.0,0.0,0.0,0.0,0.0,0.0,0.0,0.0,0.00338235187407,-0.0170621773827,0.000166124187399,0.0,0.0,0.0,0.0,0.0,0.0,0.0,0.0,0.0,6.10391978797,-0.0772443158965,7.38944779304,0.0,0.0,0.0,0.0,0.0,0.0,0.0,0.0,0.0
522292000000,346,522292000000,imu_link,-0.00265392835128,-0.367299966168,0.0020635272452,0.930096464552,0.0,0.0,0.0,0.0,0.0,0.0,0.0,0.0,0.0,0.00262468737178,-0.0169440233001,0.00038528963914,0.0,0.0,0.0,0.0,0.0,0.0,0.0,0.0,0.0,6.1054582319,-0.0775218531687,7.38616580613,0.0,0.0,0.0,0.0,0.0,0.0,0.0,0.0,0.0
522296000000,347,522296000000,imu_link,-0.00265039259633,-0.367331244219,0.00206617197161,0.930084116289,0.0,0.0,0.0,0.0,0.0,0.0,0.0,0.0,0.0,0.00208134329092,-0.0168207178181,0.000551819641364,0.0,0.0,0.0,0.0,0.0,0.0,0.0,0.0,0.0,6.10925662104,-0.0778099431189,7.38764376188,0.0,0.0,0.0,0.0,0.0,0.0,0.0,0.0,0.0
522300000000,348,522300000000,imu_link,-0.00264774828586,-0.367362349491,0.00206877865687,0.930071832581,0.0,0.0,0.0,0.0,0.0,0.0,0.0,0.0,0.0,0.00166006131112,-0.0167275407352,0.000698018887399,0.0,0.0,0.0,0.0,0.0,0.0,0.0,0.0,0.0,6.11023660314,-0.0779588114241,7.38351655567,0.0,0.0,0.0,0.0,0.0,0.0,0.0,0.0,0.0
522304000000,349,522304000000,imu_link,-0.00264594051391,-0.367393461724,0.00207137959958,0.930059542539,0.0,0.0,0.0,0.0,0.0,0.0,0.0,0.0,0.0,0.00126997046639,-0.0167310688016,0.000849002108382,0.0,0.0,0.0,0.0,0.0,0.0,0.0,0.0,0.0,6.11105203538,-0.0780480556972,7.37974278447,0.0,0.0,0.0,0.0,0.0,0.0,0.0,0.0,0.0
522308000000,350,522308000000,imu_link,-0.00264487179339,-0.367424730428,0.00207397789374,0.930047187372,0.0,0.0,0.0,0.0,0.0,0.0,0.0,0.0,0.0,0.000925554804875,-0.0168150259561,0.000983392228801,0.0,0.0,0.0,0.0,0.0,0.0,0.0,0.0,0.0,6.11334696045,-0.0780907573693,7.37897275848,0.0,0.0,0.0,0.0,0.0,0.0,0.0,0.0,0.0
522312000000,351,522312000000,imu_link,-0.0026441378054,-0.367456161084,0.00207661023923,0.930034765967,0.0,0.0,0.0,0.0,0.0,0.0,0.0,0.0,0.0,0.000775896393878,-0.0169022049366,0.00106057592508,0.0,0.0,0.0,0.0,0.0,0.0,0.0,0.0,0.0,6.11540435195,-0.0781301796065,7.3765333495,0.0,0.0,0.0,0.0,0.0,0.0,0.0,0.0,0.0
522316000000,352,522316000000,imu_link,-0.0026431645536,-0.367487595096,0.00207933007117,0.930022342483,0.0,0.0,0.0,0.0,0.0,0.0,0.0,0.0,0.0,0.00090322571303,-0.0169045108698,0.0010572968813,0.0,0.0,0.0,0.0,0.0,0.0,0.0,0.0,0.0,6.11821203194,-0.0781747342542,7.37464366967,0.0,0.0,0.0,0.0,0.0,0.0,0.0,0.0,0.0
522320000000,353,522320000000,imu_link,-0.00264149929563,-0.367518738603,0.00208217892374,0.930010034241,0.0,0.0,0.0,0.0,0.0,0.0,0.0,0.0,0.0,0.0012491773772,-0.0167491382115,0.000990405191608,0.0,0.0,0.0,0.0,0.0,0.0,0.0,0.0,0.0,6.11971768734,-0.0781510771736,7.36948545229,0.0,0.0,0.0,0.0,0.0,0.0,0.0,0.0,0.0
522324000000,354,522324000000,imu_link,-0.00263889568669,-0.367549262931,0.00208517338957,0.929997971826,0.0,0.0,0.0,0.0,0.0,0.0,0.0,0.0,0.0,0.00171324238574,-0.0164172129684,0.000886247153617,0.0,0.0,0.0,0.0,0.0,0.0,0.0,0.0,0.0,6.12154870411,-0.0781154062353,7.36507269607,0.0,0.0,0.0,0.0,0.0,0.0,0.0,0.0,0.0
522328000000,355,522328000000,imu_link,-0.00263542769817,-0.367578621479,0.00208831290607,0.929986371138,0.0,0.0,0.0,0.0,0.0,0.0,0.0,0.0,0.0,0.00214365929999,-0.0157913655669,0.000795901326361,0.0,0.0,0.0,0.0,0.0,0.0,0.0,0.0,0.0,6.12357704508,-0.0779505133133,7.35903243135,0.0,0.0,0.0,0.0,0.0,0.0,0.0,0.0,0.0
522332000000,356,522332000000,imu_link,-0.00263126414608,-0.367606495854,0.00209161235651,0.929975357637,0.0,0.0,0.0,0.0,0.0,0.0,0.0,0.0,0.0,0.00249880922505,-0.0149942529955,0.000743774969585,0.0,0.0,0.0,0.0,0.0,0.0,0.0,0.0,0.0,6.1252780721,-0.0777592312859,7.35441275406,0.0,0.0,0.0,0.0,0.0,0.0,0.0,0.0,0.0
522336000000,357,522336000000,imu_link,-0.00262633387373,-0.367632719751,0.00209510610943,0.929964997336,0.0,0.0,0.0,0.0,0.0,0.0,0.0,0.0,0.0,0.0028936235703,-0.014107798826,0.000694685859391,0.0,0.0,0.0,0.0,0.0,0.0,0.0,0.0,0.0,6.12673986983,-0.0776232851504,7.35048781451,0.0,0.0,0.0,0.0,0.0,0.0,0.0,0.0,0.0
522340000000,358,522340000000,imu_link,-0.00262023195266,-0.367657581322,0.00209888194486,0.929955177401,0.0,0.0,0.0,0.0,0.0,0.0,0.0,0.0,0.0,0.00349240780334,-0.0133766103438,0.00061170398386,0.0,0.0,0.0,0.0,0.0,0.0,0.0,0.0,0.0,6.12821985354,-0.0775449003581,7.34970146662,0.0,0.0,0.0,0.0,0.0,0.0,0.0,0.0,0.0
522344000000,359,522344000000,imu_link,-0.00261247875533,-0.367681578592,0.00210295718024,0.929945702334,0.0,0.0,0.0,0.0,0.0,0.0,0.0,0.0,0.0,0.0043166114392,-0.0129134586795,0.000448136545988,0.0,0.0,0.0,0.0,0.0,0.0,0.0,0.0,0.0,6.13093784823,-0.0774674606887,7.35345679842,0.0,0.0,0.0,0.0,0.0,0.0,0.0,0.0,0.0
522348000000,360,522348000000,imu_link,-0.00260291574181,-0.367704988001,0.00210730939974,0.929936463354,0.0,0.0,0.0,0.0,0.0,0.0,0.0,0.0,0.0,0.00520997432157,-0.0125989811107,0.000244728252773,0.0,0.0,0.0,0.0,0.0,0.0,0.0,0.0,0.0,6.13196355149,-0.077250621665,7.35148503355,0.0,0.0,0.0,0.0,0.0,0.0,0.0,0.0,0.0
522352000000,361,522352000000,imu_link,-0.00259177370272,-0.367727853448,0.00211189562064,0.929927442548,0.0,0.0,0.0,0.0,0.0,0.0,0.0,0.0,0.0,0.00598804987832,-0.0123079127858,6.37017478902e-05,0.0,0.0,0.0,0.0,0.0,0.0,0.0,0.0,0.0,6.1335165959,-0.0769091837638,7.3488993832,0.0,0.0,0.0,0.0,0.0,0.0,0.0,0.0,0.0
522356000000,362,522356000000,imu_link,-0.00257971505492,-0.367749996747,0.00211663439637,0.929918708717,0.0,0.0,0.0,0.0,0.0,0.0,0.0,0.0,0.0,0.0064434234493,-0.0119205413702,-3.32642762422e-05,0.0,0.0,0.0,0.0,0.0,0.0,0.0,0.0,0.0,6.1357898394,-0.076520783697,7.34642828089,0.0,0.0,0.0,0.0,0.0,0.0,0.0,0.0,0.0
522360000000,363,522360000000,imu_link,-0.00256732803345,-0.367771235455,0.00212143047029,0.92991033263,0.0,0.0,0.0,0.0,0.0,0.0,0.0,0.0,0.0,0.00660805833935,-0.0114345847317,-6.62144691782e-05,0.0,0.0,0.0,0.0,0.0,0.0,0.0,0.0,0.0,6.13736653453,-0.0762228911598,7.34216156763,0.0,0.0,0.0,0.0,0.0,0.0,0.0,0.0,0.0
522364000000,364,522364000000,imu_link,-0.00255504114793,-0.367791410735,0.002126218342,0.929902376139,0.0,0.0,0.0,0.0,0.0,0.0,0.0,0.0,0.0,0.00656165796271,-0.010862863932,-5.06945590635e-05,0.0,0.0,0.0,0.0,0.0,0.0,0.0,0.0,0.0,6.13939131826,-0.0761324374823,7.33925528067,0.0,0.0,0.0,0.0,0.0,0.0,0.0,0.0,0.0
522368000000,365,522368000000,imu_link,-0.00254301764526,-0.367810652123,0.00213095080176,0.929894787755,0.0,0.0,0.0,0.0,0.0,0.0,0.0,0.0,0.0,0.00643047086398,-0.0103606053188,-2.72217040831e-05,0.0,0.0,0.0,0.0,0.0,0.0,0.0,0.0,0.0,6.14118296697,-0.0762278618038,7.3380952828,0.0,0.0,0.0,0.0,0.0,0.0,0.0,0.0,0.0
522372000000,366,522372000000,imu_link,-0.00253131912058,-0.367829457391,0.00213561687497,0.929887370513,0.0,0.0,0.0,0.0,0.0,0.0,0.0,0.0,0.0,0.006267846642,-0.01012592833,2.04940447728e-06,0.0,0.0,0.0,0.0,0.0,0.0,0.0,0.0,0.0,6.14386868973,-0.0763426155396,7.34170368795,0.0,0.0,0.0,0.0,0.0,0.0,0.0,0.0,0.0
522376000000,367,522376000000,imu_link,-0.00252009609759,-0.367848336415,0.00214017283218,0.929879922448,0.0,0.0,0.0,0.0,0.0,0.0,0.0,0.0,0.0,0.00602639541015,-0.0101652418638,3.82429969819e-05,0.0,0.0,0.0,0.0,0.0,0.0,0.0,0.0,0.0,6.1467188302,-0.0764098153248,7.34554911359,0.0,0.0,0.0,0.0,0.0,0.0,0.0,0.0,0.0
522380000000,368,522380000000,imu_link,-0.00250940383572,-0.367867560323,0.00214461255949,0.929872336179,0.0,0.0,0.0,0.0,0.0,0.0,0.0,0.0,0.0,0.0057577026639,-0.0103502973852,8.1536192887e-05,0.0,0.0,0.0,0.0,0.0,0.0,0.0,0.0,0.0,6.14843972467,-0.0764744997341,7.34516496524,0.0,0.0,0.0,0.0,0.0,0.0,0.0,0.0,0.0
522384000000,369,522384000000,imu_link,-0.0024993317232,-0.367887123107,0.00214893472464,0.92986461384,0.0,0.0,0.0,0.0,0.0,0.0,0.0,0.0,0.0,0.00544721504679,-0.0105320682594,0.000140664420204,0.0,0.0,0.0,0.0,0.0,0.0,0.0,0.0,0.0,6.14899250524,-0.0765078439493,7.3399665141,0.0,0.0,0.0,0.0,0.0,0.0,0.0,0.0,0.0
522388000000,370,522388000000,imu_link,-0.00248996480259,-0.367906978298,0.002153135936,0.929856773595,0.0,0.0,0.0,0.0,0.0,0.0,0.0,0.0,0.0,0.00509663835077,-0.0106887970185,0.000213905884943,0.0,0.0,0.0,0.0,0.0,0.0,0.0,0.0,0.0,6.15048531484,-0.0765830854581,7.33610220275,0.0,0.0,0.0,0.0,0.0,0.0,0.0,0.0,0.0
522392000000,371,522392000000,imu_link,-0.00248136011222,-0.367927139764,0.00215721596834,0.929848809805,0.0,0.0,0.0,0.0,0.0,0.0,0.0,0.0,0.0,0.0047194810332,-0.0108529475158,0.00029753292999,0.0,0.0,0.0,0.0,0.0,0.0,0.0,0.0,0.0,6.15166186887,-0.0766578650531,7.33215144297,0.0,0.0,0.0,0.0,0.0,0.0,0.0,0.0,0.0
522396000000,372,522396000000,imu_link,-0.00247361711284,-0.367947678732,0.00216119798994,0.929840693967,0.0,0.0,0.0,0.0,0.0,0.0,0.0,0.0,0.0,0.00430023363201,-0.011055378346,0.000410180731709,0.0,0.0,0.0,0.0,0.0,0.0,0.0,0.0,0.0,6.15463164235,-0.076768901995,7.33268824125,0.0,0.0,0.0,0.0,0.0,0.0,0.0,0.0,0.0
522400000000,373,522400000000,imu_link,-0.00246685324372,-0.367968674564,0.0021651043468,0.929832394305,0.0,0.0,0.0,0.0,0.0,0.0,0.0,0.0,0.0,0.00383037468355,-0.011300450511,0.00055477060008,0.0,0.0,0.0,0.0,0.0,0.0,0.0,0.0,0.0,6.15653103997,-0.0768417491511,7.33103186873,0.0,0.0,0.0,0.0,0.0,0.0,0.0,0.0,0.0
522404000000,374,522404000000,imu_link,-0.00246141774198,-0.367990060048,0.0021689227655,0.929823936507,0.0,0.0,0.0,0.0,0.0,0.0,0.0,0.0,0.0,0.00319599905392,-0.0115091544819,0.000757976096,0.0,0.0,0.0,0.0,0.0,0.0,0.0,0.0,0.0,6.15871375094,-0.0768811848167,7.32897423433,0.0,0.0,0.0,0.0,0.0,0.0,0.0,0.0,0.0
522408000000,375,522408000000,imu_link,-0.00245740545183,-0.368011554267,0.002172643558,0.929815431526,0.0,0.0,0.0,0.0,0.0,0.0,0.0,0.0,0.0,0.00251619223267,-0.0115667243086,0.000974369716274,0.0,0.0,0.0,0.0,0.0,0.0,0.0,0.0,0.0,6.1608101054,-0.0770148704471,7.32499070339,0.0,0.0,0.0,0.0,0.0,0.0,0.0,0.0,0.0
522412000000,376,522412000000,imu_link,-0.0024547460339,-0.368032874089,0.00217626538746,0.929806991628,0.0,0.0,0.0,0.0,0.0,0.0,0.0,0.0,0.0,0.00186929115159,-0.0114720787416,0.00117744092105,0.0,0.0,0.0,0.0,0.0,0.0,0.0,0.0,0.0,6.16282291583,-0.0772317923856,7.32138457326,0.0,0.0,0.0,0.0,0.0,0.0,0.0,0.0,0.0
522416000000,377,522416000000,imu_link,-0.00245329643934,-0.36805390891,0.00217981490173,0.929798660937,0.0,0.0,0.0,0.0,0.0,0.0,0.0,0.0,0.0,0.00129397700228,-0.0113180796177,0.00136667969201,0.0,0.0,0.0,0.0,0.0,0.0,0.0,0.0,0.0,6.16456018424,-0.0775061769222,7.31882626257,0.0,0.0,0.0,0.0,0.0,0.0,0.0,0.0,0.0
522420000000,378,522420000000,imu_link,-0.0024527477734,-0.368074828198,0.00218331956257,0.929790373144,0.0,0.0,0.0,0.0,0.0,0.0,0.0,0.0,0.0,0.000867060197641,-0.0112554372745,0.00151171747855,0.0,0.0,0.0,0.0,0.0,0.0,0.0,0.0,0.0,6.16683806672,-0.0777341882688,7.31944780672,0.0,0.0,0.0,0.0,0.0,0.0,0.0,0.0,0.0
522424000000,379,522424000000,imu_link,-0.00245293059471,-0.368095871544,0.00218675112911,0.929782033922,0.0,0.0,0.0,0.0,0.0,0.0,0.0,0.0,0.0,0.00051334470763,-0.0113216881549,0.0016122613085,0.0,0.0,0.0,0.0,0.0,0.0,0.0,0.0,0.0,6.16935704969,-0.0778632790861,7.32086690468,0.0,0.0,0.0,0.0,0.0,0.0,0.0,0.0,0.0
522428000000,380,522428000000,imu_link,-0.00245365951329,-0.368117063301,0.00219006652515,0.929773634209,0.0,0.0,0.0,0.0,0.0,0.0,0.0,0.0,0.0,0.000237851591926,-0.0114010767031,0.0016586468853,0.0,0.0,0.0,0.0,0.0,0.0,0.0,0.0,0.0,6.1724538403,-0.0779413326803,7.32179779696,0.0,0.0,0.0,0.0,0.0,0.0,0.0,0.0,0.0
522432000000,381,522432000000,imu_link,-0.002454626607,-0.368138171209,0.00219327109826,0.929765266758,0.0,0.0,0.0,0.0,0.0,0.0,0.0,0.0,0.0,0.000106860603073,-0.0113557614788,0.0016510324689,0.0,0.0,0.0,0.0,0.0,0.0,0.0,0.0,0.0,6.17381336781,-0.0779863316539,7.31670240767,0.0,0.0,0.0,0.0,0.0,0.0,0.0,0.0,0.0
522436000000,382,522436000000,imu_link,-0.00245548611755,-0.368158876221,0.00219641566097,0.929757058702,0.0,0.0,0.0,0.0,0.0,0.0,0.0,0.0,0.0,0.000146465547023,-0.0111391664017,0.00160365162402,0.0,0.0,0.0,0.0,0.0,0.0,0.0,0.0,0.0,6.17691078919,-0.0780312231074,7.31458848865,0.0,0.0,0.0,0.0,0.0,0.0,0.0,0.0,0.0
522440000000,383,522440000000,imu_link,-0.00245584975983,-0.368179165527,0.00219956930336,0.929749016009,0.0,0.0,0.0,0.0,0.0,0.0,0.0,0.0,0.0,0.000379314993489,-0.0109160295753,0.0015169221969,0.0,0.0,0.0,0.0,0.0,0.0,0.0,0.0,0.0,6.17855784242,-0.0780216624128,7.31183502139,0.0,0.0,0.0,0.0,0.0,0.0,0.0,0.0,0.0
