%time,field.header.seq,field.header.stamp,field.header.frame_id,field.orientation.x,field.orientation.y,field.orientation.z,field.orientation.w,field.orientation_covariance0,field.orientation_covariance1,field.orientation_covariance2,field.orientation_covariance3,field.orientation_covariance4,field.orientation_covariance5,field.orientation_covariance6,field.orientation_covariance7,field.orientation_covariance8,field.angular_velocity.x,field.angular_velocity.y,field.angular_velocity.z,field.angular_velocity_covariance0,field.angular_velocity_covariance1,field.angular_velocity_covariance2,field.angular_velocity_covariance3,field.angular_velocity_covariance4,field.angular_velocity_covariance5,field.angular_velocity_covariance6,field.angular_velocity_covariance7,field.angular_velocity_covariance8,field.linear_acceleration.x,field.linear_acceleration.y,field.linear_acceleration.z,field.linear_acceleration_covariance0,field.linear_acceleration_covariance1,field.linear_acceleration_covariance2,field.linear_acceleration_covariance3,field.linear_acceleration_covariance4,field.linear_acceleration_covariance5,field.linear_acceleration_covariance6,field.linear_acceleration_covariance7,field.linear_acceleration_covariance8
24032000000,0,24032000000,imu_link,1.63333033038e-06,-0.366274423295,-0.000295900515397,0.93050682925,0.0,0.0,0.0,0.0,0.0,0.0,0.0,0.0,0.0,0.00467324899795,-0.0138327087829,-0.00166010898971,0.0,0.0,0.0,0.0,0.0,0.0,0.0,0.0,0.0,5.93659967921,-0.000681254619868,7.57723575259,0.0,0.0,0.0,0.0,0.0,0.0,0.0,0.0,0.0
24036000000,1,24036000000,imu_link,1.16652337307e-05,-0.366299567627,-0.000295560286699,0.930496931357,0.0,0.0,0.0,0.0,0.0,0.0,0.0,0.0,0.0,0.00473341404294,-0.0135096741078,-0.00168036611451,0.0,0.0,0.0,0.0,0.0,0.0,0.0,0.0,0.0,5.93837469743,-0.000630093462178,7.57221099753,0.0,0.0,0.0,0.0,0.0,0.0,0.0,0.0,0.0
24040000000,2,24040000000,imu_link,2.14133656098e-05,-0.366323925148,-0.000295254424374,0.930487342327,0.0,0.0,0.0,0.0,0.0,0.0,0.0,0.0,0.0,0.00459497750752,-0.0130870860331,-0.00164434126996,0.0,0.0,0.0,0.0,0.0,0.0,0.0,0.0,0.0,5.94159571255,-0.000591236109277,7.56963596101,0.0,0.0,0.0,0.0,0.0,0.0,0.0,0.0,0.0
24044000000,3,24044000000,imu_link,3.02514058583e-05,-0.366347454778,-0.000295047856631,0.930478078414,0.0,0.0,0.0,0.0,0.0,0.0,0.0,0.0,0.0,0.00415325044529,-0.0126425009089,-0.00152380414389,0.0,0.0,0.0,0.0,0.0,0.0,0.0,0.0,0.0,5.94530565237,-0.000637187482426,7.56934070833,0.0,0.0,0.0,0.0,0.0,0.0,0.0,0.0,0.0
24048000000,4,24048000000,imu_link,3.75703606752e-05,-0.366370212394,-0.000294994561703,0.930469117723,0.0,0.0,0.0,0.0,0.0,0.0,0.0,0.0,0.0,0.00341831856843,-0.0122280139933,-0.00131682304494,0.0,0.0,0.0,0.0,0.0,0.0,0.0,0.0,0.0,5.94917396867,-0.000738080553512,7.56992023028,0.0,0.0,0.0,0.0,0.0,0.0,0.0,0.0,0.0
24052000000,5,24052000000,imu_link,4.31384869728e-05,-0.366392323661,-0.000295130815291,0.930460410872,0.0,0.0,0.0,0.0,0.0,0.0,0.0,0.0,0.0,0.00256895006605,-0.0118810721474,-0.00108425655804,0.0,0.0,0.0,0.0,0.0,0.0,0.0,0.0,0.0,5.9507051191,-0.00095611392571,7.5651656042,0.0,0.0,0.0,0.0,0.0,0.0,0.0,0.0,0.0
24056000000,6,24056000000,imu_link,4.70989333813e-05,-0.366413752765,-0.000295449544116,0.930451972041,0.0,0.0,0.0,0.0,0.0,0.0,0.0,0.0,0.0,0.00178747361288,-0.0115148504366,-0.000874603928373,0.0,0.0,0.0,0.0,0.0,0.0,0.0,0.0,0.0,5.95249007297,-0.00123582281512,7.55965636428,0.0,0.0,0.0,0.0,0.0,0.0,0.0,0.0,0.0
24060000000,7,24060000000,imu_link,5.02223056765e-05,-0.366434502352,-0.000295819711074,0.930443800266,0.0,0.0,0.0,0.0,0.0,0.0,0.0,0.0,0.0,0.00138851449306,-0.0111499196573,-0.000745153101748,0.0,0.0,0.0,0.0,0.0,0.0,0.0,0.0,0.0,5.95622898729,-0.00160123538216,7.55870678558,0.0,0.0,0.0,0.0,0.0,0.0,0.0,0.0,0.0
24064000000,8,24064000000,imu_link,5.34114119648e-05,-0.366454741974,-0.000296092116098,0.930435828825,0.0,0.0,0.0,0.0,0.0,0.0,0.0,0.0,0.0,0.00143692659941,-0.0108759561465,-0.000711698885491,0.0,0.0,0.0,0.0,0.0,0.0,0.0,0.0,0.0,5.95980575043,-0.00187604021757,7.55878773484,0.0,0.0,0.0,0.0,0.0,0.0,0.0,0.0,0.0
24068000000,9,24068000000,imu_link,5.75487576728e-05,-0.366474896861,-0.000296146585621,0.930427890251,0.0,0.0,0.0,0.0,0.0,0.0,0.0,0.0,0.0,0.00191798289119,-0.0108303673705,-0.000784052199223,0.0,0.0,0.0,0.0,0.0,0.0,0.0,0.0,0.0,5.96404332528,-0.0020114329845,7.5622786888,0.0,0.0,0.0,0.0,0.0,0.0,0.0,0.0,0.0
24072000000,10,24072000000,imu_link,6.31058514666e-05,-0.36649530602,-0.000295903002916,0.930419850994,0.0,0.0,0.0,0.0,0.0,0.0,0.0,0.0,0.0,0.00263312437728,-0.0109668883323,-0.000905552754785,0.0,0.0,0.0,0.0,0.0,0.0,0.0,0.0,0.0,5.96695677209,-0.00191136536808,7.56209578168,0.0,0.0,0.0,0.0,0.0,0.0,0.0,0.0,0.0
24076000000,11,24076000000,imu_link,6.99793601878e-05,-0.366516164128,-0.000295402902321,0.930411634317,0.0,0.0,0.0,0.0,0.0,0.0,0.0,0.0,0.0,0.00329261198999,-0.0112080532572,-0.00102746011626,0.0,0.0,0.0,0.0,0.0,0.0,0.0,0.0,0.0,5.96847822389,-0.0016310027136,7.55755158901,0.0,0.0,0.0,0.0,0.0,0.0,0.0,0.0,0.0
24080000000,12,24080000000,imu_link,7.80024859583e-05,-0.366537572632,-0.000294685906458,0.93040320019,0.0,0.0,0.0,0.0,0.0,0.0,0.0,0.0,0.0,0.00386725724252,-0.011503772246,-0.00113724865086,0.0,0.0,0.0,0.0,0.0,0.0,0.0,0.0,0.0,5.97112299371,-0.00137703586762,7.55493421087,0.0,0.0,0.0,0.0,0.0,0.0,0.0,0.0,0.0
24084000000,13,24084000000,imu_link,8.70439290885e-05,-0.366559560095,-0.00029378449811,0.930394537289,0.0,0.0,0.0,0.0,0.0,0.0,0.0,0.0,0.0,0.00437487138836,-0.0118148750192,-0.00123809658261,0.0,0.0,0.0,0.0,0.0,0.0,0.0,0.0,0.0,5.97390241183,-0.00121332114455,7.55236230904,0.0,0.0,0.0,0.0,0.0,0.0,0.0,0.0,0.0
24088000000,14,24088000000,imu_link,9.72539935286e-05,-0.366582296822,-0.000292627940486,0.930385578439,0.0,0.0,0.0,0.0,0.0,0.0,0.0,0.0,0.0,0.00496539747455,-0.0122174891125,-0.00133359735624,0.0,0.0,0.0,0.0,0.0,0.0,0.0,0.0,0.0,5.97712229921,-0.0011876719543,7.55202204935,0.0,0.0,0.0,0.0,0.0,0.0,0.0,0.0,0.0
24092000000,15,24092000000,imu_link,0.000109024178089,-0.366606009775,-0.000291104548068,0.930376234095,0.0,0.0,0.0,0.0,0.0,0.0,0.0,0.0,0.0,0.00575855325718,-0.012742033938,-0.0014489135962,0.0,0.0,0.0,0.0,0.0,0.0,0.0,0.0,0.0,5.97994762061,-0.00114631936373,7.55118255392,0.0,0.0,0.0,0.0,0.0,0.0,0.0,0.0,0.0
24096000000,16,24096000000,imu_link,0.000122723669398,-0.366631066699,-0.000289121651521,0.930366359172,0.0,0.0,0.0,0.0,0.0,0.0,0.0,0.0,0.0,0.00674049685965,-0.01346418439,-0.0015888094244,0.0,0.0,0.0,0.0,0.0,0.0,0.0,0.0,0.0,5.98295565905,-0.00103735390218,7.55184634892,0.0,0.0,0.0,0.0,0.0,0.0,0.0,0.0,0.0
24100000000,17,24100000000,imu_link,0.000138244868916,-0.366657616018,-0.000286712508202,0.930355894967,0.0,0.0,0.0,0.0,0.0,0.0,0.0,0.0,0.0,0.00766631443367,-0.0142661564486,-0.00172446761835,0.0,0.0,0.0,0.0,0.0,0.0,0.0,0.0,0.0,5.98499552296,-0.000775979781597,7.54864230855,0.0,0.0,0.0,0.0,0.0,0.0,0.0,0.0,0.0
24104000000,18,24104000000,imu_link,0.000154993050571,-0.366685667425,-0.00028397289076,0.930344837488,0.0,0.0,0.0,0.0,0.0,0.0,0.0,0.0,0.0,0.00829792123604,-0.0150734600689,-0.00179566073903,0.0,0.0,0.0,0.0,0.0,0.0,0.0,0.0,0.0,5.98833721947,-0.00045317205354,7.54734197931,0.0,0.0,0.0,0.0,0.0,0.0,0.0,0.0,0.0
24108000000,19,24108000000,imu_link,0.000172092294531,-0.366714982338,-0.000281006403335,0.930333280684,0.0,0.0,0.0,0.0,0.0,0.0,0.0,0.0,0.0,0.00850303882021,-0.0157526885448,-0.00175446481842,0.0,0.0,0.0,0.0,0.0,0.0,0.0,0.0,0.0,5.99315778554,-0.000204430173844,7.54748549963,0.0,0.0,0.0,0.0,0.0,0.0,0.0,0.0,0.0
24112000000,20,24112000000,imu_link,0.000188752567012,-0.366745032378,-0.000277909520688,0.93032143282,0.0,0.0,0.0,0.0,0.0,0.0,0.0,0.0,0.0,0.00832288120519,-0.0161480633775,-0.00161329824138,0.0,0.0,0.0,0.0,0.0,0.0,0.0,0.0,0.0,5.99562906195,-0.000101034996664,7.54013038836,0.0,0.0,0.0,0.0,0.0,0.0,0.0,0.0,0.0
24116000000,21,24116000000,imu_link,0.000204514796047,-0.366775278154,-0.000274761163673,0.93030950657,0.0,0.0,0.0,0.0,0.0,0.0,0.0,0.0,0.0,0.00791462025266,-0.0162536059187,-0.0014246703207,0.0,0.0,0.0,0.0,0.0,0.0,0.0,0.0,0.0,5.99873135837,-0.000155352467691,7.53401305576,0.0,0.0,0.0,0.0,0.0,0.0,0.0,0.0,0.0
24120000000,22,24120000000,imu_link,0.000219271811586,-0.366805210294,-0.000271600497854,0.93029770281,0.0,0.0,0.0,0.0,0.0,0.0,0.0,0.0,0.0,0.0074492420859,-0.0160853902997,-0.0012346163355,0.0,0.0,0.0,0.0,0.0,0.0,0.0,0.0,0.0,6.00140059901,-0.000321199980687,7.52751373518,0.0,0.0,0.0,0.0,0.0,0.0,0.0,0.0,0.0
24124000000,23,24124000000,imu_link,0.000233120976259,-0.366834499921,-0.00026842294801,0.930286151284,0.0,0.0,0.0,0.0,0.0,0.0,0.0,0.0,0.0,0.00702993796492,-0.0157403873923,-0.00106029672565,0.0,0.0,0.0,0.0,0.0,0.0,0.0,0.0,0.0,6.00392018188,-0.000487570770985,7.52197173785,0.0,0.0,0.0,0.0,0.0,0.0,0.0,0.0,0.0
24132000000,24,24132000000,imu_link,0.000257905131966,-0.366890016598,-0.000262039069826,0.930264253071,0.0,0.0,0.0,0.0,0.0,0.0,0.0,0.0,0.0,0.00609513980592,-0.0146054967489,-0.000683022007229,0.0,0.0,0.0,0.0,0.0,0.0,0.0,0.0,0.0,6.00794291857,-0.000653359911795,7.51503201814,0.0,0.0,0.0,0.0,0.0,0.0,0.0,0.0,0.0
24136000000,25,24136000000,imu_link,0.000268444190393,-0.366915849089,-0.000258848691937,0.930254062406,0.0,0.0,0.0,0.0,0.0,0.0,0.0,0.0,0.0,0.00549201223198,-0.0138831556054,-0.000447394419434,0.0,0.0,0.0,0.0,0.0,0.0,0.0,0.0,0.0,6.01020416811,-0.00114954423027,7.50746723505,0.0,0.0,0.0,0.0,0.0,0.0,0.0,0.0,0.0
24140000000,26,24140000000,imu_link,0.000277597963272,-0.366940242166,-0.00025567361016,0.930244438978,0.0,0.0,0.0,0.0,0.0,0.0,0.0,0.0,0.0,0.00484460985328,-0.0131097626058,-0.000200487229139,0.0,0.0,0.0,0.0,0.0,0.0,0.0,0.0,0.0,6.01107892628,-0.00147271871373,7.50103588931,0.0,0.0,0.0,0.0,0.0,0.0,0.0,0.0,0.0
24144000000,27,24144000000,imu_link,0.000285300312216,-0.36696317282,-0.000252545522406,0.930235392048,0.0,0.0,0.0,0.0,0.0,0.0,0.0,0.0,0.0,0.00416063136292,-0.0123239797698,4.38184462386e-05,0.0,0.0,0.0,0.0,0.0,0.0,0.0,0.0,0.0,6.01325068953,-0.00176639656314,7.4982143692,0.0,0.0,0.0,0.0,0.0,0.0,0.0,0.0,0.0
24148000000,28,24148000000,imu_link,0.00029164052182,-0.366984859802,-0.000249494628604,0.930226835441,0.0,0.0,0.0,0.0,0.0,0.0,0.0,0.0,0.0,0.0035126855953,-0.0116557428497,0.000257726164842,0.0,0.0,0.0,0.0,0.0,0.0,0.0,0.0,0.0,6.01628738828,-0.00205402415819,7.49910961249,0.0,0.0,0.0,0.0,0.0,0.0,0.0,0.0,0.0
24152000000,29,24152000000,imu_link,0.00029687975214,-0.367005692473,-0.000246499123003,0.930218615592,0.0,0.0,0.0,0.0,0.0,0.0,0.0,0.0,0.0,0.00299028636291,-0.0111967443398,0.000433903166798,0.0,0.0,0.0,0.0,0.0,0.0,0.0,0.0,0.0,6.01841415923,-0.00234525084154,7.49861548842,0.0,0.0,0.0,0.0,0.0,0.0,0.0,0.0,0.0
24156000000,30,24156000000,imu_link,0.000301500566648,-0.367026106089,-0.000243567421915,0.930210560691,0.0,0.0,0.0,0.0,0.0,0.0,0.0,0.0,0.0,0.00269087096952,-0.0109716557123,0.000517666281843,0.0,0.0,0.0,0.0,0.0,0.0,0.0,0.0,0.0,6.02158244152,-0.00261778714786,7.50092989353,0.0,0.0,0.0,0.0,0.0,0.0,0.0,0.0,0.0
24160000000,31,24160000000,imu_link,0.000305774195317,-0.367046532568,-0.000240740930262,0.930202500252,0.0,0.0,0.0,0.0,0.0,0.0,0.0,0.0,0.0,0.0025100880994,-0.0109787120307,0.000532447215148,0.0,0.0,0.0,0.0,0.0,0.0,0.0,0.0,0.0,6.02515605723,-0.0027650937269,7.50401120595,0.0,0.0,0.0,0.0,0.0,0.0,0.0,0.0,0.0
24164000000,32,24164000000,imu_link,0.000309815534334,-0.367067183977,-0.000238063317567,0.930194350546,0.0,0.0,0.0,0.0,0.0,0.0,0.0,0.0,0.0,0.00237476786189,-0.0110997610481,0.000505857625504,0.0,0.0,0.0,0.0,0.0,0.0,0.0,0.0,0.0,6.02822708409,-0.00279981299781,7.5043453199,0.0,0.0,0.0,0.0,0.0,0.0,0.0,0.0,0.0
24168000000,33,24168000000,imu_link,0.000313638061724,-0.367088083087,-0.000235531848197,0.930186102568,0.0,0.0,0.0,0.0,0.0,0.0,0.0,0.0,0.0,0.00224622169004,-0.0112330509799,0.000478072735075,0.0,0.0,0.0,0.0,0.0,0.0,0.0,0.0,0.0,6.03038875957,-0.00277827110686,7.50113584327,0.0,0.0,0.0,0.0,0.0,0.0,0.0,0.0,0.0
24172000000,34,24172000000,imu_link,0.000317304589408,-0.367109272286,-0.000233108044999,0.930177739564,0.0,0.0,0.0,0.0,0.0,0.0,0.0,0.0,0.0,0.00215395802764,-0.0113891167751,0.000456662708357,0.0,0.0,0.0,0.0,0.0,0.0,0.0,0.0,0.0,6.0325810899,-0.00275714902573,7.49780006309,0.0,0.0,0.0,0.0,0.0,0.0,0.0,0.0,0.0
24176000000,35,24176000000,imu_link,0.000321022838252,-0.367130750674,-0.000230707263617,0.930169261817,0.0,0.0,0.0,0.0,0.0,0.0,0.0,0.0,0.0,0.0021738391125,-0.0115446748007,0.000436494366082,0.0,0.0,0.0,0.0,0.0,0.0,0.0,0.0,0.0,6.03553096593,-0.002817323943,7.49612703565,0.0,0.0,0.0,0.0,0.0,0.0,0.0,0.0,0.0
24180000000,36,24180000000,imu_link,0.000324970370612,-0.367152504612,-0.000228259346392,0.930160674641,0.0,0.0,0.0,0.0,0.0,0.0,0.0,0.0,0.0,0.00228917721093,-0.0116928822102,0.000416359613503,0.0,0.0,0.0,0.0,0.0,0.0,0.0,0.0,0.0,6.03829427575,-0.00290332043709,7.49410399159,0.0,0.0,0.0,0.0,0.0,0.0,0.0,0.0,0.0
24184000000,37,24184000000,imu_link,0.000329123385103,-0.367174466308,-0.000225764611279,0.930152004782,0.0,0.0,0.0,0.0,0.0,0.0,0.0,0.0,0.0,0.0023933747085,-0.0118046541934,0.000400436373869,0.0,0.0,0.0,0.0,0.0,0.0,0.0,0.0,0.0,6.04071772826,-0.00288095293085,7.49085980857,0.0,0.0,0.0,0.0,0.0,0.0,0.0,0.0,0.0
24188000000,38,24188000000,imu_link,0.000333047790376,-0.367196734432,-0.000223319036993,0.930143213398,0.0,0.0,0.0,0.0,0.0,0.0,0.0,0.0,0.0,0.00227808333587,-0.0119695102804,0.000419579295497,0.0,0.0,0.0,0.0,0.0,0.0,0.0,0.0,0.0,6.04423084053,-0.00277683980732,7.4916138735,0.0,0.0,0.0,0.0,0.0,0.0,0.0,0.0,0.0
24192000000,39,24192000000,imu_link,0.000336209464885,-0.367219442209,-0.000221005092858,0.930134248044,0.0,0.0,0.0,0.0,0.0,0.0,0.0,0.0,0.0,0.001899269894,-0.0122060280855,0.000498451759368,0.0,0.0,0.0,0.0,0.0,0.0,0.0,0.0,0.0,6.04691081194,-0.00269855258477,7.49083959574,0.0,0.0,0.0,0.0,0.0,0.0,0.0,0.0,0.0
24196000000,40,24196000000,imu_link,0.000338410313193,-0.367242537003,-0.000218846114615,0.930125129539,0.0,0.0,0.0,0.0,0.0,0.0,0.0,0.0,0.0,0.00142403648422,-0.0124142697539,0.000602847384555,0.0,0.0,0.0,0.0,0.0,0.0,0.0,0.0,0.0,6.04835749234,-0.00275245312038,7.48566536591,0.0,0.0,0.0,0.0,0.0,0.0,0.0,0.0,0.0
24200000000,41,24200000000,imu_link,0.000339900865863,-0.367265974638,-0.000216806921109,0.93011587522,0.0,0.0,0.0,0.0,0.0,0.0,0.0,0.0,0.0,0.00107177004262,-0.0125987480406,0.000677608523143,0.0,0.0,0.0,0.0,0.0,0.0,0.0,0.0,0.0,6.0503580883,-0.00294180989838,7.48158111884,0.0,0.0,0.0,0.0,0.0,0.0,0.0,0.0,0.0
24204000000,42,24204000000,imu_link,0.000341434669362,-0.367289778076,-0.000214786357974,0.930106475738,0.0,0.0,0.0,0.0,0.0,0.0,0.0,0.0,0.0,0.00108852735766,-0.012795523324,0.000661048474303,0.0,0.0,0.0,0.0,0.0,0.0,0.0,0.0,0.0,6.05333479358,-0.00318784557301,7.48041133971,0.0,0.0,0.0,0.0,0.0,0.0,0.0,0.0,0.0
24208000000,43,24208000000,imu_link,0.000343486881256,-0.36731404189,-0.000212678655785,0.930096893563,0.0,0.0,0.0,0.0,0.0,0.0,0.0,0.0,0.0,0.00134569813267,-0.0130431024196,0.000606428695445,0.0,0.0,0.0,0.0,0.0,0.0,0.0,0.0,0.0,6.05641906191,-0.00322652956001,7.48000883315,0.0,0.0,0.0,0.0,0.0,0.0,0.0,0.0,0.0
24212000000,44,24212000000,imu_link,0.000346071861804,-0.367338841963,-0.000210462447791,0.930087098677,0.0,0.0,0.0,0.0,0.0,0.0,0.0,0.0,0.0,0.00161348277807,-0.0133314797693,0.000559111927284,0.0,0.0,0.0,0.0,0.0,0.0,0.0,0.0,0.0,6.0576895784,-0.00308662556129,7.47546682877,0.0,0.0,0.0,0.0,0.0,0.0,0.0,0.0,0.0
24216000000,45,24216000000,imu_link,0.000348674377308,-0.367364245082,-0.000208195700444,0.930077064826,0.0,0.0,0.0,0.0,0.0,0.0,0.0,0.0,0.0,0.00163102463836,-0.0136558019183,0.000579473494038,0.0,0.0,0.0,0.0,0.0,0.0,0.0,0.0,0.0,6.05987074587,-0.00285052343885,7.47307812902,0.0,0.0,0.0,0.0,0.0,0.0,0.0,0.0,0.0
24220000000,46,24220000000,imu_link,0.000350675692281,-0.367390241833,-0.000206003367843,0.930066795878,0.0,0.0,0.0,0.0,0.0,0.0,0.0,0.0,0.0,0.00133787734929,-0.0139751224679,0.000655376578708,0.0,0.0,0.0,0.0,0.0,0.0,0.0,0.0,0.0,6.06232027862,-0.00268639886421,7.47079795724,0.0,0.0,0.0,0.0,0.0,0.0,0.0,0.0,0.0
24224000000,47,24224000000,imu_link,0.000351812167801,-0.367416730701,-0.000203960445217,0.930056331965,0.0,0.0,0.0,0.0,0.0,0.0,0.0,0.0,0.0,0.000908337110068,-0.0142399029591,0.000744828942968,0.0,0.0,0.0,0.0,0.0,0.0,0.0,0.0,0.0,6.06474826805,-0.00271358783471,7.46798431898,0.0,0.0,0.0,0.0,0.0,0.0,0.0,0.0,0.0
24228000000,48,24228000000,imu_link,0.000352285675831,-0.367443676628,-0.000202046832455,0.930045686823,0.0,0.0,0.0,0.0,0.0,0.0,0.0,0.0,0.0,0.000576361740266,-0.0144858315432,0.000806550805696,0.0,0.0,0.0,0.0,0.0,0.0,0.0,0.0,0.0,6.0673992603,-0.00290526868108,7.46634280576,0.0,0.0,0.0,0.0,0.0,0.0,0.0,0.0,0.0
24232000000,49,24232000000,imu_link,0.000352322214415,-0.367471083905,-0.000200244764104,0.930034858629,0.0,0.0,0.0,0.0,0.0,0.0,0.0,0.0,0.0,0.000352746672221,-0.0147340647209,0.000835023707762,0.0,0.0,0.0,0.0,0.0,0.0,0.0,0.0,0.0,6.06925023688,-0.00303612962431,7.46297732834,0.0,0.0,0.0,0.0,0.0,0.0,0.0,0.0,0.0
24236000000,50,24236000000,imu_link,0.000352123429924,-0.367499004336,-0.000198553796028,0.93002382679,0.0,0.0,0.0,0.0,0.0,0.0,0.0,0.0,0.0,0.000222991523845,-0.0150101497754,0.000826667364311,0.0,0.0,0.0,0.0,0.0,0.0,0.0,0.0,0.0,6.07039590447,-0.00310986342042,7.45823148791,0.0,0.0,0.0,0.0,0.0,0.0,0.0,0.0,0.0
24240000000,51,24240000000,imu_link,0.000351737778758,-0.367527316408,-0.000196996942477,0.930012639251,0.0,0.0,0.0,0.0,0.0,0.0,0.0,0.0,0.0,0.000111519110374,-0.0152209198584,0.000798692666763,0.0,0.0,0.0,0.0,0.0,0.0,0.0,0.0,0.0,6.07274262241,-0.00310713967099,7.45490094851,0.0,0.0,0.0,0.0,0.0,0.0,0.0,0.0,0.0
24244000000,52,24244000000,imu_link,0.000351238767714,-0.367555838123,-0.000195562007934,0.930001367875,0.0,0.0,0.0,0.0,0.0,0.0,0.0,0.0,0.0,3.6437161851e-05,-0.0153338438717,0.000762859594694,0.0,0.0,0.0,0.0,0.0,0.0,0.0,0.0,0.0,6.0745378265,-0.00311338465038,7.44950079743,0.0,0.0,0.0,0.0,0.0,0.0,0.0,0.0,0.0
24248000000,53,24248000000,imu_link,0.000350556076074,-0.367584430948,-0.000194243113732,0.929990067423,0.0,0.0,0.0,0.0,0.0,0.0,0.0,0.0,0.0,-7.0288033823e-05,-0.0153722917632,0.00074266684026,0.0,0.0,0.0,0.0,0.0,0.0,0.0,0.0,0.0,6.07646682289,-0.00309552169349,7.44481341822,0.0,0.0,0.0,0.0,0.0,0.0,0.0,0.0,0.0
24252000000,54,24252000000,imu_link,0.000349549558319,-0.367613020355,-0.000193037291613,0.929978767401,0.0,0.0,0.0,0.0,0.0,0.0,0.0,0.0,0.0,-0.000241647745758,-0.0153706748789,0.000749605044862,0.0,0.0,0.0,0.0,0.0,0.0,0.0,0.0,0.0,6.07760646459,-0.00304392231951,7.43897500412,0.0,0.0,0.0,0.0,0.0,0.0,0.0,0.0,0.0
24256000000,55,24256000000,imu_link,0.00034823540238,-0.367641623442,-0.000191913544753,0.929967461051,0.0,0.0,0.0,0.0,0.0,0.0,0.0,0.0,0.0,-0.000399779775392,-0.0153782429109,0.000767988601799,0.0,0.0,0.0,0.0,0.0,0.0,0.0,0.0,0.0,6.07964648227,-0.00301218966133,7.43620598143,0.0,0.0,0.0,0.0,0.0,0.0,0.0,0.0,0.0
24260000000,56,24260000000,imu_link,0.000347009249428,-0.367670123088,-0.00019081514771,0.92995619454,0.0,0.0,0.0,0.0,0.0,0.0,0.0,0.0,0.0,-0.000363536504969,-0.0153228174573,0.000740010380884,0.0,0.0,0.0,0.0,0.0,0.0,0.0,0.0,0.0,6.08233116262,-0.00301919786236,7.43407657001,0.0,0.0,0.0,0.0,0.0,0.0,0.0,0.0,0.0
24264000000,57,24264000000,imu_link,0.000346447359459,-0.367698288287,-0.000189665474833,0.929945059018,0.0,0.0,0.0,0.0,0.0,0.0,0.0,0.0,0.0,-4.52971068048e-05,-0.0151431539291,0.000641692162952,0.0,0.0,0.0,0.0,0.0,0.0,0.0,0.0,0.0,6.08561545988,-0.00300511918703,7.43247596662,0.0,0.0,0.0,0.0,0.0,0.0,0.0,0.0,0.0
24268000000,58,24268000000,imu_link,0.000347054217118,-0.367725906277,-0.000188444136012,0.929934138472,0.0,0.0,0.0,0.0,0.0,0.0,0.0,0.0,0.0,0.000511225024923,-0.0148490705866,0.000460067204702,0.0,0.0,0.0,0.0,0.0,0.0,0.0,0.0,0.0,6.08844425009,-0.00295126438159,7.43052934508,0.0,0.0,0.0,0.0,0.0,0.0,0.0,0.0,0.0
24272000000,59,24272000000,imu_link,0.000349231991514,-0.367752795747,-0.000187151777676,0.929923504505,0.0,0.0,0.0,0.0,0.0,0.0,0.0,0.0,0.0,0.00125458906172,-0.0144574809572,0.000204156133776,0.0,0.0,0.0,0.0,0.0,0.0,0.0,0.0,0.0,6.08964697047,-0.0028509633082,7.42533554549,0.0,0.0,0.0,0.0,0.0,0.0,0.0,0.0,0.0
24276000000,60,24276000000,imu_link,0.000352983006188,-0.367778832042,-0.000185831012371,0.929913206472,0.0,0.0,0.0,0.0,0.0,0.0,0.0,0.0,0.0,0.00199117049368,-0.0139988649438,-7.20350102369e-05,0.0,0.0,0.0,0.0,0.0,0.0,0.0,0.0,0.0,6.09156048399,-0.00260074652913,7.42182033676,0.0,0.0,0.0,0.0,0.0,0.0,0.0,0.0,0.0
24280000000,61,24280000000,imu_link,0.000357967571041,-0.367804132547,-0.00018455706298,0.929903198123,0.0,0.0,0.0,0.0,0.0,0.0,0.0,0.0,0.0,0.00255598935092,-0.0136033787275,-0.000320742145078,0.0,0.0,0.0,0.0,0.0,0.0,0.0,0.0,0.0,6.09294766266,-0.00229805380763,7.41927792682,0.0,0.0,0.0,0.0,0.0,0.0,0.0,0.0,0.0
24284000000,62,24284000000,imu_link,0.000363652288966,-0.367828829329,-0.000183379058622,0.929893427466,0.0,0.0,0.0,0.0,0.0,0.0,0.0,0.0,0.0,0.00286378389823,-0.0132789166738,-0.000494197660986,0.0,0.0,0.0,0.0,0.0,0.0,0.0,0.0,0.0,6.09566072961,-0.00200028174383,7.42003600629,0.0,0.0,0.0,0.0,0.0,0.0,0.0,0.0,0.0
24288000000,63,24288000000,imu_link,0.000369556583865,-0.367853048427,-0.000182291225366,0.929883844876,0.0,0.0,0.0,0.0,0.0,0.0,0.0,0.0,0.0,0.00294921373109,-0.0130222272845,-0.000576575401023,0.0,0.0,0.0,0.0,0.0,0.0,0.0,0.0,0.0,6.09989442434,-0.00179740227465,7.42374991186,0.0,0.0,0.0,0.0,0.0,0.0,0.0,0.0,0.0
24292000000,64,24292000000,imu_link,0.000375526958066,-0.36787686083,-0.000181252072026,0.929874422378,0.0,0.0,0.0,0.0,0.0,0.0,0.0,0.0,0.0,0.00297091659034,-0.0128036953422,-0.00061142302812,0.0,0.0,0.0,0.0,0.0,0.0,0.0,0.0,0.0,6.1018087476,-0.00175202708338,7.42135586589,0.0,0.0,0.0,0.0,0.0,0.0,0.0,0.0,0.0
24296000000,65,24296000000,imu_link,0.000381421426713,-0.367900318101,-0.000180238789188,0.92986513967,0.0,0.0,0.0,0.0,0.0,0.0,0.0,0.0,0.0,0.00293080826328,-0.0126128807388,-0.000609543250275,0.0,0.0,0.0,0.0,0.0,0.0,0.0,0.0,0.0,6.10381878009,-0.00172411524304,7.41883140833,0.0,0.0,0.0,0.0,0.0,0.0,0.0,0.0,0.0
24300000000,66,24300000000,imu_link,0.0003872056245,-0.367923571085,-0.000179201855191,0.929855937121,0.0,0.0,0.0,0.0,0.0,0.0,0.0,0.0,0.0,0.00288385668571,-0.0125031609063,-0.000578294450602,0.0,0.0,0.0,0.0,0.0,0.0,0.0,0.0,0.0,6.10626137596,-0.00168468484827,7.41817588928,0.0,0.0,0.0,0.0,0.0,0.0,0.0,0.0,0.0
24308000000,67,24308000000,imu_link,0.000399028198191,-0.367970173997,-0.000176894013761,0.929837491465,0.0,0.0,0.0,0.0,0.0,0.0,0.0,0.0,0.0,0.0030324858687,-0.0126034828506,-0.000546053873675,0.0,0.0,0.0,0.0,0.0,0.0,0.0,0.0,0.0,6.11018495911,-0.00155904020458,7.41770960521,0.0,0.0,0.0,0.0,0.0,0.0,0.0,0.0,0.0
24312000000,68,24312000000,imu_link,0.000405261998123,-0.367994208617,-0.000175624675755,0.929827977286,0.0,0.0,0.0,0.0,0.0,0.0,0.0,0.0,0.0,0.00313577371287,-0.0129238075534,-0.000552833444053,0.0,0.0,0.0,0.0,0.0,0.0,0.0,0.0,0.0,6.11329496287,-0.00148648322116,7.41800953939,0.0,0.0,0.0,0.0,0.0,0.0,0.0,0.0,0.0
24316000000,69,24316000000,imu_link,0.000411396501688,-0.368019012079,-0.000174331619393,0.929818158088,0.0,0.0,0.0,0.0,0.0,0.0,0.0,0.0,0.0,0.00309410287206,-0.0133373799107,-0.000523407198281,0.0,0.0,0.0,0.0,0.0,0.0,0.0,0.0,0.0,6.11593623789,-0.00140398470632,7.41829294009,0.0,0.0,0.0,0.0,0.0,0.0,0.0,0.0,0.0
24320000000,70,24320000000,imu_link,0.000416703198991,-0.368044726177,-0.000173107755774,0.929807977986,0.0,0.0,0.0,0.0,0.0,0.0,0.0,0.0,0.0,0.00269666971637,-0.0138272389278,-0.000403095453451,0.0,0.0,0.0,0.0,0.0,0.0,0.0,0.0,0.0,6.11957204689,-0.00135262092456,7.42056785323,0.0,0.0,0.0,0.0,0.0,0.0,0.0,0.0,0.0
24324000000,71,24324000000,imu_link,0.000420846547273,-0.368071297565,-0.000171994445392,0.929797458167,0.0,0.0,0.0,0.0,0.0,0.0,0.0,0.0,0.0,0.00213562483006,-0.0142884357277,-0.000240260644535,0.0,0.0,0.0,0.0,0.0,0.0,0.0,0.0,0.0,6.12205192632,-0.00145015978662,7.41868553634,0.0,0.0,0.0,0.0,0.0,0.0,0.0,0.0,0.0
24328000000,72,24328000000,imu_link,0.000423804601453,-0.3680986552,-0.000171017201487,0.929786626696,0.0,0.0,0.0,0.0,0.0,0.0,0.0,0.0,0.0,0.00155967521977,-0.014711446243,-8.52427638988e-05,0.0,0.0,0.0,0.0,0.0,0.0,0.0,0.0,0.0,6.12418085915,-0.00163075900259,7.41575129897,0.0,0.0,0.0,0.0,0.0,0.0,0.0,0.0,0.0
24332000000,73,24332000000,imu_link,0.00042583840959,-0.368126595488,-0.000170151679446,0.929775563996,0.0,0.0,0.0,0.0,0.0,0.0,0.0,0.0,0.0,0.00110953590043,-0.0150249784409,3.30290444071e-05,0.0,0.0,0.0,0.0,0.0,0.0,0.0,0.0,0.0,6.12569901479,-0.0018305430676,7.41069183023,0.0,0.0,0.0,0.0,0.0,0.0,0.0,0.0,0.0
24336000000,74,24336000000,imu_link,0.00042750283751,-0.368154864516,-0.000169318695433,0.929764370314,0.0,0.0,0.0,0.0,0.0,0.0,0.0,0.0,0.0,0.000931882349715,-0.0152019527881,8.59507056799e-05,0.0,0.0,0.0,0.0,0.0,0.0,0.0,0.0,0.0,6.12891870125,-0.0020433898135,7.40874083359,0.0,0.0,0.0,0.0,0.0,0.0,0.0,0.0,0.0
24340000000,75,24340000000,imu_link,0.00042910877572,-0.368183327368,-0.000168501672038,0.929753098904,0.0,0.0,0.0,0.0,0.0,0.0,0.0,0.0,0.0,0.000901786560128,-0.0153063742504,8.93323840718e-05,0.0,0.0,0.0,0.0,0.0,0.0,0.0,0.0,0.0,6.13073627624,-0.00213666973726,7.4048159031,0.0,0.0,0.0,0.0,0.0,0.0,0.0,0.0,0.0
24344000000,76,24344000000,imu_link,0.000430690044843,-0.368211976674,-0.000167760664437,0.929741752637,0.0,0.0,0.0,0.0,0.0,0.0,0.0,0.0,0.0,0.000876356375272,-0.0154068518691,5.85694949935e-05,0.0,0.0,0.0,0.0,0.0,0.0,0.0,0.0,0.0,6.13314332442,-0.00208824249171,7.40335005441,0.0,0.0,0.0,0.0,0.0,0.0,0.0,0.0,0.0
24348000000,77,24348000000,imu_link,0.000432125101372,-0.368240782377,-0.000167140720133,0.929730343447,0.0,0.0,0.0,0.0,0.0,0.0,0.0,0.0,0.0,0.000786124589653,-0.0154911785009,2.92377094198e-05,0.0,0.0,0.0,0.0,0.0,0.0,0.0,0.0,0.0,6.13519748875,-0.00198901441365,7.40104637207,0.0,0.0,0.0,0.0,0.0,0.0,0.0,0.0,0.0
24352000000,78,24352000000,imu_link,0.000433536127791,-0.368269575138,-0.000166576789022,0.92971893835,0.0,0.0,0.0,0.0,0.0,0.0,0.0,0.0,0.0,0.00076463869184,-0.0154844230266,7.62110574307e-06,0.0,0.0,0.0,0.0,0.0,0.0,0.0,0.0,0.0,6.13582415422,-0.00194231584011,7.39452209519,0.0,0.0,0.0,0.0,0.0,0.0,0.0,0.0,0.0
24356000000,79,24356000000,imu_link,0.000435261089121,-0.368298092436,-0.000165956874538,0.929707641205,0.0,0.0,0.0,0.0,0.0,0.0,0.0,0.0,0.0,0.000920836450242,-0.0153364553602,-2.42115517774e-05,0.0,0.0,0.0,0.0,0.0,0.0,0.0,0.0,0.0,6.13919806116,-0.00190875392954,7.39321423856,0.0,0.0,0.0,0.0,0.0,0.0,0.0,0.0,0.0
24360000000,80,24360000000,imu_link,0.000437519518563,-0.368326159256,-0.000165208741447,0.929696521286,0.0,0.0,0.0,0.0,0.0,0.0,0.0,0.0,0.0,0.0011923565252,-0.0150943407696,-6.2929618293e-05,0.0,0.0,0.0,0.0,0.0,0.0,0.0,0.0,0.0,6.14136265198,-0.00186317331448,7.39022515059,0.0,0.0,0.0,0.0,0.0,0.0,0.0,0.0,0.0
24364000000,81,24364000000,imu_link,0.000440408029812,-0.368353827913,-0.000164308269704,0.929685557866,0.0,0.0,0.0,0.0,0.0,0.0,0.0,0.0,0.0,0.00151323698714,-0.0148803486196,-0.000108227241233,0.0,0.0,0.0,0.0,0.0,0.0,0.0,0.0,0.0,6.14322186827,-0.00182064039861,7.38848683503,0.0,0.0,0.0,0.0,0.0,0.0,0.0,0.0,0.0
24368000000,82,24368000000,imu_link,0.000443866711274,-0.368381255142,-0.00016327665121,0.929674688901,0.0,0.0,0.0,0.0,0.0,0.0,0.0,0.0,0.0,0.00180239006391,-0.0147506505165,-0.000152322215096,0.0,0.0,0.0,0.0,0.0,0.0,0.0,0.0,0.0,6.14554646462,-0.00170986254519,7.38841042579,0.0,0.0,0.0,0.0,0.0,0.0,0.0,0.0,0.0
24372000000,83,24372000000,imu_link,0.00044783765603,-0.368408761288,-0.000162160614752,0.92966378748,0.0,0.0,0.0,0.0,0.0,0.0,0.0,0.0,0.0,0.00205607181609,-0.0147932515645,-0.000207420825776,0.0,0.0,0.0,0.0,0.0,0.0,0.0,0.0,0.0,6.14721040465,-0.00159146646082,7.38821346188,0.0,0.0,0.0,0.0,0.0,0.0,0.0,0.0,0.0
24376000000,84,24376000000,imu_link,0.000452364323318,-0.368436445039,-0.000160962523096,0.929652814455,0.0,0.0,0.0,0.0,0.0,0.0,0.0,0.0,0.0,0.00232953473457,-0.0148889341501,-0.000271611514065,0.0,0.0,0.0,0.0,0.0,0.0,0.0,0.0,0.0,6.14854012514,-0.00148368005516,7.38552610943,0.0,0.0,0.0,0.0,0.0,0.0,0.0,0.0,0.0
24380000000,85,24380000000,imu_link,0.000457426416783,-0.36846425828,-0.000159703775215,0.929641788877,0.0,0.0,0.0,0.0,0.0,0.0,0.0,0.0,0.0,0.00258961125055,-0.0149587491884,-0.000342027099223,0.0,0.0,0.0,0.0,0.0,0.0,0.0,0.0,0.0,6.15009019585,-0.00135195899244,7.38220017866,0.0,0.0,0.0,0.0,0.0,0.0,0.0,0.0,0.0
24384000000,86,24384000000,imu_link,0.000462936038761,-0.368492037729,-0.000158384462268,0.929630775488,0.0,0.0,0.0,0.0,0.0,0.0,0.0,0.0,0.0,0.00280878439953,-0.0149407469971,-0.000396331076328,0.0,0.0,0.0,0.0,0.0,0.0,0.0,0.0,0.0,6.15207811954,-0.00125466730052,7.37857807891,0.0,0.0,0.0,0.0,0.0,0.0,0.0,0.0,0.0
24388000000,87,24388000000,imu_link,0.000468827433202,-0.368519652306,-0.00015700125555,0.929619826282,0.0,0.0,0.0,0.0,0.0,0.0,0.0,0.0,0.0,0.0029979823748,-0.0148522410034,-0.000437005405664,0.0,0.0,0.0,0.0,0.0,0.0,0.0,0.0,0.0,6.1541056038,-0.00119555191785,7.37541450613,0.0,0.0,0.0,0.0,0.0,0.0,0.0,0.0,0.0
24392000000,88,24392000000,imu_link,0.000475035354934,-0.368547129209,-0.000155529016141,0.929608930521,0.0,0.0,0.0,0.0,0.0,0.0,0.0,0.0,0.0,0.00316148920968,-0.0147783558352,-0.000453973468375,0.0,0.0,0.0,0.0,0.0,0.0,0.0,0.0,0.0,6.15547212152,-0.00110333612278,7.37226706867,0.0,0.0,0.0,0.0,0.0,0.0,0.0,0.0,0.0
24396000000,89,24396000000,imu_link,0.000481489695874,-0.368574884852,-0.000153974537432,0.929597923145,0.0,0.0,0.0,0.0,0.0,0.0,0.0,0.0,0.0,0.00329122867371,-0.0149284437771,-0.000461099294584,0.0,0.0,0.0,0.0,0.0,0.0,0.0,0.0,0.0,6.15822845487,-0.000979645694631,7.37535750701,0.0,0.0,0.0,0.0,0.0,0.0,0.0,0.0,0.0
24400000000,90,24400000000,imu_link,0.000488218943708,-0.368603503168,-0.000152338781341,0.929586572562,0.0,0.0,0.0,0.0,0.0,0.0,0.0,0.0,0.0,0.00343413255424,-0.0153926217114,-0.000473802279033,0.0,0.0,0.0,0.0,0.0,0.0,0.0,0.0,0.0,6.16141887454,-0.000880611131884,7.38038168984,0.0,0.0,0.0,0.0,0.0,0.0,0.0,0.0,0.0
24404000000,91,24404000000,imu_link,0.000495513022537,-0.368633305149,-0.000150585692006,0.929574751231,0.0,0.0,0.0,0.0,0.0,0.0,0.0,0.0,0.0,0.00371849200417,-0.0160294690083,-0.000523112828868,0.0,0.0,0.0,0.0,0.0,0.0,0.0,0.0,0.0,6.16364698157,-0.000845715108955,7.38132734016,0.0,0.0,0.0,0.0,0.0,0.0,0.0,0.0,0.0
24408000000,92,24408000000,imu_link,0.000503627005972,-0.368664169947,-0.000148678443131,0.929562506802,0.0,0.0,0.0,0.0,0.0,0.0,0.0,0.0,0.0,0.00412817233283,-0.0166013376115,-0.000602352030016,0.0,0.0,0.0,0.0,0.0,0.0,0.0,0.0,0.0,6.16483104455,-0.000813863021963,7.37697062354,0.0,0.0,0.0,0.0,0.0,0.0,0.0,0.0,0.0
24412000000,93,24412000000,imu_link,0.00051281944645,-0.368695592969,-0.000146580537085,0.929550039135,0.0,0.0,0.0,0.0,0.0,0.0,0.0,0.0,0.0,0.00466466089511,-0.0169018106766,-0.000712408413989,0.0,0.0,0.0,0.0,0.0,0.0,0.0,0.0,0.0,6.16603258025,-0.000798972076587,7.36928107489,0.0,0.0,0.0,0.0,0.0,0.0,0.0,0.0,0.0
24416000000,94,24416000000,imu_link,0.000523055226661,-0.368726807107,-0.000144298581181,0.929537652444,0.0,0.0,0.0,0.0,0.0,0.0,0.0,0.0,0.0,0.00518347225414,-0.0167896756401,-0.000819251642897,0.0,0.0,0.0,0.0,0.0,0.0,0.0,0.0,0.0,6.16869911487,-0.000685158763076,7.36302952352,0.0,0.0,0.0,0.0,0.0,0.0,0.0,0.0,0.0
24420000000,95,24420000000,imu_link,0.000533952698356,-0.368757028488,-0.000141877060971,0.929525657906,0.0,0.0,0.0,0.0,0.0,0.0,0.0,0.0,0.0,0.00551656219385,-0.0162558898779,-0.000876609538486,0.0,0.0,0.0,0.0,0.0,0.0,0.0,0.0,0.0,6.17225802769,-0.000496835278057,7.35885045168,0.0,0.0,0.0,0.0,0.0,0.0,0.0,0.0,0.0
24424000000,96,24424000000,imu_link,0.000544953912059,-0.368785984237,-0.000139383067635,0.929514164189,0.0,0.0,0.0,0.0,0.0,0.0,0.0,0.0,0.0,0.00557791662001,-0.0155753039541,-0.000862356886961,0.0,0.0,0.0,0.0,0.0,0.0,0.0,0.0,0.0,6.17457335956,-0.000316981261534,7.35642001583,0.0,0.0,0.0,0.0,0.0,0.0,0.0,0.0,0.0
24428000000,97,24428000000,imu_link,0.000555637394042,-0.368813808874,-0.000136854770261,0.929503118296,0.0,0.0,0.0,0.0,0.0,0.0,0.0,0.0,0.0,0.0054363731264,-0.0149670489427,-0.000788103332362,0.0,0.0,0.0,0.0,0.0,0.0,0.0,0.0,0.0,6.1764397396,-0.000259370327755,7.35549335856,0.0,0.0,0.0,0.0,0.0,0.0,0.0,0.0,0.0
24432000000,98,24432000000,imu_link,0.000565753093493,-0.368840853343,-0.000134292807099,0.929492381246,0.0,0.0,0.0,0.0,0.0,0.0,0.0,0.0,0.0,0.00517856432637,-0.0145475418309,-0.00066794969685,0.0,0.0,0.0,0.0,0.0,0.0,0.0,0.0,0.0,6.17754684529,-0.000302411604472,7.35452984231,0.0,0.0,0.0,0.0,0.0,0.0,0.0,0.0,0.0
24436000000,99,24436000000,imu_link,0.000575347220949,-0.368867269074,-0.000131664028296,0.929481893017,0.0,0.0,0.0,0.0,0.0,0.0,0.0,0.0,0.0,0.00494837529328,-0.0142094657537,-0.000540870000797,0.0,0.0,0.0,0.0,0.0,0.0,0.0,0.0,0.0,6.17823126715,-0.000378178221888,7.3510691917,0.0,0.0,0.0,0.0,0.0,0.0,0.0,0.0,0.0
24440000000,100,24440000000,imu_link,0.000584526930387,-0.368893009612,-0.000128962189137,0.929471672057,0.0,0.0,0.0,0.0,0.0,0.0,0.0,0.0,0.0,0.004769131723,-0.0138463891993,-0.000430659880692,0.0,0.0,0.0,0.0,0.0,0.0,0.0,0.0,0.0,6.17946166008,-0.000431424078896,7.34726203741,0.0,0.0,0.0,0.0,0.0,0.0,0.0,0.0,0.0
24444000000,101,24444000000,imu_link,0.000593545373421,-0.368918058098,-0.000126180566736,0.929461724974,0.0,0.0,0.0,0.0,0.0,0.0,0.0,0.0,0.0,0.00470877651727,-0.0134742392633,-0.000364021326186,0.0,0.0,0.0,0.0,0.0,0.0,0.0,0.0,0.0,6.18079694858,-0.000493486490719,7.34417960418,0.0,0.0,0.0,0.0,0.0,0.0,0.0,0.0,0.0
24448000000,102,24448000000,imu_link,0.000602549319359,-0.368942607331,-0.000123314982067,0.929451975211,0.0,0.0,0.0,0.0,0.0,0.0,0.0,0.0,0.0,0.00471743681063,-0.0132057998326,-0.000322463063937,0.0,0.0,0.0,0.0,0.0,0.0,0.0,0.0,0.0,6.18357737022,-0.000506118028032,7.34583264837,0.0,0.0,0.0,0.0,0.0,0.0,0.0,0.0,0.0
24452000000,103,24452000000,imu_link,0.000611624071311,-0.368966690379,-0.000120342288957,0.929442409633,0.0,0.0,0.0,0.0,0.0,0.0,0.0,0.0,0.0,0.0047700164047,-0.0129551375131,-0.00028587775926,0.0,0.0,0.0,0.0,0.0,0.0,0.0,0.0,0.0,6.18488882054,-0.000596373708099,7.34328006792,0.0,0.0,0.0,0.0,0.0,0.0,0.0,0.0,0.0
24456000000,104,24456000000,imu_link,0.000620771583648,-0.368990211484,-0.000117269123412,0.929433066293,0.0,0.0,0.0,0.0,0.0,0.0,0.0,0.0,0.0,0.00482226341353,-0.0126529569588,-0.000252767643826,0.0,0.0,0.0,0.0,0.0,0.0,0.0,0.0,0.0,6.18621337286,-0.000732494613284,7.33986101379,0.0,0.0,0.0,0.0,0.0,0.0,0.0,0.0,0.0
24460000000,105,24460000000,imu_link,0.00062977973383,-0.369013120072,-0.000114138800406,0.929423965456,0.0,0.0,0.0,0.0,0.0,0.0,0.0,0.0,0.0,0.00476793360398,-0.0123235595084,-0.000200669889002,0.0,0.0,0.0,0.0,0.0,0.0,0.0,0.0,0.0,6.18936951683,-0.000768741901183,7.34079036989,0.0,0.0,0.0,0.0,0.0,0.0,0.0,0.0,0.0
24464000000,106,24464000000,imu_link,0.000638349608042,-0.369035587302,-0.000111018300433,0.929415039414,0.0,0.0,0.0,0.0,0.0,0.0,0.0,0.0,0.0,0.00456236886531,-0.0120862327465,-0.000124498982135,0.0,0.0,0.0,0.0,0.0,0.0,0.0,0.0,0.0,6.19143528321,-0.000784586060078,7.34115155705,0.0,0.0,0.0,0.0,0.0,0.0,0.0,0.0,0.0
24468000000,107,24468000000,imu_link,0.00064596411851,-0.36905786173,-0.000107999191452,0.929406189866,0.0,0.0,0.0,0.0,0.0,0.0,0.0,0.0,0.0,0.00409966058981,-0.0119826066601,4.608180089e-06,0.0,0.0,0.0,0.0,0.0,0.0,0.0,0.0,0.0,6.19416521136,-0.000775029943726,7.34361000357,0.0,0.0,0.0,0.0,0.0,0.0,0.0,0.0,0.0
24472000000,108,24472000000,imu_link,0.000652228673964,-0.369080154609,-0.000105144808049,0.92939733323,0.0,0.0,0.0,0.0,0.0,0.0,0.0,0.0,0.0,0.0034419389679,-0.0119926155676,0.000177171026937,0.0,0.0,0.0,0.0,0.0,0.0,0.0,0.0,0.0,6.19618031527,-0.000840835718141,7.34406844592,0.0,0.0,0.0,0.0,0.0,0.0,0.0,0.0,0.0
24476000000,109,24476000000,imu_link,0.000657067861334,-0.36910263384,-0.000102482713593,0.929388402904,0.0,0.0,0.0,0.0,0.0,0.0,0.0,0.0,0.0,0.00274412113079,-0.0120929489619,0.000350909043118,0.0,0.0,0.0,0.0,0.0,0.0,0.0,0.0,0.0,6.19796648697,-0.00103882060108,7.34308232036,0.0,0.0,0.0,0.0,0.0,0.0,0.0,0.0,0.0
24480000000,110,24480000000,imu_link,0.000660953734989,-0.369125302779,-9.99495123127e-05,0.929379397231,0.0,0.0,0.0,0.0,0.0,0.0,0.0,0.0,0.0,0.00227736884392,-0.0121951021996,0.000467006899044,0.0,0.0,0.0,0.0,0.0,0.0,0.0,0.0,0.0,6.20035258815,-0.0013181595056,7.34232500503,0.0,0.0,0.0,0.0,0.0,0.0,0.0,0.0,0.0
24484000000,111,24484000000,imu_link,0.000664495933707,-0.36914805071,-9.74788226526e-05,0.92937035976,0.0,0.0,0.0,0.0,0.0,0.0,0.0,0.0,0.0,0.00210614378777,-0.0122377154931,0.000501412465994,0.0,0.0,0.0,0.0,0.0,0.0,0.0,0.0,0.0,6.20276126547,-0.0015037501053,7.34067252472,0.0,0.0,0.0,0.0,0.0,0.0,0.0,0.0,0.0
24488000000,112,24488000000,imu_link,0.000668119066364,-0.369170797286,-9.50356701031e-05,0.929361322101,0.0,0.0,0.0,0.0,0.0,0.0,0.0,0.0,0.0,0.00213866995006,-0.0122371252461,0.000473677616462,0.0,0.0,0.0,0.0,0.0,0.0,0.0,0.0,0.0,6.20576977835,-0.00154161152811,7.3405031117,0.0,0.0,0.0,0.0,0.0,0.0,0.0,0.0,0.0
24492000000,113,24492000000,imu_link,0.000671782003186,-0.369193562331,-9.26423197646e-05,0.929352276405,0.0,0.0,0.0,0.0,0.0,0.0,0.0,0.0,0.0,0.00214797697691,-0.0122472057337,0.000443194012582,0.0,0.0,0.0,0.0,0.0,0.0,0.0,0.0,0.0,6.20704135476,-0.00143037482432,7.33727047436,0.0,0.0,0.0,0.0,0.0,0.0,0.0,0.0,0.0
24496000000,114,24496000000,imu_link,0.000675335527843,-0.369216210289,-9.03087658782e-05,0.929343276635,0.0,0.0,0.0,0.0,0.0,0.0,0.0,0.0,0.0,0.00208607667317,-0.0121843463065,0.000435567960563,0.0,0.0,0.0,0.0,0.0,0.0,0.0,0.0,0.0,6.2086178181,-0.00133907299513,7.33361205017,0.0,0.0,0.0,0.0,0.0,0.0,0.0,0.0,0.0
24500000000,115,24500000000,imu_link,0.000678760403672,-0.369238524378,-8.80134543448e-05,0.929334408947,0.0,0.0,0.0,0.0,0.0,0.0,0.0,0.0,0.0,0.00201917768729,-0.0120048414232,0.000441440667051,0.0,0.0,0.0,0.0,0.0,0.0,0.0,0.0,0.0,6.20985633682,-0.00133382573895,7.32902843231,0.0,0.0,0.0,0.0,0.0,0.0,0.0,0.0,0.0
24504000000,116,24504000000,imu_link,0.000682484688326,-0.369260591189,-8.56754538536e-05,0.929325638659,0.0,0.0,0.0,0.0,0.0,0.0,0.0,0.0,0.0,0.00216614041545,-0.0118719303648,0.000405920554655,0.0,0.0,0.0,0.0,0.0,0.0,0.0,0.0,0.0,6.21209239347,-0.00145301638698,7.32883979472,0.0,0.0,0.0,0.0,0.0,0.0,0.0,0.0,0.0
24508000000,117,24508000000,imu_link,0.0006869651213,-0.369282832144,-8.32486697865e-05,0.929316797993,0.0,0.0,0.0,0.0,0.0,0.0,0.0,0.0,0.0,0.00253391803915,-0.0119657792202,0.000307623503693,0.0,0.0,0.0,0.0,0.0,0.0,0.0,0.0,0.0,6.2149796045,-0.00149665581571,7.33299384366,0.0,0.0,0.0,0.0,0.0,0.0,0.0,0.0,0.0
24512000000,118,24512000000,imu_link,0.000692181861269,-0.369305661808,-8.07707344906e-05,0.929307722187,0.0,0.0,0.0,0.0,0.0,0.0,0.0,0.0,0.0,0.00288559917547,-0.0122826964012,0.000195631009324,0.0,0.0,0.0,0.0,0.0,0.0,0.0,0.0,0.0,6.21607750608,-0.00138174537392,7.33313645769,0.0,0.0,0.0,0.0,0.0,0.0,0.0,0.0,0.0
24516000000,119,24516000000,imu_link,0.000697734688143,-0.369329266756,-7.83043694758e-05,0.929298337323,0.0,0.0,0.0,0.0,0.0,0.0,0.0,0.0,0.0,0.00303976504094,-0.0126999944322,0.000128451272699,0.0,0.0,0.0,0.0,0.0,0.0,0.0,0.0,0.0,6.21741574817,-0.00119015920571,7.33199456438,0.0,0.0,0.0,0.0,0.0,0.0,0.0,0.0,0.0
24520000000,120,24520000000,imu_link,0.000703241203388,-0.369353538268,-7.58628339715e-05,0.929288686828,0.0,0.0,0.0,0.0,0.0,0.0,0.0,0.0,0.0,0.00301378001622,-0.0130587756163,0.000125688523308,0.0,0.0,0.0,0.0,0.0,0.0,0.0,0.0,0.0,6.21997580561,-0.00107516936167,7.33067966913,0.0,0.0,0.0,0.0,0.0,0.0,0.0,0.0,0.0
24524000000,121,24524000000,imu_link,0.000708242752285,-0.369378216413,-7.34581200949e-05,0.929278874308,0.0,0.0,0.0,0.0,0.0,0.0,0.0,0.0,0.0,0.00277242255483,-0.0132776698106,0.000201971950903,0.0,0.0,0.0,0.0,0.0,0.0,0.0,0.0,0.0,6.22248656047,-0.00100793924772,7.32817287734,0.0,0.0,0.0,0.0,0.0,0.0,0.0,0.0,0.0
24528000000,122,24528000000,imu_link,0.000712419182317,-0.369403124522,-7.10829291584e-05,0.929268970212,0.0,0.0,0.0,0.0,0.0,0.0,0.0,0.0,0.0,0.00238362809996,-0.013401473938,0.000340722967528,0.0,0.0,0.0,0.0,0.0,0.0,0.0,0.0,0.0,6.22511873246,-0.000987563107403,7.32677911803,0.0,0.0,0.0,0.0,0.0,0.0,0.0,0.0,0.0
24532000000,123,24532000000,imu_link,0.000715531630153,-0.369428201046,-6.87686043276e-05,0.92925899918,0.0,0.0,0.0,0.0,0.0,0.0,0.0,0.0,0.0,0.00187805304357,-0.0134921479384,0.000509019261897,0.0,0.0,0.0,0.0,0.0,0.0,0.0,0.0,0.0,6.226079057,-0.000991135066451,7.32277402355,0.0,0.0,0.0,0.0,0.0,0.0,0.0,0.0,0.0
24536000000,124,24536000000,imu_link,0.00071744390368,-0.369453416476,-6.6535036861e-05,0.929248973043,0.0,0.0,0.0,0.0,0.0,0.0,0.0,0.0,0.0,0.00130552412233,-0.0135669367312,0.000693233927143,0.0,0.0,0.0,0.0,0.0,0.0,0.0,0.0,0.0,6.22721901136,-0.00103890022548,7.31960356895,0.0,0.0,0.0,0.0,0.0,0.0,0.0,0.0,0.0
24540000000,125,24540000000,imu_link,0.000717989438305,-0.369478737524,-6.44405725996e-05,0.929238905156,0.0,0.0,0.0,0.0,0.0,0.0,0.0,0.0,0.0,0.000644826173817,-0.0136238170869,0.000881112849138,0.0,0.0,0.0,0.0,0.0,0.0,0.0,0.0,0.0,6.22925062576,-0.00109908081033,7.31803427939,0.0,0.0,0.0,0.0,0.0,0.0,0.0,0.0,0.0
24544000000,126,24544000000,imu_link,0.000717249347189,-0.369503978512,-6.25055310317e-05,0.929228869284,0.0,0.0,0.0,0.0,0.0,0.0,0.0,0.0,0.0,1.80337257195e-05,-0.0135808037311,0.00104451994251,0.0,0.0,0.0,0.0,0.0,0.0,0.0,0.0,0.0,6.23055484728,-0.00129015715217,7.31408884676,0.0,0.0,0.0,0.0,0.0,0.0,0.0,0.0,0.0
24548000000,127,24548000000,imu_link,0.000715509286888,-0.369528722737,-6.0715611211e-05,0.929219030925,0.0,0.0,0.0,0.0,0.0,0.0,0.0,0.0,0.0,-0.000473464281841,-0.0133135930493,0.00116166860172,0.0,0.0,0.0,0.0,0.0,0.0,0.0,0.0,0.0,6.23331279541,-0.00154327240128,7.31134260521,0.0,0.0,0.0,0.0,0.0,0.0,0.0,0.0,0.0
24552000000,128,24552000000,imu_link,0.000713040464206,-0.369552584263,-5.90329927371e-05,0.929209543404,0.0,0.0,0.0,0.0,0.0,0.0,0.0,0.0,0.0,-0.000832031994159,-0.0128387205394,0.0012461595516,0.0,0.0,0.0,0.0,0.0,0.0,0.0,0.0,0.0,6.23426714777,-0.00170124351131,7.30474001833,0.0,0.0,0.0,0.0,0.0,0.0,0.0,0.0,0.0
24556000000,129,24556000000,imu_link,0.000709996995838,-0.369575240359,-5.74292051517e-05,0.92920053504,0.0,0.0,0.0,0.0,0.0,0.0,0.0,0.0,0.0,-0.00111378761095,-0.0121901806683,0.00131529962721,0.0,0.0,0.0,0.0,0.0,0.0,0.0,0.0,0.0,6.23559240293,-0.00178276620334,7.29987422893,0.0,0.0,0.0,0.0,0.0,0.0,0.0,0.0,0.0
24560000000,130,24560000000,imu_link,0.000706412083303,-0.369596715956,-5.59060156651e-05,0.92919199599,0.0,0.0,0.0,0.0,0.0,0.0,0.0,0.0,0.0,-0.00138043674957,-0.0115550410082,0.00137750030835,0.0,0.0,0.0,0.0,0.0,0.0,0.0,0.0,0.0,6.23697065562,-0.0018053053789,7.2980828169,0.0,0.0,0.0,0.0,0.0,0.0,0.0,0.0,0.0
24564000000,131,24564000000,imu_link,0.000702297789322,-0.369617747273,-5.44946136925e-05,0.92918363347,0.0,0.0,0.0,0.0,0.0,0.0,0.0,0.0,0.0,-0.00164711817058,-0.0113160620275,0.00142324111096,0.0,0.0,0.0,0.0,0.0,0.0,0.0,0.0,0.0,6.23985421055,-0.00181523158005,7.30483882799,0.0,0.0,0.0,0.0,0.0,0.0,0.0,0.0,0.0
24568000000,132,24568000000,imu_link,0.000697774045698,-0.369639406794,-5.31833642549e-05,0.929175020773,0.0,0.0,0.0,0.0,0.0,0.0,0.0,0.0,0.0,-0.00185574923476,-0.011654201853,0.00145259476655,0.0,0.0,0.0,0.0,0.0,0.0,0.0,0.0,0.0,6.24253824598,-0.00187041402863,7.31332303772,0.0,0.0,0.0,0.0,0.0,0.0,0.0,0.0,0.0
24572000000,133,24572000000,imu_link,0.00069312625945,-0.369662479996,-5.19534105833e-05,0.929165845132,0.0,0.0,0.0,0.0,0.0,0.0,0.0,0.0,0.0,-0.00192816895236,-0.0124150551908,0.00143822953549,0.0,0.0,0.0,0.0,0.0,0.0,0.0,0.0,0.0,6.24503247517,-0.00186504347904,7.31917445898,0.0,0.0,0.0,0.0,0.0,0.0,0.0,0.0,0.0
24576000000,134,24576000000,imu_link,0.000688770399377,-0.3696870446,-5.07862120181e-05,0.929156075195,0.0,0.0,0.0,0.0,0.0,0.0,0.0,0.0,0.0,-0.00180389943818,-0.0132177937249,0.00135561893496,0.0,0.0,0.0,0.0,0.0,0.0,0.0,0.0,0.0,6.24568054552,-0.00181703953038,7.3155346668,0.0,0.0,0.0,0.0,0.0,0.0,0.0,0.0,0.0
24580000000,135,24580000000,imu_link,0.000685066583977,-0.36971269849,-4.96716272818e-05,0.929145870567,0.0,0.0,0.0,0.0,0.0,0.0,0.0,0.0,0.0,-0.0015105217671,-0.0138042034513,0.0012110135672,0.0,0.0,0.0,0.0,0.0,0.0,0.0,0.0,0.0,6.24695429744,-0.00169518129926,7.3092632369,0.0,0.0,0.0,0.0,0.0,0.0,0.0,0.0,0.0
24584000000,136,24584000000,imu_link,0.000681991425553,-0.36973898234,-4.86261563934e-05,0.929135413953,0.0,0.0,0.0,0.0,0.0,0.0,0.0,0.0,0.0,-0.00123113892529,-0.0141434550479,0.00106290343456,0.0,0.0,0.0,0.0,0.0,0.0,0.0,0.0,0.0,6.24857389808,-0.00145624330983,7.30349754974,0.0,0.0,0.0,0.0,0.0,0.0,0.0,0.0,0.0
24588000000,137,24588000000,imu_link,0.000679224888047,-0.369765746541,-4.76664349317e-05,0.92912476507,0.0,0.0,0.0,0.0,0.0,0.0,0.0,0.0,0.0,-0.0011035388239,-0.014402177056,0.000966171550867,0.0,0.0,0.0,0.0,0.0,0.0,0.0,0.0,0.0,6.24996086951,-0.00119146390861,7.3001392862,0.0,0.0,0.0,0.0,0.0,0.0,0.0,0.0,0.0
24592000000,138,24592000000,imu_link,0.000676247965487,-0.369793044326,-4.68207131732e-05,0.929113903063,0.0,0.0,0.0,0.0,0.0,0.0,0.0,0.0,0.0,-0.00122226730196,-0.0146895072125,0.000952284302987,0.0,0.0,0.0,0.0,0.0,0.0,0.0,0.0,0.0,6.25137592059,-0.000990775447215,7.29874551282,0.0,0.0,0.0,0.0,0.0,0.0,0.0,0.0,0.0
24596000000,139,24596000000,imu_link,0.000672780375214,-0.369821039724,-4.60843275965e-05,0.929102762788,0.0,0.0,0.0,0.0,0.0,0.0,0.0,0.0,0.0,-0.00147031585883,-0.0150650867002,0.000992443538402,0.0,0.0,0.0,0.0,0.0,0.0,0.0,0.0,0.0,6.25353831964,-0.00093070947632,7.29961537929,0.0,0.0,0.0,0.0,0.0,0.0,0.0,0.0,0.0
24600000000,140,24600000000,imu_link,0.000668783717605,-0.369849712878,-4.54484068261e-05,0.9290913521,0.0,0.0,0.0,0.0,0.0,0.0,0.0,0.0,0.0,-0.00173456523898,-0.0154299876908,0.00104382434979,0.0,0.0,0.0,0.0,0.0,0.0,0.0,0.0,0.0,6.25385793471,-0.000945158829506,7.29513673275,0.0,0.0,0.0,0.0,0.0,0.0,0.0,0.0,0.0
24604000000,141,24604000000,imu_link,0.000664336050023,-0.369878898801,-4.49137470016e-05,0.929079736547,0.0,0.0,0.0,0.0,0.0,0.0,0.0,0.0,0.0,-0.00196272548001,-0.0157061215711,0.00108035378041,0.0,0.0,0.0,0.0,0.0,0.0,0.0,0.0,0.0,6.25504303587,-0.000971621786026,7.2913638172,0.0,0.0,0.0,0.0,0.0,0.0,0.0,0.0,0.0
24608000000,142,24608000000,imu_link,0.000659427673822,-0.369908107714,-4.45053241979e-05,0.929068111078,0.0,0.0,0.0,0.0,0.0,0.0,0.0,0.0,0.0,-0.00220008539665,-0.0157186866763,0.00110692226308,0.0,0.0,0.0,0.0,0.0,0.0,0.0,0.0,0.0,6.25803382019,-0.000957404653263,7.28857647439,0.0,0.0,0.0,0.0,0.0,0.0,0.0,0.0,0.0
24612000000,143,24612000000,imu_link,0.000654008424931,-0.369937108703,-4.42393284468e-05,0.929056567664,0.0,0.0,0.0,0.0,0.0,0.0,0.0,0.0,0.0,-0.00246377730161,-0.015606981076,0.00113518129248,0.0,0.0,0.0,0.0,0.0,0.0,0.0,0.0,0.0,6.25859147508,-0.000962479447809,7.282500245,0.0,0.0,0.0,0.0,0.0,0.0,0.0,0.0,0.0
24616000000,144,24616000000,imu_link,0.000648130163469,-0.369965853446,-4.41007997147e-05,0.929045125527,0.0,0.0,0.0,0.0,0.0,0.0,0.0,0.0,0.0,-0.00270061780008,-0.0154692665485,0.00116079059551,0.0,0.0,0.0,0.0,0.0,0.0,0.0,0.0,0.0,6.25883185408,-0.000977660332938,7.27725055655,0.0,0.0,0.0,0.0,0.0,0.0,0.0,0.0,0.0
24620000000,145,24620000000,imu_link,0.000642144019651,-0.36999475466,-4.40058301619e-05,0.92903362008,0.0,0.0,0.0,0.0,0.0,0.0,0.0,0.0,0.0,-0.0027587653259,-0.0155536783103,0.00116056207825,0.0,0.0,0.0,0.0,0.0,0.0,0.0,0.0,0.0,6.26048623173,-0.000986484200825,7.2789257619,0.0,0.0,0.0,0.0,0.0,0.0,0.0,0.0,0.0
24624000000,146,24624000000,imu_link,0.000636336390321,-0.370024381062,-4.3889962782e-05,0.929021824593,0.0,0.0,0.0,0.0,0.0,0.0,0.0,0.0,0.0,-0.00267186722199,-0.015944186824,0.00113747121428,0.0,0.0,0.0,0.0,0.0,0.0,0.0,0.0,0.0,6.26310444064,-0.000887571197703,7.28383064291,0.0,0.0,0.0,0.0,0.0,0.0,0.0,0.0,0.0
24628000000,147,24628000000,imu_link,0.000630844642486,-0.370055016004,-4.37369974459e-05,0.929009626028,0.0,0.0,0.0,0.0,0.0,0.0,0.0,0.0,0.0,-0.00251812286797,-0.0164872198461,0.00109657373217,0.0,0.0,0.0,0.0,0.0,0.0,0.0,0.0,0.0,6.26490905166,-0.000740918989688,7.28480362197,0.0,0.0,0.0,0.0,0.0,0.0,0.0,0.0,0.0
24632000000,148,24632000000,imu_link,0.000625538600389,-0.370086626421,-4.3597214334e-05,0.928997037533,0.0,0.0,0.0,0.0,0.0,0.0,0.0,0.0,0.0,-0.00243415640814,-0.0170124804007,0.00105638901491,0.0,0.0,0.0,0.0,0.0,0.0,0.0,0.0,0.0,6.26533848526,-0.000524487936574,7.2801751322,0.0,0.0,0.0,0.0,0.0,0.0,0.0,0.0,0.0
24636000000,149,24636000000,imu_link,0.000620041449947,-0.370118928962,-4.3515150672e-05,0.928984172136,0.0,0.0,0.0,0.0,0.0,0.0,0.0,0.0,0.0,-0.00253350485578,-0.0173852324927,0.00106515217663,0.0,0.0,0.0,0.0,0.0,0.0,0.0,0.0,0.0,6.26673638636,-0.000350554462292,7.27593796087,0.0,0.0,0.0,0.0,0.0,0.0,0.0,0.0,0.0
24640000000,150,24640000000,imu_link,0.000613964028714,-0.370151679981,-4.35366302421e-05,0.928971127086,0.0,0.0,0.0,0.0,0.0,0.0,0.0,0.0,0.0,-0.00282213224714,-0.0176268379012,0.00112457689508,0.0,0.0,0.0,0.0,0.0,0.0,0.0,0.0,0.0,6.26772823759,-0.00025032607494,7.27085300681,0.0,0.0,0.0,0.0,0.0,0.0,0.0,0.0,0.0
24644000000,151,24644000000,imu_link,0.000607197638034,-0.370184926177,-4.36873769126e-05,0.928957883778,0.0,0.0,0.0,0.0,0.0,0.0,0.0,0.0,0.0,-0.00316600118598,-0.0178935880514,0.00119219348714,0.0,0.0,0.0,0.0,0.0,0.0,0.0,0.0,0.0,6.26928555185,-0.000255127427304,7.26951647096,0.0,0.0,0.0,0.0,0.0,0.0,0.0,0.0,0.0
24648000000,152,24648000000,imu_link,0.00059998962761,-0.370218813735,-4.39506948313e-05,0.928944383716,0.0,0.0,0.0,0.0,0.0,0.0,0.0,0.0,0.0,-0.00339186838722,-0.0182390544505,0.00122183610755,0.0,0.0,0.0,0.0,0.0,0.0,0.0,0.0,0.0,6.2720633164,-0.00031083507384,7.27180243448,0.0,0.0,0.0,0.0,0.0,0.0,0.0,0.0,0.0
24652000000,153,24652000000,imu_link,0.000592706051009,-0.370253324272,-4.42754273826e-05,0.928930633904,0.0,0.0,0.0,0.0,0.0,0.0,0.0,0.0,0.0,-0.00343824658753,-0.018574661702,0.00120748013064,0.0,0.0,0.0,0.0,0.0,0.0,0.0,0.0,0.0,6.27310549251,-0.00034390195621,7.26922155503,0.0,0.0,0.0,0.0,0.0,0.0,0.0,0.0,0.0
24656000000,154,24656000000,imu_link,0.000585416879603,-0.370288082575,-4.4649065677e-05,0.928916783784,0.0,0.0,0.0,0.0,0.0,0.0,0.0,0.0,0.0,-0.00344986372603,-0.0187083248851,0.00118587206254,0.0,0.0,0.0,0.0,0.0,0.0,0.0,0.0,0.0,6.27419018861,-0.000274468437352,7.26390031434,0.0,0.0,0.0,0.0,0.0,0.0,0.0,0.0,0.0
24660000000,155,24660000000,imu_link,0.000578167707505,-0.370322575474,-4.50694885254e-05,0.928903037881,0.0,0.0,0.0,0.0,0.0,0.0,0.0,0.0,0.0,-0.00343998402306,-0.018565773269,0.00115666159063,0.0,0.0,0.0,0.0,0.0,0.0,0.0,0.0,0.0,6.27669444729,-0.000224972876073,7.26001315999,0.0,0.0,0.0,0.0,0.0,0.0,0.0,0.0,0.0
24664000000,156,24664000000,imu_link,0.00057095720434,-0.370356340287,-4.55261669486e-05,0.928889580706,0.0,0.0,0.0,0.0,0.0,0.0,0.0,0.0,0.0,-0.00342883718132,-0.0181741609085,0.00113245867297,0.0,0.0,0.0,0.0,0.0,0.0,0.0,0.0,0.0,6.27886140263,-9.50536631713e-05,7.25625177363,0.0,0.0,0.0,0.0,0.0,0.0,0.0,0.0,0.0
24668000000,157,24668000000,imu_link,0.000563822201059,-0.370389083848,-4.60038539056e-05,0.92887652923,0.0,0.0,0.0,0.0,0.0,0.0,0.0,0.0,0.0,-0.00339780103997,-0.0176247234551,0.00110843812767,0.0,0.0,0.0,0.0,0.0,0.0,0.0,0.0,0.0,6.27977758046,8.55136535816e-05,7.25160828693,0.0,0.0,0.0,0.0,0.0,0.0,0.0,0.0,0.0
24672000000,158,24672000000,imu_link,0.000556847603403,-0.370420895845,-4.64763923162e-05,0.928863847763,0.0,0.0,0.0,0.0,0.0,0.0,0.0,0.0,0.0,-0.00332247478475,-0.0171235410159,0.00108086895633,0.0,0.0,0.0,0.0,0.0,0.0,0.0,0.0,0.0,6.28083552999,0.000246911708521,7.25017112153,0.0,0.0,0.0,0.0,0.0,0.0,0.0,0.0,0.0
24676000000,159,24676000000,imu_link,0.000550199465932,-0.37045200031,-4.68879061816e-05,0.928851446975,0.0,0.0,0.0,0.0,0.0,0.0,0.0,0.0,0.0,-0.00315964845889,-0.0167429311433,0.00104855639475,0.0,0.0,0.0,0.0,0.0,0.0,0.0,0.0,0.0,6.28234650982,0.000391139802843,7.25060989093,0.0,0.0,0.0,0.0,0.0,0.0,0.0,0.0,0.0
24680000000,160,24680000000,imu_link,0.000544005221931,-0.370482569033,-4.71967862459e-05,0.928839258361,0.0,0.0,0.0,0.0,0.0,0.0,0.0,0.0,0.0,-0.00292990913592,-0.016454779594,0.0010120068917,0.0,0.0,0.0,0.0,0.0,0.0,0.0,0.0,0.0,6.28383409461,0.000539269561853,7.25049592788,0.0,0.0,0.0,0.0,0.0,0.0,0.0,0.0,0.0
24684000000,161,24684000000,imu_link,0.000538500599986,-0.370512426679,-4.7385110135e-05,0.928827351798,0.0,0.0,0.0,0.0,0.0,0.0,0.0,0.0,0.0,-0.00258739663459,-0.0160722450789,0.000940062311658,0.0,0.0,0.0,0.0,0.0,0.0,0.0,0.0,0.0,6.28576167599,0.000641892096189,7.24863800273,0.0,0.0,0.0,0.0,0.0,0.0,0.0,0.0,0.0
24688000000,162,24688000000,imu_link,0.000533803417283,-0.370541326446,-4.74569785846e-05,0.928815825768,0.0,0.0,0.0,0.0,0.0,0.0,0.0,0.0,0.0,-0.0021909618667,-0.0155568460982,0.000844313780051,0.0,0.0,0.0,0.0,0.0,0.0,0.0,0.0,0.0,6.28772584411,0.000765177742302,7.24617882496,0.0,0.0,0.0,0.0,0.0,0.0,0.0,0.0,0.0
24692000000,163,24692000000,imu_link,0.000529805923066,-0.370569026399,-4.74362402321e-05,0.928804776974,0.0,0.0,0.0,0.0,0.0,0.0,0.0,0.0,0.0,-0.00184901951836,-0.0149111844678,0.000757380453894,0.0,0.0,0.0,0.0,0.0,0.0,0.0,0.0,0.0,6.28880297006,0.000939756239933,7.24221947217,0.0,0.0,0.0,0.0,0.0,0.0,0.0,0.0,0.0
24696000000,164,24696000000,imu_link,0.00052631209048,-0.370595510556,-4.73544306536e-05,0.928794212035,0.0,0.0,0.0,0.0,0.0,0.0,0.0,0.0,0.0,-0.00160395931284,-0.0142568865342,0.000692110785059,0.0,0.0,0.0,0.0,0.0,0.0,0.0,0.0,0.0,6.28988733195,0.00110548178248,7.24008833903,0.0,0.0,0.0,0.0,0.0,0.0,0.0,0.0,0.0
24700000000,165,24700000000,imu_link,0.000523081119889,-0.37062089315,-4.72219349573e-05,0.928784085628,0.0,0.0,0.0,0.0,0.0,0.0,0.0,0.0,0.0,-0.00147263642339,-0.0136640453232,0.000666662034081,0.0,0.0,0.0,0.0,0.0,0.0,0.0,0.0,0.0,6.29152127609,0.00125055576248,7.24044479227,0.0,0.0,0.0,0.0,0.0,0.0,0.0,0.0,0.0
24704000000,166,24704000000,imu_link,0.000520171002245,-0.370645463961,-4.70019304352e-05,0.92877428219,0.0,0.0,0.0,0.0,0.0,0.0,0.0,0.0,0.0,-0.00130752220463,-0.0132271795148,0.000647638344799,0.0,0.0,0.0,0.0,0.0,0.0,0.0,0.0,0.0,6.29242822846,0.00128324491271,7.23989270805,0.0,0.0,0.0,0.0,0.0,0.0,0.0,0.0,0.0
24708000000,167,24708000000,imu_link,0.000517736324908,-0.370669519101,-4.66250209234e-05,0.928764683537,0.0,0.0,0.0,0.0,0.0,0.0,0.0,0.0,0.0,-0.00105772115806,-0.0129497055391,0.000632263801842,0.0,0.0,0.0,0.0,0.0,0.0,0.0,0.0,0.0,6.29428387871,0.00138325930112,7.24142741877,0.0,0.0,0.0,0.0,0.0,0.0,0.0,0.0,0.0
24712000000,168,24712000000,imu_link,0.000515840641959,-0.370693250809,-4.60494281331e-05,0.928755212956,0.0,0.0,0.0,0.0,0.0,0.0,0.0,0.0,0.0,-0.000770639458514,-0.0127757095281,0.000624553672488,0.0,0.0,0.0,0.0,0.0,0.0,0.0,0.0,0.0,6.2959951366,0.00154179645585,7.24208116451,0.0,0.0,0.0,0.0,0.0,0.0,0.0,0.0,0.0
24716000000,169,24716000000,imu_link,0.000514526431233,-0.370716816365,-4.53039231283e-05,0.928745807675,0.0,0.0,0.0,0.0,0.0,0.0,0.0,0.0,0.0,-0.000469144791261,-0.0126863911105,0.000595641834626,0.0,0.0,0.0,0.0,0.0,0.0,0.0,0.0,0.0,6.29767041505,0.00174112001138,7.24247353788,0.0,0.0,0.0,0.0,0.0,0.0,0.0,0.0,0.0
24720000000,170,24720000000,imu_link,0.000513995217223,-0.370740364381,-4.44105652301e-05,0.928736408275,0.0,0.0,0.0,0.0,0.0,0.0,0.0,0.0,0.0,-7.81384660403e-05,-0.0126771009949,0.000519161308608,0.0,0.0,0.0,0.0,0.0,0.0,0.0,0.0,0.0,6.29917762938,0.00189408546097,7.24260835027,0.0,0.0,0.0,0.0,0.0,0.0,0.0,0.0,0.0
24724000000,171,24724000000,imu_link,0.00051457675169,-0.370764264802,-4.33174128737e-05,0.928726866888,0.0,0.0,0.0,0.0,0.0,0.0,0.0,0.0,0.0,0.000475666797064,-0.0128669903602,0.00040575652843,0.0,0.0,0.0,0.0,0.0,0.0,0.0,0.0,0.0,6.30180913384,0.00204171025798,7.24653637136,0.0,0.0,0.0,0.0,0.0,0.0,0.0,0.0,0.0
24728000000,172,24728000000,imu_link,0.000516446867253,-0.370788896288,-4.20126512535e-05,0.928717032205,0.0,0.0,0.0,0.0,0.0,0.0,0.0,0.0,0.0,0.00111335661126,-0.0132607595384,0.000265321963382,0.0,0.0,0.0,0.0,0.0,0.0,0.0,0.0,0.0,6.30453929642,0.00218634779002,7.25069293966,0.0,0.0,0.0,0.0,0.0,0.0,0.0,0.0,0.0
24732000000,173,24732000000,imu_link,0.000519514725717,-0.370814476747,-4.05708850271e-05,0.928706817189,0.0,0.0,0.0,0.0,0.0,0.0,0.0,0.0,0.0,0.00169505676671,-0.0137718747018,0.000107123392605,0.0,0.0,0.0,0.0,0.0,0.0,0.0,0.0,0.0,6.30650195656,0.0023565831652,7.25169372486,0.0,0.0,0.0,0.0,0.0,0.0,0.0,0.0,0.0
24736000000,174,24736000000,imu_link,0.00052372133002,-0.370840904603,-3.90441382424e-05,0.92869626233,0.0,0.0,0.0,0.0,0.0,0.0,0.0,0.0,0.0,0.00223969875553,-0.0142283300099,-6.43340931742e-05,0.0,0.0,0.0,0.0,0.0,0.0,0.0,0.0,0.0,6.30810841871,0.00251085233281,7.24936055275,0.0,0.0,0.0,0.0,0.0,0.0,0.0,0.0,0.0
24740000000,175,24740000000,imu_link,0.000528846315822,-0.370867888083,-3.74764004647e-05,0.928685484169,0.0,0.0,0.0,0.0,0.0,0.0,0.0,0.0,0.0,0.00267381737858,-0.0145277097992,-0.000215445578236,0.0,0.0,0.0,0.0,0.0,0.0,0.0,0.0,0.0,6.30945170562,0.00269513348333,7.24492339601,0.0,0.0,0.0,0.0,0.0,0.0,0.0,0.0,0.0
24744000000,176,24744000000,imu_link,0.000534532804157,-0.370895135122,-3.59079300481e-05,0.928674599485,0.0,0.0,0.0,0.0,0.0,0.0,0.0,0.0,0.0,0.00293471596599,-0.0146698333512,-0.000319159317004,0.0,0.0,0.0,0.0,0.0,0.0,0.0,0.0,0.0,6.31154623849,0.00287497254806,7.24233428115,0.0,0.0,0.0,0.0,0.0,0.0,0.0,0.0,0.0
24748000000,177,24748000000,imu_link,0.000540531702964,-0.370922486512,-3.43074108336e-05,0.928663671976,0.0,0.0,0.0,0.0,0.0,0.0,0.0,0.0,0.0,0.00308573649151,-0.0147262146879,-0.000362186506271,0.0,0.0,0.0,0.0,0.0,0.0,0.0,0.0,0.0,6.31393320757,0.00298214579893,7.24150146713,0.0,0.0,0.0,0.0,0.0,0.0,0.0,0.0,0.0
24752000000,178,24752000000,imu_link,0.000546781104973,-0.370949948907,-3.26448438659e-05,0.928652699006,0.0,0.0,0.0,0.0,0.0,0.0,0.0,0.0,0.0,0.00321357474829,-0.0147861689546,-0.000379805173222,0.0,0.0,0.0,0.0,0.0,0.0,0.0,0.0,0.0,6.31401945371,0.00299666460403,7.23680839737,0.0,0.0,0.0,0.0,0.0,0.0,0.0,0.0,0.0
24756000000,179,24756000000,imu_link,0.000553148982603,-0.370977637558,-3.0943320996e-05,0.928641634593,0.0,0.0,0.0,0.0,0.0,0.0,0.0,0.0,0.0,0.00327584013773,-0.0149081726644,-0.000383630820436,0.0,0.0,0.0,0.0,0.0,0.0,0.0,0.0,0.0,6.31611208011,0.00307372596351,7.23745030408,0.0,0.0,0.0,0.0,0.0,0.0,0.0,0.0,0.0
24760000000,180,24760000000,imu_link,0.000559469346481,-0.371005619865,-2.92404632776e-05,0.928630451885,0.0,0.0,0.0,0.0,0.0,0.0,0.0,0.0,0.0,0.00325406337457,-0.0150664662184,-0.000374118365511,0.0,0.0,0.0,0.0,0.0,0.0,0.0,0.0,0.0,6.31707504758,0.00316129970468,7.2355933785,0.0,0.0,0.0,0.0,0.0,0.0,0.0,0.0,0.0
24764000000,181,24764000000,imu_link,0.000565620048552,-0.371033840234,-2.75406600511e-05,0.928619173137,0.0,0.0,0.0,0.0,0.0,0.0,0.0,0.0,0.0,0.00317475054367,-0.0151948209131,-0.000343998680636,0.0,0.0,0.0,0.0,0.0,0.0,0.0,0.0,0.0,6.31744014272,0.00318934260445,7.23144532919,0.0,0.0,0.0,0.0,0.0,0.0,0.0,0.0,0.0
24768000000,182,24768000000,imu_link,0.000571465820128,-0.371062099587,-2.58621754227e-05,0.928607877959,0.0,0.0,0.0,0.0,0.0,0.0,0.0,0.0,0.0,0.00302921861361,-0.0152159798368,-0.000297316544678,0.0,0.0,0.0,0.0,0.0,0.0,0.0,0.0,0.0,6.31883324332,0.00320761308292,7.22815742214,0.0,0.0,0.0,0.0,0.0,0.0,0.0,0.0,0.0
24772000000,183,24772000000,imu_link,0.000576999433816,-0.371090028053,-2.42237598805e-05,0.928596714168,0.0,0.0,0.0,0.0,0.0,0.0,0.0,0.0,0.0,0.00287680659714,-0.015037987223,-0.00025809864488,0.0,0.0,0.0,0.0,0.0,0.0,0.0,0.0,0.0,6.3201413347,0.00314747540503,7.22357598941,0.0,0.0,0.0,0.0,0.0,0.0,0.0,0.0,0.0
24776000000,184,24776000000,imu_link,0.000582276099289,-0.371117406865,-2.26245591315e-05,0.928585769202,0.0,0.0,0.0,0.0,0.0,0.0,0.0,0.0,0.0,0.00275016006514,-0.0147421957494,-0.000228786473658,0.0,0.0,0.0,0.0,0.0,0.0,0.0,0.0,0.0,6.32104060356,0.00305439484438,7.21962410494,0.0,0.0,0.0,0.0,0.0,0.0,0.0,0.0,0.0
24780000000,185,24780000000,imu_link,0.000587333809583,-0.371144269171,-2.1065735526e-05,0.928575029848,0.0,0.0,0.0,0.0,0.0,0.0,0.0,0.0,0.0,0.00264094269859,-0.0144642470695,-0.00020705230343,0.0,0.0,0.0,0.0,0.0,0.0,0.0,0.0,0.0,6.32192810065,0.00294127338292,7.217780558,0.0,0.0,0.0,0.0,0.0,0.0,0.0,0.0,0.0
24784000000,186,24784000000,imu_link,0.000592128304414,-0.371170774235,-1.95228261991e-05,0.928564432528,0.0,0.0,0.0,0.0,0.0,0.0,0.0,0.0,0.0,0.00251573632477,-0.0142720339539,-0.000165699062845,0.0,0.0,0.0,0.0,0.0,0.0,0.0,0.0,0.0,6.32347285846,0.00287917406489,7.21839738708,0.0,0.0,0.0,0.0,0.0,0.0,0.0,0.0,0.0
24788000000,187,24788000000,imu_link,0.00059670011555,-0.371197019938,-1.7969626903e-05,0.928553938129,0.0,0.0,0.0,0.0,0.0,0.0,0.0,0.0,0.0,0.00241422491114,-0.0141325160736,-0.000119670556416,0.0,0.0,0.0,0.0,0.0,0.0,0.0,0.0,0.0,6.32545175657,0.00281794547855,7.2195093516,0.0,0.0,0.0,0.0,0.0,0.0,0.0,0.0,0.0
24792000000,188,24792000000,imu_link,0.000601093274533,-0.371222962732,-1.64045284867e-05,0.92854356406,0.0,0.0,0.0,0.0,0.0,0.0,0.0,0.0,0.0,0.00233345066713,-0.0139695470887,-8.10777872178e-05,0.0,0.0,0.0,0.0,0.0,0.0,0.0,0.0,0.0,6.32656533088,0.00276868536785,7.21755403417,0.0,0.0,0.0,0.0,0.0,0.0,0.0,0.0,0.0
24796000000,189,24796000000,imu_link,0.000605441392139,-0.371248403293,-1.48264355076e-05,0.928533389961,0.0,0.0,0.0,0.0,0.0,0.0,0.0,0.0,0.0,0.00231488694732,-0.0136992542708,-6.68338859506e-05,0.0,0.0,0.0,0.0,0.0,0.0,0.0,0.0,0.0,6.32738339154,0.00268411231848,7.2129541665,0.0,0.0,0.0,0.0,0.0,0.0,0.0,0.0,0.0
24800000000,190,24800000000,imu_link,0.000609935733042,-0.37127306745,-1.32381393105e-05,0.928523525383,0.0,0.0,0.0,0.0,0.0,0.0,0.0,0.0,0.0,0.00238456806457,-0.0132813366718,-8.94721938247e-05,0.0,0.0,0.0,0.0,0.0,0.0,0.0,0.0,0.0,6.32998920732,0.00266608689315,7.21172044043,0.0,0.0,0.0,0.0,0.0,0.0,0.0,0.0,0.0
24804000000,191,24804000000,imu_link,0.000614726791506,-0.371296842719,-1.16417414325e-05,0.928514015275,0.0,0.0,0.0,0.0,0.0,0.0,0.0,0.0,0.0,0.00252371266457,-0.0128028531627,-0.00014106124844,0.0,0.0,0.0,0.0,0.0,0.0,0.0,0.0,0.0,6.33093260861,0.00271379848829,7.20863822885,0.0,0.0,0.0,0.0,0.0,0.0,0.0,0.0,0.0
24808000000,192,24808000000,imu_link,0.00061982901092,-0.371319788123,-1.00435013797e-05,0.928504836099,0.0,0.0,0.0,0.0,0.0,0.0,0.0,0.0,0.0,0.00266840676582,-0.0123561433266,-0.000198225688615,0.0,0.0,0.0,0.0,0.0,0.0,0.0,0.0,0.0,6.33231987231,0.0028120508587,7.20772655327,0.0,0.0,0.0,0.0,0.0,0.0,0.0,0.0,0.0
24812000000,193,24812000000,imu_link,0.000625421558817,-0.371342030482,-8.44364386173e-06,0.92849593708,0.0,0.0,0.0,0.0,0.0,0.0,0.0,0.0,0.0,0.00289625289305,-0.011977736132,-0.000288725587793,0.0,0.0,0.0,0.0,0.0,0.0,0.0,0.0,0.0,6.33300494442,0.00288887370094,7.20608954965,0.0,0.0,0.0,0.0,0.0,0.0,0.0,0.0,0.0
24816000000,194,24816000000,imu_link,0.000631648166648,-0.371363686447,-6.84188013939e-06,0.928487271513,0.0,0.0,0.0,0.0,0.0,0.0,0.0,0.0,0.0,0.00319089237773,-0.011662155183,-0.000405749574239,0.0,0.0,0.0,0.0,0.0,0.0,0.0,0.0,0.0,6.33379387258,0.00299655209307,7.20441394564,0.0,0.0,0.0,0.0,0.0,0.0,0.0,0.0,0.0
24820000000,195,24820000000,imu_link,0.000638612881567,-0.371384668306,-5.22295436534e-06,0.928478874447,0.0,0.0,0.0,0.0,0.0,0.0,0.0,0.0,0.0,0.0035366534725,-0.0112993420469,-0.000535047266123,0.0,0.0,0.0,0.0,0.0,0.0,0.0,0.0,0.0,6.33524203602,0.00304931883977,7.20278603807,0.0,0.0,0.0,0.0,0.0,0.0,0.0,0.0,0.0
24824000000,196,24824000000,imu_link,0.00064614784888,-0.37140491403,-3.59950443998e-06,0.928470770845,0.0,0.0,0.0,0.0,0.0,0.0,0.0,0.0,0.0,0.00380213159521,-0.0109031022168,-0.000639072760781,0.0,0.0,0.0,0.0,0.0,0.0,0.0,0.0,0.0,6.33804202904,0.00308145587815,7.20401191285,0.0,0.0,0.0,0.0,0.0,0.0,0.0,0.0,0.0
24828000000,197,24828000000,imu_link,0.000654145640446,-0.371424701984,-1.97761091073e-06,0.92846284947,0.0,0.0,0.0,0.0,0.0,0.0,0.0,0.0,0.0,0.00401664226795,-0.0106567490549,-0.000725890461536,0.0,0.0,0.0,0.0,0.0,0.0,0.0,0.0,0.0,6.34072143838,0.00310424141593,7.2079122023,0.0,0.0,0.0,0.0,0.0,0.0,0.0,0.0,0.0
24832000000,198,24832000000,imu_link,0.000662526898991,-0.371444716663,-3.33622508776e-07,0.928454836554,0.0,0.0,0.0,0.0,0.0,0.0,0.0,0.0,0.0,0.00419879314514,-0.0107789941495,-0.000786773816619,0.0,0.0,0.0,0.0,0.0,0.0,0.0,0.0,0.0,6.34320386507,0.00313373129498,7.21452373358,0.0,0.0,0.0,0.0,0.0,0.0,0.0,0.0,0.0
24836000000,199,24836000000,imu_link,0.000671213757027,-0.371465475196,1.34684120496e-06,0.928446525228,0.0,0.0,0.0,0.0,0.0,0.0,0.0,0.0,0.0,0.00434753406552,-0.0111797214566,-0.000826351272773,0.0,0.0,0.0,0.0,0.0,0.0,0.0,0.0,0.0,6.34516076938,0.00317834739618,7.21858149038,0.0,0.0,0.0,0.0,0.0,0.0,0.0,0.0,0.0
24840000000,200,24840000000,imu_link,0.000679880322094,-0.371487209661,3.04223959643e-06,0.928437822803,0.0,0.0,0.0,0.0,0.0,0.0,0.0,0.0,0.0,0.00434101805394,-0.0117054058609,-0.000815321386877,0.0,0.0,0.0,0.0,0.0,0.0,0.0,0.0,0.0,6.34692526209,0.00325610782498,7.21977962838,0.0,0.0,0.0,0.0,0.0,0.0,0.0,0.0,0.0
24844000000,201,24844000000,imu_link,0.000688069386915,-0.371509553072,4.73321429388e-06,0.92842887639,0.0,0.0,0.0,0.0,0.0,0.0,0.0,0.0,0.0,0.00411861375258,-0.0120334109399,-0.000728474955677,0.0,0.0,0.0,0.0,0.0,0.0,0.0,0.0,0.0,6.34987999498,0.00329019184626,7.21811854046,0.0,0.0,0.0,0.0,0.0,0.0,0.0,0.0,0.0
24848000000,202,24848000000,imu_link,0.000695569260084,-0.371531891521,6.39266642634e-06,0.92841993178,0.0,0.0,0.0,0.0,0.0,0.0,0.0,0.0,0.0,0.00379282496071,-0.0120307812414,-0.000615089255661,0.0,0.0,0.0,0.0,0.0,0.0,0.0,0.0,0.0,6.35217558118,0.00326708944721,7.21335848223,0.0,0.0,0.0,0.0,0.0,0.0,0.0,0.0,0.0
24852000000,203,24852000000,imu_link,0.000702339784115,-0.371553825695,8.01402068987e-06,0.928411148827,0.0,0.0,0.0,0.0,0.0,0.0,0.0,0.0,0.0,0.00344712160547,-0.0118130934495,-0.00049742755075,0.0,0.0,0.0,0.0,0.0,0.0,0.0,0.0,0.0,6.35245365254,0.0032111798705,7.20647131406,0.0,0.0,0.0,0.0,0.0,0.0,0.0,0.0,0.0
24856000000,204,24856000000,imu_link,0.000708628368748,-0.371575140432,9.65194897752e-06,0.928402613506,0.0,0.0,0.0,0.0,0.0,0.0,0.0,0.0,0.0,0.00322639724286,-0.0114795355546,-0.00040041910262,0.0,0.0,0.0,0.0,0.0,0.0,0.0,0.0,0.0,6.35254513938,0.00310516709745,7.20093500126,0.0,0.0,0.0,0.0,0.0,0.0,0.0,0.0,0.0
24860000000,205,24860000000,imu_link,0.00071487070153,-0.371595734917,1.13775446141e-05,0.928394365893,0.0,0.0,0.0,0.0,0.0,0.0,0.0,0.0,0.0,0.00322111611391,-0.0110917095779,-0.000351387369817,0.0,0.0,0.0,0.0,0.0,0.0,0.0,0.0,0.0,6.35438628528,0.00301769274417,7.19978814236,0.0,0.0,0.0,0.0,0.0,0.0,0.0,0.0,0.0
24864000000,206,24864000000,imu_link,0.00072149171302,-0.371615641519,1.32743624621e-05,0.928386392755,0.0,0.0,0.0,0.0,0.0,0.0,0.0,0.0,0.0,0.00342861623107,-0.0107213399382,-0.00034251163336,0.0,0.0,0.0,0.0,0.0,0.0,0.0,0.0,0.0,6.3563281014,0.00293139768756,7.20006990579,0.0,0.0,0.0,0.0,0.0,0.0,0.0,0.0,0.0
24868000000,207,24868000000,imu_link,0.000728822448548,-0.371635060274,1.54161447633e-05,0.928378613797,0.0,0.0,0.0,0.0,0.0,0.0,0.0,0.0,0.0,0.00380351480036,-0.0104587212824,-0.000360850354882,0.0,0.0,0.0,0.0,0.0,0.0,0.0,0.0,0.0,6.35859917739,0.00289805803181,7.20236700834,0.0,0.0,0.0,0.0,0.0,0.0,0.0,0.0,0.0
24872000000,208,24872000000,imu_link,0.000736862001228,-0.371654361721,1.77656250081e-05,0.928370880701,0.0,0.0,0.0,0.0,0.0,0.0,0.0,0.0,0.0,0.00417111825383,-0.0103956759803,-0.00039619294497,0.0,0.0,0.0,0.0,0.0,0.0,0.0,0.0,0.0,6.35964473966,0.00292982441331,7.20378044841,0.0,0.0,0.0,0.0,0.0,0.0,0.0,0.0,0.0
24876000000,209,24876000000,imu_link,0.000745373057361,-0.371674085196,2.02334002315e-05,0.928362977721,0.0,0.0,0.0,0.0,0.0,0.0,0.0,0.0,0.0,0.00441202455558,-0.0106231048826,-0.000428743298253,0.0,0.0,0.0,0.0,0.0,0.0,0.0,0.0,0.0,6.3612798972,0.00303823824927,7.20746206208,0.0,0.0,0.0,0.0,0.0,0.0,0.0,0.0,0.0
24880000000,210,24880000000,imu_link,0.000754072677326,-0.371694665868,2.27499192718e-05,0.928354730813,0.0,0.0,0.0,0.0,0.0,0.0,0.0,0.0,0.0,0.00450873030825,-0.0110848979313,-0.000440836520661,0.0,0.0,0.0,0.0,0.0,0.0,0.0,0.0,0.0,6.36281367092,0.0031441399143,7.21015917172,0.0,0.0,0.0,0.0,0.0,0.0,0.0,0.0,0.0
24884000000,211,24884000000,imu_link,0.000762735100259,-0.371716418471,2.52606410331e-05,0.928346014068,0.0,0.0,0.0,0.0,0.0,0.0,0.0,0.0,0.0,0.00449055069422,-0.0117162015163,-0.000436167312308,0.0,0.0,0.0,0.0,0.0,0.0,0.0,0.0,0.0,6.36419258329,0.00320379925273,7.21152699169,0.0,0.0,0.0,0.0,0.0,0.0,0.0,0.0,0.0
24888000000,212,24888000000,imu_link,0.000771369754211,-0.371739455033,2.77621518043e-05,0.928336782525,0.0,0.0,0.0,0.0,0.0,0.0,0.0,0.0,0.0,0.00447612925534,-0.0124078636996,-0.000434785549426,0.0,0.0,0.0,0.0,0.0,0.0,0.0,0.0,0.0,6.36470709657,0.00315693651891,7.20889718921,0.0,0.0,0.0,0.0,0.0,0.0,0.0,0.0,0.0
24892000000,213,24892000000,imu_link,0.00078013681739,-0.37176389964,3.03071553888e-05,0.928326986246,0.0,0.0,0.0,0.0,0.0,0.0,0.0,0.0,0.0,0.00454587169564,-0.0131663858968,-0.000438657526546,0.0,0.0,0.0,0.0,0.0,0.0,0.0,0.0,0.0,6.36574281265,0.00310244693844,7.20749639179,0.0,0.0,0.0,0.0,0.0,0.0,0.0,0.0,0.0
24896000000,214,24896000000,imu_link,0.000789078117715,-0.371789705761,3.29062003935e-05,0.928316643696,0.0,0.0,0.0,0.0,0.0,0.0,0.0,0.0,0.0,0.00463698399399,-0.0138998742072,-0.000445421651269,0.0,0.0,0.0,0.0,0.0,0.0,0.0,0.0,0.0,6.36650581078,0.00310330029306,7.20425347602,0.0,0.0,0.0,0.0,0.0,0.0,0.0,0.0,0.0
24900000000,215,24900000000,imu_link,0.00079782617739,-0.3718167008,3.55428851866e-05,0.928305824185,0.0,0.0,0.0,0.0,0.0,0.0,0.0,0.0,0.0,0.00455445539944,-0.014540366943,-0.00039155146588,0.0,0.0,0.0,0.0,0.0,0.0,0.0,0.0,0.0,6.36820928068,0.00318422030123,7.20214581172,0.0,0.0,0.0,0.0,0.0,0.0,0.0,0.0,0.0
24904000000,216,24904000000,imu_link,0.000806024805581,-0.371844619545,3.8183466957e-05,0.928294634145,0.0,0.0,0.0,0.0,0.0,0.0,0.0,0.0,0.0,0.00430029105065,-0.0150379810537,-0.000287223708508,0.0,0.0,0.0,0.0,0.0,0.0,0.0,0.0,0.0,6.37009560555,0.0032291523885,7.19969561324,0.0,0.0,0.0,0.0,0.0,0.0,0.0,0.0,0.0
24908000000,217,24908000000,imu_link,0.000813572185954,-0.371873267577,4.08036106137e-05,0.928283151467,0.0,0.0,0.0,0.0,0.0,0.0,0.0,0.0,0.0,0.00399432023481,-0.0154308815086,-0.000175329006644,0.0,0.0,0.0,0.0,0.0,0.0,0.0,0.0,0.0,6.3713111314,0.00319091305032,7.19652143905,0.0,0.0,0.0,0.0,0.0,0.0,0.0,0.0,0.0
24912000000,218,24912000000,imu_link,0.000820627972274,-0.37190248244,4.34141830211e-05,0.928271441034,0.0,0.0,0.0,0.0,0.0,0.0,0.0,0.0,0.0,0.00376445243326,-0.0157363129118,-8.81308524561e-05,0.0,0.0,0.0,0.0,0.0,0.0,0.0,0.0,0.0,6.37201814793,0.00303598497209,7.19305772109,0.0,0.0,0.0,0.0,0.0,0.0,0.0,0.0,0.0
24916000000,219,24916000000,imu_link,0.000827297869886,-0.371932077393,4.6019160808e-05,0.928259577525,0.0,0.0,0.0,0.0,0.0,0.0,0.0,0.0,0.0,0.00358436193181,-0.0159411848097,-1.88117523678e-05,0.0,0.0,0.0,0.0,0.0,0.0,0.0,0.0,0.0,6.37239033095,0.00286074837881,7.1886249437,0.0,0.0,0.0,0.0,0.0,0.0,0.0,0.0,0.0
24920000000,220,24920000000,imu_link,0.000833486841293,-0.371961835997,4.85883554547e-05,0.928247647722,0.0,0.0,0.0,0.0,0.0,0.0,0.0,0.0,0.0,0.00335451896234,-0.0160294726006,5.40853871113e-05,0.0,0.0,0.0,0.0,0.0,0.0,0.0,0.0,0.0,6.37310789693,0.00277260636225,7.18460407028,0.0,0.0,0.0,0.0,0.0,0.0,0.0,0.0,0.0
24924000000,221,24924000000,imu_link,0.000838947695592,-0.371991568428,5.10811917627e-05,0.928235727914,0.0,0.0,0.0,0.0,0.0,0.0,0.0,0.0,0.0,0.00300237774178,-0.016015480346,0.000154050401143,0.0,0.0,0.0,0.0,0.0,0.0,0.0,0.0,0.0,6.37407571196,0.00273139027448,7.18124417797,0.0,0.0,0.0,0.0,0.0,0.0,0.0,0.0,0.0
24928000000,222,24928000000,imu_link,0.000843276630107,-0.372021328393,5.34370720359e-05,0.928223796964,0.0,0.0,0.0,0.0,0.0,0.0,0.0,0.0,0.0,0.00245156427509,-0.0160303601241,0.0003010308009,0.0,0.0,0.0,0.0,0.0,0.0,0.0,0.0,0.0,6.37628201568,0.00269927156326,7.18270839788,0.0,0.0,0.0,0.0,0.0,0.0,0.0,0.0,0.0
24932000000,223,24932000000,imu_link,0.000846230393771,-0.37205137267,5.55860530178e-05,0.928211752187,0.0,0.0,0.0,0.0,0.0,0.0,0.0,0.0,0.0,0.00177488604272,-0.0161835362014,0.000460925739665,0.0,0.0,0.0,0.0,0.0,0.0,0.0,0.0,0.0,6.37722345692,0.00257807182821,7.18273401474,0.0,0.0,0.0,0.0,0.0,0.0,0.0,0.0,0.0
24936000000,224,24936000000,imu_link,0.000847849951795,-0.372081969836,5.75080260459e-05,0.928199485868,0.0,0.0,0.0,0.0,0.0,0.0,0.0,0.0,0.0,0.00111352242566,-0.0164814068257,0.000604006627666,0.0,0.0,0.0,0.0,0.0,0.0,0.0,0.0,0.0,6.37895967746,0.00239601321978,7.18412426689,0.0,0.0,0.0,0.0,0.0,0.0,0.0,0.0,0.0
24940000000,225,24940000000,imu_link,0.000848355715853,-0.372113089241,5.91968913178e-05,0.928187010038,0.0,0.0,0.0,0.0,0.0,0.0,0.0,0.0,0.0,0.00055331713668,-0.0167628220221,0.000703260118343,0.0,0.0,0.0,0.0,0.0,0.0,0.0,0.0,0.0,6.37993465061,0.00222055459088,7.18187064216,0.0,0.0,0.0,0.0,0.0,0.0,0.0,0.0,0.0
24944000000,226,24944000000,imu_link,0.00084809387099,-0.372144481758,6.06496325574e-05,0.928174424209,0.0,0.0,0.0,0.0,0.0,0.0,0.0,0.0,0.0,0.000153180975252,-0.0169101153588,0.000736614256505,0.0,0.0,0.0,0.0,0.0,0.0,0.0,0.0,0.0,6.3816092681,0.00209027401894,7.17936558962,0.0,0.0,0.0,0.0,0.0,0.0,0.0,0.0,0.0
24948000000,227,24948000000,imu_link,0.000847272646765,-0.372175670921,6.18644266989e-05,0.928161919213,0.0,0.0,0.0,0.0,0.0,0.0,0.0,0.0,0.0,-0.000150723293383,-0.0168007840657,0.000730182339113,0.0,0.0,0.0,0.0,0.0,0.0,0.0,0.0,0.0,6.38427252865,0.00203646305704,7.17718015261,0.0,0.0,0.0,0.0,0.0,0.0,0.0,0.0,0.0
24952000000,228,24952000000,imu_link,0.000846020745033,-0.372206195807,6.28633585102e-05,0.928149679793,0.0,0.0,0.0,0.0,0.0,0.0,0.0,0.0,0.0,-0.000390853838182,-0.0164431639061,0.000709858960457,0.0,0.0,0.0,0.0,0.0,0.0,0.0,0.0,0.0,6.38582755971,0.00202409546821,7.17272123008,0.0,0.0,0.0,0.0,0.0,0.0,0.0,0.0,0.0
24956000000,229,24956000000,imu_link,0.000844375511149,-0.372235665689,6.36589472293e-05,0.928137862694,0.0,0.0,0.0,0.0,0.0,0.0,0.0,0.0,0.0,-0.000611377658886,-0.0158750408765,0.00068823332713,0.0,0.0,0.0,0.0,0.0,0.0,0.0,0.0,0.0,6.38659305146,0.00198448180628,7.1675710693,0.0,0.0,0.0,0.0,0.0,0.0,0.0,0.0,0.0
24960000000,230,24960000000,imu_link,0.000842452284316,-0.372263906513,6.42741787228e-05,0.928126537736,0.0,0.0,0.0,0.0,0.0,0.0,0.0,0.0,0.0,-0.000774121901175,-0.015213144905,0.000655740029981,0.0,0.0,0.0,0.0,0.0,0.0,0.0,0.0,0.0,6.38678227894,0.00192966988658,7.16332142907,0.0,0.0,0.0,0.0,0.0,0.0,0.0,0.0,0.0
24964000000,231,24964000000,imu_link,0.000840381605832,-0.372290966555,6.47370695156e-05,0.928115685564,0.0,0.0,0.0,0.0,0.0,0.0,0.0,0.0,0.0,-0.000871065471332,-0.0145772461057,0.000611977199891,0.0,0.0,0.0,0.0,0.0,0.0,0.0,0.0,0.0,6.38771711613,0.00188293299772,7.16257256187,0.0,0.0,0.0,0.0,0.0,0.0,0.0,0.0,0.0
24968000000,232,24968000000,imu_link,0.000838129426596,-0.3723171315,6.50749662389e-05,0.928105191719,0.0,0.0,0.0,0.0,0.0,0.0,0.0,0.0,0.0,-0.000978680993214,-0.0140952149362,0.000587370556723,0.0,0.0,0.0,0.0,0.0,0.0,0.0,0.0,0.0,6.38936039405,0.00191156862289,7.16522689588,0.0,0.0,0.0,0.0,0.0,0.0,0.0,0.0,0.0
24972000000,233,24972000000,imu_link,0.00083540967382,-0.372342620695,6.53017559465e-05,0.928094968546,0.0,0.0,0.0,0.0,0.0,0.0,0.0,0.0,0.0,-0.00121643467268,-0.0137312747546,0.000622561887176,0.0,0.0,0.0,0.0,0.0,0.0,0.0,0.0,0.0,6.39066544063,0.00198952544878,7.16663181538,0.0,0.0,0.0,0.0,0.0,0.0,0.0,0.0,0.0
24976000000,234,24976000000,imu_link,0.000832036935681,-0.372367636959,6.54245929833e-05,0.928084934896,0.0,0.0,0.0,0.0,0.0,0.0,0.0,0.0,0.0,-0.0015388676156,-0.0134765504603,0.000695686318573,0.0,0.0,0.0,0.0,0.0,0.0,0.0,0.0,0.0,6.39174562752,0.00201283548483,7.16746550759,0.0,0.0,0.0,0.0,0.0,0.0,0.0,0.0,0.0
24980000000,235,24980000000,imu_link,0.000828164729633,-0.372392584707,6.54739085864e-05,0.928074928393,0.0,0.0,0.0,0.0,0.0,0.0,0.0,0.0,0.0,-0.00178433949079,-0.0134397165966,0.000754532702413,0.0,0.0,0.0,0.0,0.0,0.0,0.0,0.0,0.0,6.39348902637,0.00193977743662,7.17038800483,0.0,0.0,0.0,0.0,0.0,0.0,0.0,0.0,0.0
24984000000,236,24984000000,imu_link,0.000824106799054,-0.372417762403,6.54801939082e-05,0.92806482899,0.0,0.0,0.0,0.0,0.0,0.0,0.0,0.0,0.0,-0.00187850376878,-0.0135637298701,0.000769244516667,0.0,0.0,0.0,0.0,0.0,0.0,0.0,0.0,0.0,6.39486587929,0.0019317859792,7.17207234664,0.0,0.0,0.0,0.0,0.0,0.0,0.0,0.0,0.0
24988000000,237,24988000000,imu_link,0.000820247043304,-0.372443357066,6.54530392902e-05,0.928054561267,0.0,0.0,0.0,0.0,0.0,0.0,0.0,0.0,0.0,-0.0017927153339,-0.0137885793304,0.000717002711631,0.0,0.0,0.0,0.0,0.0,0.0,0.0,0.0,0.0,6.39697724324,0.00201430949758,7.17404825819,0.0,0.0,0.0,0.0,0.0,0.0,0.0,0.0,0.0
24992000000,238,24992000000,imu_link,0.000816886082496,-0.372469272434,6.53989929915e-05,0.928044163557,0.0,0.0,0.0,0.0,0.0,0.0,0.0,0.0,0.0,-0.00156622587153,-0.0139616290288,0.000611773589285,0.0,0.0,0.0,0.0,0.0,0.0,0.0,0.0,0.0,6.39836382667,0.00213939755957,7.17217288497,0.0,0.0,0.0,0.0,0.0,0.0,0.0,0.0,0.0
24996000000,239,24996000000,imu_link,0.000814105054653,-0.372495185784,6.53457744967e-05,0.928033765297,0.0,0.0,0.0,0.0,0.0,0.0,0.0,0.0,0.0,-0.00129696971287,-0.0139608134581,0.000504153297229,0.0,0.0,0.0,0.0,0.0,0.0,0.0,0.0,0.0,6.39925614913,0.00233179639995,7.167570479,0.0,0.0,0.0,0.0,0.0,0.0,0.0,0.0,0.0
25000000000,240,25000000000,imu_link,0.000811872794318,-0.372520652885,6.53016850996e-05,0.928023544837,0.0,0.0,0.0,0.0,0.0,0.0,0.0,0.0,0.0,-0.00104068984649,-0.0137206459417,0.000405995269576,0.0,0.0,0.0,0.0,0.0,0.0,0.0,0.0,0.0,6.40084246366,0.00254617773915,7.1632567993,0.0,0.0,0.0,0.0,0.0,0.0,0.0,0.0,0.0
25004000000,241,25004000000,imu_link,0.000810129167523,-0.372545268789,6.52634796567e-05,0.928013664842,0.0,0.0,0.0,0.0,0.0,0.0,0.0,0.0,0.0,-0.000812972598257,-0.0132622790521,0.000317355802389,0.0,0.0,0.0,0.0,0.0,0.0,0.0,0.0,0.0,6.40231952724,0.00271020914026,7.15918220413,0.0,0.0,0.0,0.0,0.0,0.0,0.0,0.0,0.0
25008000000,242,25008000000,imu_link,0.00080906218133,-0.372569025791,6.52691446754e-05,0.92800412832,0.0,0.0,0.0,0.0,0.0,0.0,0.0,0.0,0.0,-0.000490945970838,-0.0127997673177,0.00021131325003,0.0,0.0,0.0,0.0,0.0,0.0,0.0,0.0,0.0,6.40262500969,0.00276681690388,7.15641879945,0.0,0.0,0.0,0.0,0.0,0.0,0.0,0.0,0.0
25012000000,243,25012000000,imu_link,0.00080894360442,-0.372592288064,6.53953885898e-05,0.927994788891,0.0,0.0,0.0,0.0,0.0,0.0,0.0,0.0,0.0,-2.84837097437e-05,-0.0125334785558,9.03815795484e-05,0.0,0.0,0.0,0.0,0.0,0.0,0.0,0.0,0.0,6.40377767492,0.00284501156605,7.15845307689,0.0,0.0,0.0,0.0,0.0,0.0,0.0,0.0,0.0
25016000000,244,25016000000,imu_link,0.000809716785294,-0.372615462132,6.56052223613e-05,0.927985483418,0.0,0.0,0.0,0.0,0.0,0.0,0.0,0.0,0.0,0.000400851196363,-0.0124862214285,-3.70007675194e-05,0.0,0.0,0.0,0.0,0.0,0.0,0.0,0.0,0.0,6.40504068069,0.00302598389865,7.1610662961,0.0,0.0,0.0,0.0,0.0,0.0,0.0,0.0,0.0
25020000000,245,25020000000,imu_link,0.000810832116482,-0.372638865789,6.58051552964e-05,0.92797608478,0.0,0.0,0.0,0.0,0.0,0.0,0.0,0.0,0.0,0.000557792043705,-0.0126101213685,-0.00010524392561,0.0,0.0,0.0,0.0,0.0,0.0,0.0,0.0,0.0,6.40685993918,0.00328297086129,7.16414197432,0.0,0.0,0.0,0.0,0.0,0.0,0.0,0.0,0.0
25024000000,246,25024000000,imu_link,0.000811841718199,-0.372662354252,6.59240898695e-05,0.927966651497,0.0,0.0,0.0,0.0,0.0,0.0,0.0,0.0,0.0,0.000493654520161,-0.0126559548944,-0.000123091220301,0.0,0.0,0.0,0.0,0.0,0.0,0.0,0.0,0.0,6.40871083928,0.00344161425336,7.16298038858,0.0,0.0,0.0,0.0,0.0,0.0,0.0,0.0,0.0
25028000000,247,25028000000,imu_link,0.000812470584948,-0.372685658535,6.59328843113e-05,0.927957291833,0.0,0.0,0.0,0.0,0.0,0.0,0.0,0.0,0.0,0.000296453490354,-0.0125568130164,-0.000103328799054,0.0,0.0,0.0,0.0,0.0,0.0,0.0,0.0,0.0,6.41011507778,0.00355104651503,7.15999907423,0.0,0.0,0.0,0.0,0.0,0.0,0.0,0.0,0.0
25032000000,248,25032000000,imu_link,0.000812655397392,-0.372708709275,6.58269399019e-05,0.927948033722,0.0,0.0,0.0,0.0,0.0,0.0,0.0,0.0,0.0,6.90081170856e-05,-0.0124202832412,-7.39251858906e-05,0.0,0.0,0.0,0.0,0.0,0.0,0.0,0.0,0.0,6.41019296454,0.00363586099129,7.15612804831,0.0,0.0,0.0,0.0,0.0,0.0,0.0,0.0,0.0
25036000000,249,25036000000,imu_link,0.00081238828321,-0.372731475092,6.55995691349e-05,0.927938889797,0.0,0.0,0.0,0.0,0.0,0.0,0.0,0.0,0.0,-0.00016333944451,-0.012266841122,-4.61648970769e-05,0.0,0.0,0.0,0.0,0.0,0.0,0.0,0.0,0.0,6.41045439986,0.00368632978867,7.15322512278,0.0,0.0,0.0,0.0,0.0,0.0,0.0,0.0,0.0
25040000000,250,25040000000,imu_link,0.000811685919802,-0.372753968572,6.52497404591e-05,0.927929855012,0.0,0.0,0.0,0.0,0.0,0.0,0.0,0.0,0.0,-0.000388139144139,-0.0121201810777,-2.19802830418e-05,0.0,0.0,0.0,0.0,0.0,0.0,0.0,0.0,0.0,6.41040640633,0.00372451955605,7.15015989845,0.0,0.0,0.0,0.0,0.0,0.0,0.0,0.0,0.0
25044000000,251,25044000000,imu_link,0.000810665652861,-0.372776245099,6.48163216155e-05,0.927920907033,0.0,0.0,0.0,0.0,0.0,0.0,0.0,0.0,0.0,-0.000551242669244,-0.0120033672295,-1.60416834285e-06,0.0,0.0,0.0,0.0,0.0,0.0,0.0,0.0,0.0,6.41181381524,0.0037442901175,7.15004296278,0.0,0.0,0.0,0.0,0.0,0.0,0.0,0.0,0.0
25048000000,252,25048000000,imu_link,0.000809422293916,-0.372798453252,6.43501299073e-05,0.9279119861,0.0,0.0,0.0,0.0,0.0,0.0,0.0,0.0,0.0,-0.000660865755853,-0.0119666092135,2.47436274383e-05,0.0,0.0,0.0,0.0,0.0,0.0,0.0,0.0,0.0,6.41327364428,0.00372729136328,7.15063565891,0.0,0.0,0.0,0.0,0.0,0.0,0.0,0.0,0.0
25052000000,253,25052000000,imu_link,0.000808050531305,-0.372820518802,6.38701639145e-05,0.927903121956,0.0,0.0,0.0,0.0,0.0,0.0,0.0,0.0,0.0,-0.000723025316763,-0.0118898638304,4.22277692991e-05,0.0,0.0,0.0,0.0,0.0,0.0,0.0,0.0,0.0,6.41399015799,0.00370947975704,7.14787239823,0.0,0.0,0.0,0.0,0.0,0.0,0.0,0.0,0.0
25056000000,254,25056000000,imu_link,0.000806785203242,-0.372842205022,6.33784771084e-05,0.927894409529,0.0,0.0,0.0,0.0,0.0,0.0,0.0,0.0,0.0,-0.000675878905908,-0.0116855996805,1.67912841707e-05,0.0,0.0,0.0,0.0,0.0,0.0,0.0,0.0,0.0,6.41607917929,0.003680060383,7.14659506806,0.0,0.0,0.0,0.0,0.0,0.0,0.0,0.0,0.0
25060000000,255,25060000000,imu_link,0.000805843192764,-0.372863267659,6.28939762121e-05,0.927885946812,0.0,0.0,0.0,0.0,0.0,0.0,0.0,0.0,0.0,-0.00052461798153,-0.0113497459473,-4.04075157168e-05,0.0,0.0,0.0,0.0,0.0,0.0,0.0,0.0,0.0,6.41734148637,0.00370189244184,7.14378738577,0.0,0.0,0.0,0.0,0.0,0.0,0.0,0.0,0.0
25064000000,256,25064000000,imu_link,0.000805372129262,-0.372883517936,6.24538562646e-05,0.927877809589,0.0,0.0,0.0,0.0,0.0,0.0,0.0,0.0,0.0,-0.000297957029741,-0.0109121722048,-0.000107954253673,0.0,0.0,0.0,0.0,0.0,0.0,0.0,0.0,0.0,6.41918388319,0.00376877081651,7.14242096431,0.0,0.0,0.0,0.0,0.0,0.0,0.0,0.0,0.0
25068000000,257,25068000000,imu_link,0.0008056414507,-0.372903015951,6.21164439879e-05,0.92786997353,0.0,0.0,0.0,0.0,0.0,0.0,0.0,0.0,0.0,6.45875633598e-05,-0.010507000861,-0.000198655169652,0.0,0.0,0.0,0.0,0.0,0.0,0.0,0.0,0.0,6.42098901581,0.00383369081295,7.14329601783,0.0,0.0,0.0,0.0,0.0,0.0,0.0,0.0,0.0
25072000000,258,25072000000,imu_link,0.000806757984537,-0.372921924237,6.19203048741e-05,0.92786237327,0.0,0.0,0.0,0.0,0.0,0.0,0.0,0.0,0.0,0.000483902961586,-0.0101894086244,-0.000291322514989,0.0,0.0,0.0,0.0,0.0,0.0,0.0,0.0,0.0,6.42158139507,0.00399255016321,7.14222850161,0.0,0.0,0.0,0.0,0.0,0.0,0.0,0.0,0.0
25076000000,259,25076000000,imu_link,0.000808645277908,-0.372940617924,6.18930175322e-05,0.927854858135,0.0,0.0,0.0,0.0,0.0,0.0,0.0,0.0,0.0,0.00087293891801,-0.0100739336585,-0.000356792676143,0.0,0.0,0.0,0.0,0.0,0.0,0.0,0.0,0.0,6.4231435649,0.00421811115297,7.14509624255,0.0,0.0,0.0,0.0,0.0,0.0,0.0,0.0,0.0
25080000000,260,25080000000,imu_link,0.000811055747909,-0.372959662939,6.20526143558e-05,0.927847200868,0.0,0.0,0.0,0.0,0.0,0.0,0.0,0.0,0.0,0.0011505498489,-0.0102633674848,-0.000367502445602,0.0,0.0,0.0,0.0,0.0,0.0,0.0,0.0,0.0,6.42556883352,0.00446857364664,7.15129464122,0.0,0.0,0.0,0.0,0.0,0.0,0.0,0.0,0.0
25084000000,261,25084000000,imu_link,0.000813777921978,-0.372979444671,6.24098119887e-05,0.927839246703,0.0,0.0,0.0,0.0,0.0,0.0,0.0,0.0,0.0,0.00133210283144,-0.0106604434116,-0.000333649317649,0.0,0.0,0.0,0.0,0.0,0.0,0.0,0.0,0.0,6.42786796905,0.00465093181392,7.15562619964,0.0,0.0,0.0,0.0,0.0,0.0,0.0,0.0,0.0
25088000000,262,25088000000,imu_link,0.000816644038809,-0.373000149308,6.29460251049e-05,0.927830920883,0.0,0.0,0.0,0.0,0.0,0.0,0.0,0.0,0.0,0.00143238767436,-0.0111578383294,-0.000277057250715,0.0,0.0,0.0,0.0,0.0,0.0,0.0,0.0,0.0,6.42930611198,0.00479566793952,7.15666438309,0.0,0.0,0.0,0.0,0.0,0.0,0.0,0.0,0.0
25092000000,263,25092000000,imu_link,0.000819368358179,-0.373022077231,6.36116504417e-05,0.927822102823,0.0,0.0,0.0,0.0,0.0,0.0,0.0,0.0,0.0,0.00139090352063,-0.0118170853183,-0.000190060696601,0.0,0.0,0.0,0.0,0.0,0.0,0.0,0.0,0.0,6.43055061481,0.00492881681775,7.15800141594,0.0,0.0,0.0,0.0,0.0,0.0,0.0,0.0,0.0
25096000000,264,25096000000,imu_link,0.00082172479997,-0.373045415918,6.43677111663e-05,0.927812717248,0.0,0.0,0.0,0.0,0.0,0.0,0.0,0.0,0.0,0.00123729587527,-0.0125773535538,-7.88974731236e-05,0.0,0.0,0.0,0.0,0.0,0.0,0.0,0.0,0.0,6.43178433139,0.00496282615933,7.15840628122,0.0,0.0,0.0,0.0,0.0,0.0,0.0,0.0,0.0
25100000000,265,25100000000,imu_link,0.000823871672126,-0.373070084443,6.51938961207e-05,0.927802796438,0.0,0.0,0.0,0.0,0.0,0.0,0.0,0.0,0.0,0.00115333205939,-0.013294071429,-6.71329536853e-06,0.0,0.0,0.0,0.0,0.0,0.0,0.0,0.0,0.0,6.43274647405,0.00485303444821,7.15618024043,0.0,0.0,0.0,0.0,0.0,0.0,0.0,0.0,0.0
25104000000,266,25104000000,imu_link,0.000826167352821,-0.373095628608,6.60940940708e-05,0.9277925226,0.0,0.0,0.0,0.0,0.0,0.0,0.0,0.0,0.0,0.00123628744749,-0.0137661087356,2.35645193398e-07,0.0,0.0,0.0,0.0,0.0,0.0,0.0,0.0,0.0,6.43510614865,0.00476970442541,7.15366221223,0.0,0.0,0.0,0.0,0.0,0.0,0.0,0.0,0.0
25108000000,267,25108000000,imu_link,0.000829155601659,-0.373121542919,6.71028933788e-05,0.927782098452,0.0,0.0,0.0,0.0,0.0,0.0,0.0,0.0,0.0,0.00157787642451,-0.0139658360818,-7.84237958459e-05,0.0,0.0,0.0,0.0,0.0,0.0,0.0,0.0,0.0,6.43769616959,0.00471204737598,7.15136999244,0.0,0.0,0.0,0.0,0.0,0.0,0.0,0.0,0.0
25112000000,268,25112000000,imu_link,0.000832787456729,-0.373147645346,6.8182921454e-05,0.92777159721,0.0,0.0,0.0,0.0,0.0,0.0,0.0,0.0,0.0,0.00188975373874,-0.0140674762357,-0.000165372508203,0.0,0.0,0.0,0.0,0.0,0.0,0.0,0.0,0.0,6.4372687538,0.00482790285066,7.14582147023,0.0,0.0,0.0,0.0,0.0,0.0,0.0,0.0,0.0
25116000000,269,25116000000,imu_link,0.000836539944004,-0.373174232618,6.92279047716e-05,0.927760899973,0.0,0.0,0.0,0.0,0.0,0.0,0.0,0.0,0.0,0.00193923995237,-0.0143289753633,-0.000203927516542,0.0,0.0,0.0,0.0,0.0,0.0,0.0,0.0,0.0,6.43905612729,0.00500316163343,7.14817343413,0.0,0.0,0.0,0.0,0.0,0.0,0.0,0.0,0.0
25120000000,270,25120000000,imu_link,0.000839645297852,-0.373201478911,7.01557686933e-05,0.927749937328,0.0,0.0,0.0,0.0,0.0,0.0,0.0,0.0,0.0,0.00161728263794,-0.0146842298664,-0.000137225319961,0.0,0.0,0.0,0.0,0.0,0.0,0.0,0.0,0.0,6.44137551072,0.00518710845271,7.15071497967,0.0,0.0,0.0,0.0,0.0,0.0,0.0,0.0,0.0
25124000000,271,25124000000,imu_link,0.000841509000088,-0.373229187631,7.09427652656e-05,0.927738788846,0.0,0.0,0.0,0.0,0.0,0.0,0.0,0.0,0.0,0.0010150873808,-0.0149334317209,2.9323608596e-05,0.0,0.0,0.0,0.0,0.0,0.0,0.0,0.0,0.0,6.44292312831,0.00526320067205,7.14892170279,0.0,0.0,0.0,0.0,0.0,0.0,0.0,0.0,0.0
25128000000,272,25128000000,imu_link,0.000841917581643,-0.373256834193,7.15892246637e-05,0.927727665739,0.0,0.0,0.0,0.0,0.0,0.0,0.0,0.0,0.0,0.000313866672618,-0.0148998706988,0.000235652415981,0.0,0.0,0.0,0.0,0.0,0.0,0.0,0.0,0.0,6.44476432337,0.00518983784607,7.14483456855,0.0,0.0,0.0,0.0,0.0,0.0,0.0,0.0,0.0
25132000000,273,25132000000,imu_link,0.000841097819811,-0.373283879159,7.21200341216e-05,0.927716784861,0.0,0.0,0.0,0.0,0.0,0.0,0.0,0.0,0.0,-0.000277581399692,-0.014575609812,0.000410988455987,0.0,0.0,0.0,0.0,0.0,0.0,0.0,0.0,0.0,6.44629136778,0.00502058322855,7.1402000255,0.0,0.0,0.0,0.0,0.0,0.0,0.0,0.0,0.0
25136000000,274,25136000000,imu_link,0.000839565326095,-0.373310171315,7.25959120467e-05,0.927706206648,0.0,0.0,0.0,0.0,0.0,0.0,0.0,0.0,0.0,-0.000618540732104,-0.014169920011,0.000518206157022,0.0,0.0,0.0,0.0,0.0,0.0,0.0,0.0,0.0,6.44662300718,0.00484347661711,7.13664034288,0.0,0.0,0.0,0.0,0.0,0.0,0.0,0.0,0.0
25140000000,275,25140000000,imu_link,0.000837801045239,-0.373335717987,7.30872255473e-05,0.927695927782,0.0,0.0,0.0,0.0,0.0,0.0,0.0,0.0,0.0,-0.000723273389289,-0.0137682353013,0.000568306438266,0.0,0.0,0.0,0.0,0.0,0.0,0.0,0.0,0.0,6.44701445245,0.00469036526668,7.13442819516,0.0,0.0,0.0,0.0,0.0,0.0,0.0,0.0,0.0
25144000000,276,25144000000,imu_link,0.00083632531956,-0.373360703468,7.36644386852e-05,0.927685873687,0.0,0.0,0.0,0.0,0.0,0.0,0.0,0.0,0.0,-0.000573466605189,-0.013465945438,0.000554043536177,0.0,0.0,0.0,0.0,0.0,0.0,0.0,0.0,0.0,6.4488873938,0.00454752850209,7.13684389746,0.0,0.0,0.0,0.0,0.0,0.0,0.0,0.0,0.0
25148000000,277,25148000000,imu_link,0.000835421152437,-0.373385225396,7.4332703271e-05,0.927676004865,0.0,0.0,0.0,0.0,0.0,0.0,0.0,0.0,0.0,-0.000291416090106,-0.0132163255447,0.000489377690089,0.0,0.0,0.0,0.0,0.0,0.0,0.0,0.0,0.0,6.44995048483,0.00454050053651,7.13704157237,0.0,0.0,0.0,0.0,0.0,0.0,0.0,0.0,0.0
25152000000,278,25152000000,imu_link,0.000835174477882,-0.373409338379,7.51127615376e-05,0.927666299298,0.0,0.0,0.0,0.0,0.0,0.0,0.0,0.0,0.0,3.43720092764e-05,-0.0129961405266,0.000418305954049,0.0,0.0,0.0,0.0,0.0,0.0,0.0,0.0,0.0,6.44899146448,0.0046262129923,7.13259045869,0.0,0.0,0.0,0.0,0.0,0.0,0.0,0.0,0.0
25156000000,279,25156000000,imu_link,0.00083542512668,-0.373432849904,7.60153756243e-05,0.927656834664,0.0,0.0,0.0,0.0,0.0,0.0,0.0,0.0,0.0,0.00028785078869,-0.0126721482074,0.000382038603798,0.0,0.0,0.0,0.0,0.0,0.0,0.0,0.0,0.0,6.44927620456,0.00476748314688,7.12871801248,0.0,0.0,0.0,0.0,0.0,0.0,0.0,0.0,0.0
25160000000,280,25160000000,imu_link,0.000835805907157,-0.373455709861,7.70303916344e-05,0.927647631521,0.0,0.0,0.0,0.0,0.0,0.0,0.0,0.0,0.0,0.000369112381006,-0.0123210663902,0.000409593982011,0.0,0.0,0.0,0.0,0.0,0.0,0.0,0.0,0.0,6.44982241621,0.00491314143885,7.12660330488,0.0,0.0,0.0,0.0,0.0,0.0,0.0,0.0,0.0
25164000000,281,25164000000,imu_link,0.000835952957467,-0.373477998813,7.81269392253e-05,0.92763865782,0.0,0.0,0.0,0.0,0.0,0.0,0.0,0.0,0.0,0.000275853088611,-0.0120133342328,0.000490806741656,0.0,0.0,0.0,0.0,0.0,0.0,0.0,0.0,0.0,6.45028750642,0.00504754357613,7.125304051,0.0,0.0,0.0,0.0,0.0,0.0,0.0,0.0,0.0
25168000000,282,25168000000,imu_link,0.000835674621092,-0.373499887866,7.92544041784e-05,0.92762984489,0.0,0.0,0.0,0.0,0.0,0.0,0.0,0.0,0.0,8.42724212875e-05,-0.0117978014357,0.000584409667238,0.0,0.0,0.0,0.0,0.0,0.0,0.0,0.0,0.0,6.45121769346,0.00514995099402,7.12566660991,0.0,0.0,0.0,0.0,0.0,0.0,0.0,0.0,0.0
25172000000,283,25172000000,imu_link,0.000834922425159,-0.373521555838,8.03873027171e-05,0.927621120807,0.0,0.0,0.0,0.0,0.0,0.0,0.0,0.0,0.0,-0.000134524353515,-0.0116786472817,0.000675327194245,0.0,0.0,0.0,0.0,0.0,0.0,0.0,0.0,0.0,6.45112839487,0.00517944500272,7.12395786467,0.0,0.0,0.0,0.0,0.0,0.0,0.0,0.0,0.0
25176000000,284,25176000000,imu_link,0.000833719356757,-0.373543045962,8.15284941241e-05,0.927612468156,0.0,0.0,0.0,0.0,0.0,0.0,0.0,0.0,0.0,-0.000342117655352,-0.0115827979642,0.000763301692127,0.0,0.0,0.0,0.0,0.0,0.0,0.0,0.0,0.0,6.45043708416,0.00517580662099,7.11992251621,0.0,0.0,0.0,0.0,0.0,0.0,0.0,0.0,0.0
25180000000,285,25180000000,imu_link,0.000832188231068,-0.373564344712,8.26805401435e-05,0.927603892287,0.0,0.0,0.0,0.0,0.0,0.0,0.0,0.0,0.0,-0.000492269543672,-0.0114796780113,0.000829524981224,0.0,0.0,0.0,0.0,0.0,0.0,0.0,0.0,0.0,6.45128047077,0.00516224426504,7.11833506011,0.0,0.0,0.0,0.0,0.0,0.0,0.0,0.0,0.0
25184000000,286,25184000000,imu_link,0.000830592652403,-0.373585413958,8.38400697219e-05,0.927595408335,0.0,0.0,0.0,0.0,0.0,0.0,0.0,0.0,0.0,-0.000520793922565,-0.01135606017,0.000844935242977,0.0,0.0,0.0,0.0,0.0,0.0,0.0,0.0,0.0,6.45272235987,0.0051324424428,7.1176531172,0.0,0.0,0.0,0.0,0.0,0.0,0.0,0.0,0.0
25188000000,287,25188000000,imu_link,0.000829381916084,-0.373606341526,8.50335646488e-05,0.927586980539,0.0,0.0,0.0,0.0,0.0,0.0,0.0,0.0,0.0,-0.000335977828809,-0.0112798624356,0.000788741357396,0.0,0.0,0.0,0.0,0.0,0.0,0.0,0.0,0.0,6.45436306546,0.00507529303928,7.11863918207,0.0,0.0,0.0,0.0,0.0,0.0,0.0,0.0,0.0
25192000000,288,25192000000,imu_link,0.000829052376757,-0.373627369548,8.6311874556e-05,0.927578510934,0.0,0.0,0.0,0.0,0.0,0.0,0.0,0.0,0.0,8.85723743085e-05,-0.0113342643383,0.000663511035387,0.0,0.0,0.0,0.0,0.0,0.0,0.0,0.0,0.0,6.45545749679,0.00501586077777,7.1197796216,0.0,0.0,0.0,0.0,0.0,0.0,0.0,0.0,0.0
25196000000,289,25196000000,imu_link,0.000829984612926,-0.373648682539,8.77130083732e-05,0.92756992484,0.0,0.0,0.0,0.0,0.0,0.0,0.0,0.0,0.0,0.000696751468843,-0.0114881957951,0.000484881670315,0.0,0.0,0.0,0.0,0.0,0.0,0.0,0.0,0.0,6.45631889101,0.00507437787857,7.11992610981,0.0,0.0,0.0,0.0,0.0,0.0,0.0,0.0,0.0
25200000000,290,25200000000,imu_link,0.000832176209831,-0.373670440193,8.92626561316e-05,0.927561157898,0.0,0.0,0.0,0.0,0.0,0.0,0.0,0.0,0.0,0.00130862560919,-0.0117282040758,0.000318673425958,0.0,0.0,0.0,0.0,0.0,0.0,0.0,0.0,0.0,6.45672605437,0.00526419519492,7.11882324351,0.0,0.0,0.0,0.0,0.0,0.0,0.0,0.0,0.0
25204000000,291,25204000000,imu_link,0.000835347800045,-0.373692902776,9.09429331572e-05,0.927552105457,0.0,0.0,0.0,0.0,0.0,0.0,0.0,0.0,0.0,0.00178762095181,-0.0121084665056,0.000196465531847,0.0,0.0,0.0,0.0,0.0,0.0,0.0,0.0,0.0,6.45789468856,0.00549268701022,7.12008603349,0.0,0.0,0.0,0.0,0.0,0.0,0.0,0.0,0.0
25208000000,292,25208000000,imu_link,0.000839241798638,-0.373716128064,9.27279621237e-05,0.927542744406,0.0,0.0,0.0,0.0,0.0,0.0,0.0,0.0,0.0,0.00214232340472,-0.0125198435667,0.000110400126937,0.0,0.0,0.0,0.0,0.0,0.0,0.0,0.0,0.0,6.45898072352,0.00568510701409,7.11913669071,0.0,0.0,0.0,0.0,0.0,0.0,0.0,0.0,0.0
25212000000,293,25212000000,imu_link,0.000843579994912,-0.373740146642,9.45941625128e-05,0.927533062598,0.0,0.0,0.0,0.0,0.0,0.0,0.0,0.0,0.0,0.00236359492361,-0.0129476707799,6.5390942537e-05,0.0,0.0,0.0,0.0,0.0,0.0,0.0,0.0,0.0,6.45952017413,0.00585748055106,7.11701370364,0.0,0.0,0.0,0.0,0.0,0.0,0.0,0.0,0.0
25216000000,294,25216000000,imu_link,0.000848018058159,-0.373764966039,9.65218967816e-05,0.927523057239,0.0,0.0,0.0,0.0,0.0,0.0,0.0,0.0,0.0,0.00242150731787,-0.0133795043656,7.56192282699e-05,0.0,0.0,0.0,0.0,0.0,0.0,0.0,0.0,0.0,6.46095931781,0.0060255028445,7.11673678716,0.0,0.0,0.0,0.0,0.0,0.0,0.0,0.0,0.0
25220000000,295,25220000000,imu_link,0.000852411720112,-0.373790646625,9.8541709717e-05,0.927512704053,0.0,0.0,0.0,0.0,0.0,0.0,0.0,0.0,0.0,0.00241822951629,-0.0138438524791,0.000127001533948,0.0,0.0,0.0,0.0,0.0,0.0,0.0,0.0,0.0,6.4618616768,0.00609436152628,7.11595312013,0.0,0.0,0.0,0.0,0.0,0.0,0.0,0.0,0.0
25224000000,296,25224000000,imu_link,0.000856602779452,-0.3738173065,0.000100657612976,0.927501955503,0.0,0.0,0.0,0.0,0.0,0.0,0.0,0.0,0.0,0.00234235035561,-0.0143718449091,0.000209866371771,0.0,0.0,0.0,0.0,0.0,0.0,0.0,0.0,0.0,6.46326295513,0.00614210180681,7.11664284632,0.0,0.0,0.0,0.0,0.0,0.0,0.0,0.0,0.0
25228000000,297,25228000000,imu_link,0.000860621531082,-0.373844814701,0.0001028729525,0.927490864251,0.0,0.0,0.0,0.0,0.0,0.0,0.0,0.0,0.0,0.0022811320694,-0.0148292594424,0.000288566425592,0.0,0.0,0.0,0.0,0.0,0.0,0.0,0.0,0.0,6.46430539197,0.00614008134108,7.11438280059,0.0,0.0,0.0,0.0,0.0,0.0,0.0,0.0,0.0
25232000000,298,25232000000,imu_link,0.000864475178634,-0.37387300838,0.00010518501928,0.927479495851,0.0,0.0,0.0,0.0,0.0,0.0,0.0,0.0,0.0,0.00222273030032,-0.015198902199,0.000364594125029,0.0,0.0,0.0,0.0,0.0,0.0,0.0,0.0,0.0,6.46553863011,0.00609976857895,7.11231493408,0.0,0.0,0.0,0.0,0.0,0.0,0.0,0.0,0.0
25236000000,299,25236000000,imu_link,0.000868254459885,-0.373901771359,0.000107601575819,0.927467896981,0.0,0.0,0.0,0.0,0.0,0.0,0.0,0.0,0.0,0.00220784631741,-0.0155059428373,0.000427210149078,0.0,0.0,0.0,0.0,0.0,0.0,0.0,0.0,0.0,6.46618501078,0.00597622388679,7.10954332443,0.0,0.0,0.0,0.0,0.0,0.0,0.0,0.0,0.0
25240000000,300,25240000000,imu_link,0.000872017731079,-0.373930792848,0.000110088153328,0.927456192834,0.0,0.0,0.0,0.0,0.0,0.0,0.0,0.0,0.0,0.00221354418853,-0.0156454732453,0.000462792234821,0.0,0.0,0.0,0.0,0.0,0.0,0.0,0.0,0.0,6.46774980851,0.005908789489,7.10710166151,0.0,0.0,0.0,0.0,0.0,0.0,0.0,0.0,0.0
25244000000,301,25244000000,imu_link,0.000875597020822,-0.373959645005,0.000112603854958,0.927444556056,0.0,0.0,0.0,0.0,0.0,0.0,0.0,0.0,0.0,0.00213365197091,-0.0155543308085,0.000510618534806,0.0,0.0,0.0,0.0,0.0,0.0,0.0,0.0,0.0,6.46876483367,0.00590423196332,7.10256740499,0.0,0.0,0.0,0.0,0.0,0.0,0.0,0.0,0.0
25248000000,302,25248000000,imu_link,0.000878847174275,-0.373987837782,0.000115109663253,0.927433184423,0.0,0.0,0.0,0.0,0.0,0.0,0.0,0.0,0.0,0.00197909533059,-0.0151989705426,0.000567269015796,0.0,0.0,0.0,0.0,0.0,0.0,0.0,0.0,0.0,6.4713844646,0.00588244970363,7.10058159754,0.0,0.0,0.0,0.0,0.0,0.0,0.0,0.0,0.0
25252000000,303,25252000000,imu_link,0.000881526562699,-0.374015060635,0.000117583884456,0.927422203477,0.0,0.0,0.0,0.0,0.0,0.0,0.0,0.0,0.0,0.00170839966846,-0.0146761259487,0.00065890245384,0.0,0.0,0.0,0.0,0.0,0.0,0.0,0.0,0.0,6.47291915155,0.00584554608901,7.09817703906,0.0,0.0,0.0,0.0,0.0,0.0,0.0,0.0,0.0
25256000000,304,25256000000,imu_link,0.000883475838204,-0.374041141519,0.000120026654933,0.927411682865,0.0,0.0,0.0,0.0,0.0,0.0,0.0,0.0,0.0,0.00136382092035,-0.0140604671399,0.000780324614352,0.0,0.0,0.0,0.0,0.0,0.0,0.0,0.0,0.0,6.47405557765,0.00580358576413,7.09616088779,0.0,0.0,0.0,0.0,0.0,0.0,0.0,0.0,0.0
25260000000,305,25260000000,imu_link,0.000884483244447,-0.374066086744,0.000122421334886,0.927401620362,0.0,0.0,0.0,0.0,0.0,0.0,0.0,0.0,0.0,0.000917942514946,-0.0134481440032,0.000933644528316,0.0,0.0,0.0,0.0,0.0,0.0,0.0,0.0,0.0,6.47441052809,0.00580094693333,7.09420287073,0.0,0.0,0.0,0.0,0.0,0.0,0.0,0.0,0.0
25264000000,306,25264000000,imu_link,0.000884423984599,-0.374089835708,0.000124772332875,0.927392040642,0.0,0.0,0.0,0.0,0.0,0.0,0.0,0.0,0.0,0.000415018330391,-0.0128030946183,0.00111233238375,0.0,0.0,0.0,0.0,0.0,0.0,0.0,0.0,0.0,6.47423374275,0.00574318089169,7.09076856504,0.0,0.0,0.0,0.0,0.0,0.0,0.0,0.0,0.0
25268000000,307,25268000000,imu_link,0.000883282512503,-0.37411234665,0.000127108818622,0.927382960669,0.0,0.0,0.0,0.0,0.0,0.0,0.0,0.0,0.0,-8.96573822606e-05,-0.0121354927289,0.0013074467706,0.0,0.0,0.0,0.0,0.0,0.0,0.0,0.0,0.0,6.47565896601,0.00563625803499,7.09055014657,0.0,0.0,0.0,0.0,0.0,0.0,0.0,0.0,0.0
25272000000,308,25272000000,imu_link,0.000881186353967,-0.374133480511,0.000129455536306,0.927374436521,0.0,0.0,0.0,0.0,0.0,0.0,0.0,0.0,0.0,-0.000530581359248,-0.0113929164003,0.00149012772388,0.0,0.0,0.0,0.0,0.0,0.0,0.0,0.0,0.0,6.47570992193,0.00549878006896,7.08683496429,0.0,0.0,0.0,0.0,0.0,0.0,0.0,0.0,0.0
25276000000,309,25276000000,imu_link,0.000878319900012,-0.374153284454,0.000131823537458,0.927366449096,0.0,0.0,0.0,0.0,0.0,0.0,0.0,0.0,0.0,-0.000883926464497,-0.0106757876799,0.00164347255514,0.0,0.0,0.0,0.0,0.0,0.0,0.0,0.0,0.0,6.47689704363,0.00534266292602,7.08702889145,0.0,0.0,0.0,0.0,0.0,0.0,0.0,0.0,0.0
25280000000,310,25280000000,imu_link,0.000874730107957,-0.374172005443,0.000134225203645,0.927358898795,0.0,0.0,0.0,0.0,0.0,0.0,0.0,0.0,0.0,-0.00121314885332,-0.0100918023497,0.00179389772828,0.0,0.0,0.0,0.0,0.0,0.0,0.0,0.0,0.0,6.47841895732,0.00522427726528,7.0894953894,0.0,0.0,0.0,0.0,0.0,0.0,0.0,0.0,0.0
25284000000,311,25284000000,imu_link,0.000870221316722,-0.374189996817,0.000136576880701,0.927351643307,0.0,0.0,0.0,0.0,0.0,0.0,0.0,0.0,0.0,-0.00164870212845,-0.00969829931923,0.00194231178519,0.0,0.0,0.0,0.0,0.0,0.0,0.0,0.0,0.0,6.47999505015,0.00510977866995,7.09301727526,0.0,0.0,0.0,0.0,0.0,0.0,0.0,0.0,0.0
25288000000,312,25288000000,imu_link,0.000864632987174,-0.374207564039,0.000138815652221,0.927344559566,0.0,0.0,0.0,0.0,0.0,0.0,0.0,0.0,0.0,-0.00217042776837,-0.00946947311166,0.00209174015556,0.0,0.0,0.0,0.0,0.0,0.0,0.0,0.0,0.0,6.48080481429,0.00499464239446,7.09465625906,0.0,0.0,0.0,0.0,0.0,0.0,0.0,0.0,0.0
25292000000,313,25292000000,imu_link,0.000858096947125,-0.374225074379,0.00014092573894,0.92733749925,0.0,0.0,0.0,0.0,0.0,0.0,0.0,0.0,0.0,-0.00263393844932,-0.00943870486366,0.00220936658251,0.0,0.0,0.0,0.0,0.0,0.0,0.0,0.0,0.0,6.48221824725,0.00482326441407,7.09795159145,0.0,0.0,0.0,0.0,0.0,0.0,0.0,0.0,0.0
25296000000,314,25296000000,imu_link,0.00085100423418,-0.374242993133,0.000142930671259,0.927330274203,0.0,0.0,0.0,0.0,0.0,0.0,0.0,0.0,0.0,-0.00291168408119,-0.00965890354343,0.00226495708842,0.0,0.0,0.0,0.0,0.0,0.0,0.0,0.0,0.0,6.4836710322,0.00463205942071,7.10199591661,0.0,0.0,0.0,0.0,0.0,0.0,0.0,0.0,0.0
25300000000,315,25300000000,imu_link,0.000843736255885,-0.374261603277,0.000144862058163,0.927322769825,0.0,0.0,0.0,0.0,0.0,0.0,0.0,0.0,0.0,-0.00300664099727,-0.0100317641644,0.00226396670846,0.0,0.0,0.0,0.0,0.0,0.0,0.0,0.0,0.0,6.4849585901,0.00455316149074,7.10377389094,0.0,0.0,0.0,0.0,0.0,0.0,0.0,0.0,0.0
25304000000,316,25304000000,imu_link,0.000836327068884,-0.374280856165,0.000146730076208,0.927315005667,0.0,0.0,0.0,0.0,0.0,0.0,0.0,0.0,0.0,-0.00308390924821,-0.0103784090764,0.00226129948287,0.0,0.0,0.0,0.0,0.0,0.0,0.0,0.0,0.0,6.48560687501,0.00463137603322,7.10149900574,0.0,0.0,0.0,0.0,0.0,0.0,0.0,0.0,0.0
25308000000,317,25308000000,imu_link,0.00082839797728,-0.374300590045,0.000148519330443,0.92730704731,0.0,0.0,0.0,0.0,0.0,0.0,0.0,0.0,0.0,-0.0033396608923,-0.0106377617468,0.00232229060222,0.0,0.0,0.0,0.0,0.0,0.0,0.0,0.0,0.0,6.48726647851,0.00477350831615,7.10033123944,0.0,0.0,0.0,0.0,0.0,0.0,0.0,0.0,0.0
25312000000,318,25312000000,imu_link,0.000819443163988,-0.374320609988,0.00015020092293,0.927298973843,0.0,0.0,0.0,0.0,0.0,0.0,0.0,0.0,0.0,-0.00383536285986,-0.010791907525,0.0024644640055,0.0,0.0,0.0,0.0,0.0,0.0,0.0,0.0,0.0,6.48858078197,0.00486723107444,7.09837588456,0.0,0.0,0.0,0.0,0.0,0.0,0.0,0.0,0.0
25316000000,319,25316000000,imu_link,0.00080911390001,-0.37434081094,0.000151767804244,0.927290827932,0.0,0.0,0.0,0.0,0.0,0.0,0.0,0.0,0.0,-0.00449407950546,-0.0108893345076,0.00266860044179,0.0,0.0,0.0,0.0,0.0,0.0,0.0,0.0,0.0,6.49003859045,0.00485459056718,7.09753796352,0.0,0.0,0.0,0.0,0.0,0.0,0.0,0.0,0.0
25320000000,320,25320000000,imu_link,0.000797465440396,-0.374361165244,0.000153214215055,0.927282620635,0.0,0.0,0.0,0.0,0.0,0.0,0.0,0.0,0.0,-0.0051282538286,-0.010971873491,0.0028597259262,0.0,0.0,0.0,0.0,0.0,0.0,0.0,0.0,0.0,6.49026988176,0.0047345396082,7.09479713698,0.0,0.0,0.0,0.0,0.0,0.0,0.0,0.0,0.0
25324000000,321,25324000000,imu_link,0.000784987004171,-0.374381620925,0.000154573017468,0.927274372457,0.0,0.0,0.0,0.0,0.0,0.0,0.0,0.0,0.0,-0.00552945532864,-0.0110265000816,0.00297450611377,0.0,0.0,0.0,0.0,0.0,0.0,0.0,0.0,0.0,6.49187035769,0.00452146721867,7.09458664405,0.0,0.0,0.0,0.0,0.0,0.0,0.0,0.0,0.0
25328000000,322,25328000000,imu_link,0.000772335783677,-0.37440208267,0.000155873948603,0.927266121291,0.0,0.0,0.0,0.0,0.0,0.0,0.0,0.0,0.0,-0.00562039680792,-0.0110298796639,0.00298002107446,0.0,0.0,0.0,0.0,0.0,0.0,0.0,0.0,0.0,6.49379368491,0.00433013967174,7.09463070368,0.0,0.0,0.0,0.0,0.0,0.0,0.0,0.0,0.0
25332000000,323,25332000000,imu_link,0.000760133870621,-0.374422343595,0.00015713878013,0.927257950152,0.0,0.0,0.0,0.0,0.0,0.0,0.0,0.0,0.0,-0.00541885616252,-0.010921841299,0.00287908949619,0.0,0.0,0.0,0.0,0.0,0.0,0.0,0.0,0.0,6.49504162844,0.00424915490221,7.09267612961,0.0,0.0,0.0,0.0,0.0,0.0,0.0,0.0,0.0
25336000000,324,25336000000,imu_link,0.00074868642054,-0.374442118963,0.000158384916078,0.927249973809,0.0,0.0,0.0,0.0,0.0,0.0,0.0,0.0,0.0,-0.00507260117297,-0.0106603211117,0.00272897793716,0.0,0.0,0.0,0.0,0.0,0.0,0.0,0.0,0.0,6.49711287167,0.00431066317718,7.09139916887,0.0,0.0,0.0,0.0,0.0,0.0,0.0,0.0,0.0
25340000000,325,25340000000,imu_link,0.000737982465011,-0.374461226888,0.000159602190775,0.92724226579,0.0,0.0,0.0,0.0,0.0,0.0,0.0,0.0,0.0,-0.00473334954394,-0.0103007112889,0.00257612819958,0.0,0.0,0.0,0.0,0.0,0.0,0.0,0.0,0.0,6.49696985616,0.0044572316576,7.08685547559,0.0,0.0,0.0,0.0,0.0,0.0,0.0,0.0,0.0
25344000000,326,25344000000,imu_link,0.000727911969786,-0.374479677433,0.000160747922933,0.927234822197,0.0,0.0,0.0,0.0,0.0,0.0,0.0,0.0,0.0,-0.00445310402408,-0.009946504848,0.00242409273665,0.0,0.0,0.0,0.0,0.0,0.0,0.0,0.0,0.0,6.49785785551,0.00467942662229,7.0860069824,0.0,0.0,0.0,0.0,0.0,0.0,0.0,0.0,0.0
25348000000,327,25348000000,imu_link,0.000718360641366,-0.374497662595,0.000161775555191,0.927227565648,0.0,0.0,0.0,0.0,0.0,0.0,0.0,0.0,0.0,-0.00423455293185,-0.00969580752621,0.00227194644519,0.0,0.0,0.0,0.0,0.0,0.0,0.0,0.0,0.0,6.4990901906,0.00490107267521,7.08755312362,0.0,0.0,0.0,0.0,0.0,0.0,0.0,0.0,0.0
25352000000,328,25352000000,imu_link,0.000709309987593,-0.37451544904,0.000162678740965,0.927220388498,0.0,0.0,0.0,0.0,0.0,0.0,0.0,0.0,0.0,-0.00402574816811,-0.00958889743315,0.0021204228002,0.0,0.0,0.0,0.0,0.0,0.0,0.0,0.0,0.0,6.50091342559,0.00513813958815,7.09077200477,0.0,0.0,0.0,0.0,0.0,0.0,0.0,0.0,0.0
25356000000,329,25356000000,imu_link,0.000700830653804,-0.374533027127,0.000163456015162,0.927213294615,0.0,0.0,0.0,0.0,0.0,0.0,0.0,0.0,0.0,-0.00378446889778,-0.00947679940368,0.00195498416104,0.0,0.0,0.0,0.0,0.0,0.0,0.0,0.0,0.0,6.50088771621,0.00531412824797,7.08802368564,0.0,0.0,0.0,0.0,0.0,0.0,0.0,0.0,0.0
25360000000,330,25360000000,imu_link,0.000693105289529,-0.374550122912,0.000164111205317,0.927206394553,0.0,0.0,0.0,0.0,0.0,0.0,0.0,0.0,0.0,-0.00345781437261,-0.00921700934919,0.00175700709851,0.0,0.0,0.0,0.0,0.0,0.0,0.0,0.0,0.0,6.50248599568,0.00546358390113,7.08639654998,0.0,0.0,0.0,0.0,0.0,0.0,0.0,0.0,0.0
25364000000,331,25364000000,imu_link,0.000686191022702,-0.374566538712,0.00016465616693,0.927199768177,0.0,0.0,0.0,0.0,0.0,0.0,0.0,0.0,0.0,-0.00310246910874,-0.00885061587196,0.00155374836137,0.0,0.0,0.0,0.0,0.0,0.0,0.0,0.0,0.0,6.50306683087,0.00564698360356,7.08314924123,0.0,0.0,0.0,0.0,0.0,0.0,0.0,0.0,0.0
25368000000,332,25368000000,imu_link,0.000679809490404,-0.37458219308,0.000165102479476,0.927193448655,0.0,0.0,0.0,0.0,0.0,0.0,0.0,0.0,0.0,-0.00287401135565,-0.00844022552055,0.00140795589488,0.0,0.0,0.0,0.0,0.0,0.0,0.0,0.0,0.0,6.50417559474,0.00588345789874,7.08175532387,0.0,0.0,0.0,0.0,0.0,0.0,0.0,0.0,0.0
25372000000,333,25372000000,imu_link,0.000673607745695,-0.374597312464,0.000165404854828,0.927187344817,0.0,0.0,0.0,0.0,0.0,0.0,0.0,0.0,0.0,-0.00281764972201,-0.00815187680698,0.00130735481963,0.0,0.0,0.0,0.0,0.0,0.0,0.0,0.0,0.0,6.50501943181,0.00604815986832,7.08269516422,0.0,0.0,0.0,0.0,0.0,0.0,0.0,0.0,0.0
25376000000,334,25376000000,imu_link,0.000667491274538,-0.374612324609,0.00016553356985,0.927181283949,0.0,0.0,0.0,0.0,0.0,0.0,0.0,0.0,0.0,-0.00281064939271,-0.00809417834581,0.00121083569544,0.0,0.0,0.0,0.0,0.0,0.0,0.0,0.0,0.0,6.50676156035,0.00610951595175,7.08682983504,0.0,0.0,0.0,0.0,0.0,0.0,0.0,0.0,0.0
25380000000,335,25380000000,imu_link,0.00066176685875,-0.374627473573,0.0001655531709,0.927175167215,0.0,0.0,0.0,0.0,0.0,0.0,0.0,0.0,0.0,-0.00264932659093,-0.00816813994673,0.0010868673797,0.0,0.0,0.0,0.0,0.0,0.0,0.0,0.0,0.0,6.50769178127,0.00608762099453,7.08787543789,0.0,0.0,0.0,0.0,0.0,0.0,0.0,0.0,0.0
25384000000,336,25384000000,imu_link,0.000656638621864,-0.37464270755,0.000165498106271,0.927169015399,0.0,0.0,0.0,0.0,0.0,0.0,0.0,0.0,0.0,-0.00238692679026,-0.00821419582853,0.000940611832643,0.0,0.0,0.0,0.0,0.0,0.0,0.0,0.0,0.0,6.50821590473,0.00611924180173,7.08553790891,0.0,0.0,0.0,0.0,0.0,0.0,0.0,0.0,0.0
25388000000,337,25388000000,imu_link,0.000652176613276,-0.374657786313,0.000165381421711,0.927162925526,0.0,0.0,0.0,0.0,0.0,0.0,0.0,0.0,0.0,-0.00208962389533,-0.00813071306983,0.000787190915375,0.0,0.0,0.0,0.0,0.0,0.0,0.0,0.0,0.0,6.51016963727,0.00621365679525,7.08439867233,0.0,0.0,0.0,0.0,0.0,0.0,0.0,0.0,0.0
25392000000,338,25392000000,imu_link,0.000648036081634,-0.374672507029,0.000165178103274,0.927156979827,0.0,0.0,0.0,0.0,0.0,0.0,0.0,0.0,0.0,-0.00195683957672,-0.00793777615679,0.000686678458768,0.0,0.0,0.0,0.0,0.0,0.0,0.0,0.0,0.0,6.51142118318,0.00644083817218,7.08240183602,0.0,0.0,0.0,0.0,0.0,0.0,0.0,0.0,0.0
25396000000,339,25396000000,imu_link,0.000643559823221,-0.374686967251,0.000164853343291,0.927151139365,0.0,0.0,0.0,0.0,0.0,0.0,0.0,0.0,0.0,-0.00213523827549,-0.00779731381996,0.000693181469141,0.0,0.0,0.0,0.0,0.0,0.0,0.0,0.0,0.0,6.51317691091,0.00672346803447,7.08424616886,0.0,0.0,0.0,0.0,0.0,0.0,0.0,0.0,0.0
25400000000,340,25400000000,imu_link,0.000638364925693,-0.374701568759,0.000164377021776,0.927145242041,0.0,0.0,0.0,0.0,0.0,0.0,0.0,0.0,0.0,-0.00249676922647,-0.00787345284048,0.00075760375168,0.0,0.0,0.0,0.0,0.0,0.0,0.0,0.0,0.0,6.51368309386,0.00682596572401,7.0860172791,0.0,0.0,0.0,0.0,0.0,0.0,0.0,0.0,0.0
25404000000,341,25404000000,imu_link,0.000632454680637,-0.374716424713,0.000163758355977,0.927139242096,0.0,0.0,0.0,0.0,0.0,0.0,0.0,0.0,0.0,-0.00285504122643,-0.0080106196475,0.000825727407564,0.0,0.0,0.0,0.0,0.0,0.0,0.0,0.0,0.0,6.51430723482,0.00678992566083,7.08554983145,0.0,0.0,0.0,0.0,0.0,0.0,0.0,0.0,0.0
25408000000,342,25408000000,imu_link,0.000625889176577,-0.374731411464,0.00016300435126,0.927133189437,0.0,0.0,0.0,0.0,0.0,0.0,0.0,0.0,0.0,-0.0031841502917,-0.008081118488,0.000885802229964,0.0,0.0,0.0,0.0,0.0,0.0,0.0,0.0,0.0,6.51444209166,0.00674948424014,7.08196618852,0.0,0.0,0.0,0.0,0.0,0.0,0.0,0.0,0.0
25412000000,343,25412000000,imu_link,0.00061857593847,-0.374746396544,0.000162095980176,0.92712713765,0.0,0.0,0.0,0.0,0.0,0.0,0.0,0.0,0.0,-0.00355969791793,-0.00808016820169,0.000954342263092,0.0,0.0,0.0,0.0,0.0,0.0,0.0,0.0,0.0,6.5143623987,0.00676054645145,7.0778971737,0.0,0.0,0.0,0.0,0.0,0.0,0.0,0.0,0.0
25416000000,344,25416000000,imu_link,0.000610315308907,-0.3747613793,0.000160995908186,0.927121087119,0.0,0.0,0.0,0.0,0.0,0.0,0.0,0.0,0.0,-0.00403479389457,-0.00807883790914,0.0010429916526,0.0,0.0,0.0,0.0,0.0,0.0,0.0,0.0,0.0,6.51413367983,0.00674178034239,7.0746986276,0.0,0.0,0.0,0.0,0.0,0.0,0.0,0.0,0.0
25420000000,345,25420000000,imu_link,0.000601063247762,-0.37477644604,0.000159690294405,0.927115002961,0.0,0.0,0.0,0.0,0.0,0.0,0.0,0.0,0.0,-0.00453289351918,-0.00812405382836,0.00113351405797,0.0,0.0,0.0,0.0,0.0,0.0,0.0,0.0,0.0,6.51442117658,0.00663990832624,7.07354341709,0.0,0.0,0.0,0.0,0.0,0.0,0.0,0.0,0.0
25424000000,346,25424000000,imu_link,0.000591236289338,-0.374791740889,0.000158199816878,0.927108826608,0.0,0.0,0.0,0.0,0.0,0.0,0.0,0.0,0.0,-0.00483402326036,-0.00824708073893,0.00115562397605,0.0,0.0,0.0,0.0,0.0,0.0,0.0,0.0,0.0,6.51646246546,0.00647278176888,7.07632404631,0.0,0.0,0.0,0.0,0.0,0.0,0.0,0.0,0.0
25428000000,347,25428000000,imu_link,0.000581294746839,-0.374807487059,0.000156573323564,0.92710246749,0.0,0.0,0.0,0.0,0.0,0.0,0.0,0.0,0.0,-0.00491260968168,-0.00849057342945,0.00111419371543,0.0,0.0,0.0,0.0,0.0,0.0,0.0,0.0,0.0,6.51849215114,0.00635988866111,7.07944786823,0.0,0.0,0.0,0.0,0.0,0.0,0.0,0.0,0.0
25432000000,348,25432000000,imu_link,0.000571548165348,-0.374823709756,0.0001548268622,0.927095915192,0.0,0.0,0.0,0.0,0.0,0.0,0.0,0.0,0.0,-0.00484469888632,-0.00874772136805,0.00102219958017,0.0,0.0,0.0,0.0,0.0,0.0,0.0,0.0,0.0,6.51873582891,0.00633777488097,7.07723459869,0.0,0.0,0.0,0.0,0.0,0.0,0.0,0.0,0.0
25436000000,349,25436000000,imu_link,0.000562126863425,-0.374840268028,0.000152959964021,0.927089226602,0.0,0.0,0.0,0.0,0.0,0.0,0.0,0.0,0.0,-0.00471647452261,-0.00892887834761,0.000905516542747,0.0,0.0,0.0,0.0,0.0,0.0,0.0,0.0,0.0,6.51962574471,0.00646020669572,7.07503604355,0.0,0.0,0.0,0.0,0.0,0.0,0.0,0.0,0.0
25440000000,350,25440000000,imu_link,0.000553004014945,-0.374856859047,0.000150957406485,0.927082524171,0.0,0.0,0.0,0.0,0.0,0.0,0.0,0.0,0.0,-0.00460355194649,-0.00894671302761,0.000786706456774,0.0,0.0,0.0,0.0,0.0,0.0,0.0,0.0,0.0,6.52107148553,0.00666203821652,7.07219889566,0.0,0.0,0.0,0.0,0.0,0.0,0.0,0.0,0.0
25444000000,351,25444000000,imu_link,0.000544269002373,-0.374873170622,0.000148842133862,0.927075934088,0.0,0.0,0.0,0.0,0.0,0.0,0.0,0.0,0.0,-0.00444490998402,-0.00879618268514,0.000661681141318,0.0,0.0,0.0,0.0,0.0,0.0,0.0,0.0,0.0,6.52313806365,0.0068154287233,7.07059899899,0.0,0.0,0.0,0.0,0.0,0.0,0.0,0.0,0.0
25448000000,352,25448000000,imu_link,0.000536254024264,-0.374888878137,0.000146657072062,0.927069587449,0.0,0.0,0.0,0.0,0.0,0.0,0.0,0.0,0.0,-0.00412424901216,-0.00847062005707,0.000494187903803,0.0,0.0,0.0,0.0,0.0,0.0,0.0,0.0,0.0,6.52477413836,0.00691236402824,7.06837640302,0.0,0.0,0.0,0.0,0.0,0.0,0.0,0.0,0.0
25452000000,353,25452000000,imu_link,0.000529522605285,-0.374903782147,0.000144483636391,0.927063564629,0.0,0.0,0.0,0.0,0.0,0.0,0.0,0.0,0.0,-0.00352712334717,-0.0080375601526,0.000258741811678,0.0,0.0,0.0,0.0,0.0,0.0,0.0,0.0,0.0,6.52616210271,0.00700108523433,7.06708309458,0.0,0.0,0.0,0.0,0.0,0.0,0.0,0.0,0.0
25456000000,354,25456000000,imu_link,0.000524572951476,-0.374918198708,0.000142413053038,0.927057737587,0.0,0.0,0.0,0.0,0.0,0.0,0.0,0.0,0.0,-0.00268195532062,-0.00777501508534,-2.77213217773e-05,0.0,0.0,0.0,0.0,0.0,0.0,0.0,0.0,0.0,6.52795448905,0.00719202371381,7.07075390218,0.0,0.0,0.0,0.0,0.0,0.0,0.0,0.0,0.0
25460000000,355,25460000000,imu_link,0.000521452332954,-0.374932631707,0.000140514732058,0.927051902552,0.0,0.0,0.0,0.0,0.0,0.0,0.0,0.0,0.0,-0.00180185158777,-0.00778421763822,-0.000290737166128,0.0,0.0,0.0,0.0,0.0,0.0,0.0,0.0,0.0,6.5297289797,0.00750235362022,7.07567671619,0.0,0.0,0.0,0.0,0.0,0.0,0.0,0.0,0.0
25464000000,356,25464000000,imu_link,0.000519755362255,-0.374947626939,0.000138744159216,0.927045839027,0.0,0.0,0.0,0.0,0.0,0.0,0.0,0.0,0.0,-0.00111798533128,-0.00808772831005,-0.000498245959183,0.0,0.0,0.0,0.0,0.0,0.0,0.0,0.0,0.0,6.53134109269,0.00787318966203,7.08096604234,0.0,0.0,0.0,0.0,0.0,0.0,0.0,0.0,0.0
25468000000,357,25468000000,imu_link,0.000519212911641,-0.374963535307,0.000137067428732,0.927039405215,0.0,0.0,0.0,0.0,0.0,0.0,0.0,0.0,0.0,-0.000565212942707,-0.00858046270954,-0.000670927167566,0.0,0.0,0.0,0.0,0.0,0.0,0.0,0.0,0.0,6.53348261053,0.00815569573019,7.08561547396,0.0,0.0,0.0,0.0,0.0,0.0,0.0,0.0,0.0
25472000000,358,25472000000,imu_link,0.000519745237788,-0.374980431353,0.00013546780563,0.927032570957,0.0,0.0,0.0,0.0,0.0,0.0,0.0,0.0,0.0,-5.25402407426e-05,-0.00911340087471,-0.000836403571658,0.0,0.0,0.0,0.0,0.0,0.0,0.0,0.0,0.0,6.53329501519,0.00836398747114,7.08317794586,0.0,0.0,0.0,0.0,0.0,0.0,0.0,0.0,0.0
25476000000,359,25476000000,imu_link,0.000521280585349,-0.374998174787,0.000133931815907,0.927025392983,0.0,0.0,0.0,0.0,0.0,0.0,0.0,0.0,0.0,0.000424339080811,-0.00957067361939,-0.000994721671457,0.0,0.0,0.0,0.0,0.0,0.0,0.0,0.0,0.0,6.53336877698,0.00854101461668,7.07934513923,0.0,0.0,0.0,0.0,0.0,0.0,0.0,0.0,0.0
25480000000,360,25480000000,imu_link,0.000523585647016,-0.3750164841,0.000132430645846,0.927017985248,0.0,0.0,0.0,0.0,0.0,0.0,0.0,0.0,0.0,0.00078766198678,-0.0098760882717,-0.00112274013177,0.0,0.0,0.0,0.0,0.0,0.0,0.0,0.0,0.0,6.53483043596,0.00875222271033,7.07728557089,0.0,0.0,0.0,0.0,0.0,0.0,0.0,0.0,0.0
25484000000,361,25484000000,imu_link,0.000526275974115,-0.375035011264,0.000130938538283,0.92701048873,0.0,0.0,0.0,0.0,0.0,0.0,0.0,0.0,0.0,0.00096794409028,-0.00999373451731,-0.0011907171157,0.0,0.0,0.0,0.0,0.0,0.0,0.0,0.0,0.0,6.53749087646,0.00896077251605,7.07702326924,0.0,0.0,0.0,0.0,0.0,0.0,0.0,0.0,0.0
25488000000,362,25488000000,imu_link,0.000528972715142,-0.375053662806,0.000129416379796,0.927002941449,0.0,0.0,0.0,0.0,0.0,0.0,0.0,0.0,0.0,0.000965287119514,-0.0100609121169,-0.00120581254832,0.0,0.0,0.0,0.0,0.0,0.0,0.0,0.0,0.0,6.53867944989,0.00914071238156,7.07616767345,0.0,0.0,0.0,0.0,0.0,0.0,0.0,0.0,0.0
25492000000,363,25492000000,imu_link,0.000531440728909,-0.375072498335,0.000127859145737,0.926995319414,0.0,0.0,0.0,0.0,0.0,0.0,0.0,0.0,0.0,0.000852701953548,-0.0101602030188,-0.00117912412968,0.0,0.0,0.0,0.0,0.0,0.0,0.0,0.0,0.0,6.53902734729,0.0092129274933,7.07507043775,0.0,0.0,0.0,0.0,0.0,0.0,0.0,0.0,0.0
25496000000,364,25496000000,imu_link,0.000533488449696,-0.375091559025,0.000126257646771,0.926987606065,0.0,0.0,0.0,0.0,0.0,0.0,0.0,0.0,0.0,0.000649605735539,-0.0102816741561,-0.00112075497433,0.0,0.0,0.0,0.0,0.0,0.0,0.0,0.0,0.0,6.53942734124,0.00923494846927,7.07380974248,0.0,0.0,0.0,0.0,0.0,0.0,0.0,0.0,0.0
25500000000,365,25500000000,imu_link,0.00053504231925,-0.375110982635,0.000124574844831,0.926979745689,0.0,0.0,0.0,0.0,0.0,0.0,0.0,0.0,0.0,0.000405477027987,-0.0104774503226,-0.00106571259551,0.0,0.0,0.0,0.0,0.0,0.0,0.0,0.0,0.0,6.54059972827,0.00921300474404,7.07466989659,0.0,0.0,0.0,0.0,0.0,0.0,0.0,0.0,0.0
25504000000,366,25504000000,imu_link,0.000536264643378,-0.375130947259,0.000122806520015,0.926971666097,0.0,0.0,0.0,0.0,0.0,0.0,0.0,0.0,0.0,0.000235793741539,-0.0107693220417,-0.00104301003054,0.0,0.0,0.0,0.0,0.0,0.0,0.0,0.0,0.0,6.54293581885,0.00916645380745,7.07776088452,0.0,0.0,0.0,0.0,0.0,0.0,0.0,0.0,0.0
25508000000,367,25508000000,imu_link,0.000537319869659,-0.375151449902,0.000120975267717,0.926963368364,0.0,0.0,0.0,0.0,0.0,0.0,0.0,0.0,0.0,0.000146568688941,-0.011059608436,-0.00104067658542,0.0,0.0,0.0,0.0,0.0,0.0,0.0,0.0,0.0,6.54474184771,0.00908192766382,7.07873147789,0.0,0.0,0.0,0.0,0.0,0.0,0.0,0.0,0.0
25512000000,368,25512000000,imu_link,0.000538362356884,-0.375172326833,0.000119135067613,0.926954918619,0.0,0.0,0.0,0.0,0.0,0.0,0.0,0.0,0.0,0.000139004178175,-0.0112615996502,-0.00104232444052,0.0,0.0,0.0,0.0,0.0,0.0,0.0,0.0,0.0,6.5455842833,0.00899292462032,7.07626164383,0.0,0.0,0.0,0.0,0.0,0.0,0.0,0.0,0.0
25516000000,369,25516000000,imu_link,0.00053959705832,-0.375193326779,0.000117308359006,0.926946418416,0.0,0.0,0.0,0.0,0.0,0.0,0.0,0.0,0.0,0.00023062820465,-0.0113280875161,-0.00107209204356,0.0,0.0,0.0,0.0,0.0,0.0,0.0,0.0,0.0,6.54634283027,0.008937655341,7.07312741931,0.0,0.0,0.0,0.0,0.0,0.0,0.0,0.0,0.0
25520000000,370,25520000000,imu_link,0.000541222358568,-0.375214231937,0.000115473896399,0.926937955797,0.0,0.0,0.0,0.0,0.0,0.0,0.0,0.0,0.0,0.000410201085291,-0.0112771298729,-0.00114898862649,0.0,0.0,0.0,0.0,0.0,0.0,0.0,0.0,0.0,6.54749784163,0.00892457508753,7.07125729993,0.0,0.0,0.0,0.0,0.0,0.0,0.0,0.0,0.0
25524000000,371,25524000000,imu_link,0.000543382000605,-0.375234886412,0.000113612178256,0.926929593792,0.0,0.0,0.0,0.0,0.0,0.0,0.0,0.0,0.0,0.000652725841885,-0.0111421086619,-0.00126194069064,0.0,0.0,0.0,0.0,0.0,0.0,0.0,0.0,0.0,6.54831673981,0.00894845440738,7.06925310586,0.0,0.0,0.0,0.0,0.0,0.0,0.0,0.0,0.0
25528000000,372,25528000000,imu_link,0.000546048254313,-0.375255130019,0.000111717612738,0.926921397285,0.0,0.0,0.0,0.0,0.0,0.0,0.0,0.0,0.0,0.00088133815201,-0.0109206731417,-0.00137233450978,0.0,0.0,0.0,0.0,0.0,0.0,0.0,0.0,0.0,6.54886342171,0.0090705724979,7.06659553426,0.0,0.0,0.0,0.0,0.0,0.0,0.0,0.0,0.0
25532000000,373,25532000000,imu_link,0.000549097101265,-0.375274936749,0.000109801042465,0.926913376904,0.0,0.0,0.0,0.0,0.0,0.0,0.0,0.0,0.0,0.00105450270234,-0.0106851786717,-0.00145444700404,0.0,0.0,0.0,0.0,0.0,0.0,0.0,0.0,0.0,6.54946321173,0.00922999007801,7.06536512195,0.0,0.0,0.0,0.0,0.0,0.0,0.0,0.0,0.0
25536000000,374,25536000000,imu_link,0.000552430634185,-0.375294287301,0.000107870668308,0.926905540551,0.0,0.0,0.0,0.0,0.0,0.0,0.0,0.0,0.0,0.00118382671251,-0.0104392495354,-0.00151439760653,0.0,0.0,0.0,0.0,0.0,0.0,0.0,0.0,0.0,6.55002959453,0.00935744234819,7.0641901306,0.0,0.0,0.0,0.0,0.0,0.0,0.0,0.0,0.0
25540000000,375,25540000000,imu_link,0.000556230194872,-0.375312989411,0.000105969340708,0.926897965991,0.0,0.0,0.0,0.0,0.0,0.0,0.0,0.0,0.0,0.00140522173804,-0.0100896194795,-0.0015885779078,0.0,0.0,0.0,0.0,0.0,0.0,0.0,0.0,0.0,6.55039996869,0.0094111852929,7.06116715217,0.0,0.0,0.0,0.0,0.0,0.0,0.0,0.0,0.0
25544000000,376,25544000000,imu_link,0.000560690977723,-0.375330820693,0.000104189626651,0.926890743188,0.0,0.0,0.0,0.0,0.0,0.0,0.0,0.0,0.0,0.00173443436013,-0.00962002627156,-0.00165655969713,0.0,0.0,0.0,0.0,0.0,0.0,0.0,0.0,0.0,6.55263861027,0.00948133185358,7.06139000252,0.0,0.0,0.0,0.0,0.0,0.0,0.0,0.0,0.0
25548000000,377,25548000000,imu_link,0.000565918083596,-0.375347613837,0.000102647964634,0.926883939869,0.0,0.0,0.0,0.0,0.0,0.0,0.0,0.0,0.0,0.00213419383323,-0.00906015729699,-0.00169036079501,0.0,0.0,0.0,0.0,0.0,0.0,0.0,0.0,0.0,6.55557100563,0.00960563625943,7.06323438163,0.0,0.0,0.0,0.0,0.0,0.0,0.0,0.0,0.0
25552000000,378,25552000000,imu_link,0.000571715341504,-0.375363369168,0.000101365329834,0.926877556074,0.0,0.0,0.0,0.0,0.0,0.0,0.0,0.0,0.0,0.00244697339586,-0.00850041304441,-0.00167763450493,0.0,0.0,0.0,0.0,0.0,0.0,0.0,0.0,0.0,6.55529547544,0.00972855818729,7.06078340379,0.0,0.0,0.0,0.0,0.0,0.0,0.0,0.0,0.0
25556000000,379,25556000000,imu_link,0.000577449018125,-0.375378302961,0.000100264125958,0.926871504668,0.0,0.0,0.0,0.0,0.0,0.0,0.0,0.0,0.0,0.00245150524532,-0.00805724212784,-0.00158187102564,0.0,0.0,0.0,0.0,0.0,0.0,0.0,0.0,0.0,6.55689000053,0.00983004308193,7.06380248669,0.0,0.0,0.0,0.0,0.0,0.0,0.0,0.0,0.0
25560000000,380,25560000000,imu_link,0.00058246191609,-0.375392791898,9.92010720371e-05,0.926865633567,0.0,0.0,0.0,0.0,0.0,0.0,0.0,0.0,0.0,0.00212460122175,-0.00781719173037,-0.00142904611751,0.0,0.0,0.0,0.0,0.0,0.0,0.0,0.0,0.0,6.55879138474,0.00987341120106,7.0687630379,0.0,0.0,0.0,0.0,0.0,0.0,0.0,0.0,0.0
25564000000,381,25564000000,imu_link,0.000586619343561,-0.375407168593,9.81363388715e-05,0.926859808178,0.0,0.0,0.0,0.0,0.0,0.0,0.0,0.0,0.0,0.00172782518788,-0.00775655319044,-0.00126929056184,0.0,0.0,0.0,0.0,0.0,0.0,0.0,0.0,0.0,6.55988883771,0.00975513808806,7.07151280898,0.0,0.0,0.0,0.0,0.0,0.0,0.0,0.0,0.0
25568000000,382,25568000000,imu_link,0.000590320360093,-0.375421771718,9.71539306364e-05,0.926853891076,0.0,0.0,0.0,0.0,0.0,0.0,0.0,0.0,0.0,0.00153177918464,-0.00787865588539,-0.00114539784384,0.0,0.0,0.0,0.0,0.0,0.0,0.0,0.0,0.0,6.56094098189,0.00953472507419,7.07401660735,0.0,0.0,0.0,0.0,0.0,0.0,0.0,0.0,0.0
