%time,field.header.seq,field.header.stamp,field.header.frame_id,field.orientation.x,field.orientation.y,field.orientation.z,field.orientation.w,field.orientation_covariance0,field.orientation_covariance1,field.orientation_covariance2,field.orientation_covariance3,field.orientation_covariance4,field.orientation_covariance5,field.orientation_covariance6,field.orientation_covariance7,field.orientation_covariance8,field.angular_velocity.x,field.angular_velocity.y,field.angular_velocity.z,field.angular_velocity_covariance0,field.angular_velocity_covariance1,field.angular_velocity_covariance2,field.angular_velocity_covariance3,field.angular_velocity_covariance4,field.angular_velocity_covariance5,field.angular_velocity_covariance6,field.angular_velocity_covariance7,field.angular_velocity_covariance8,field.linear_acceleration.x,field.linear_acceleration.y,field.linear_acceleration.z,field.linear_acceleration_covariance0,field.linear_acceleration_covariance1,field.linear_acceleration_covariance2,field.linear_acceleration_covariance3,field.linear_acceleration_covariance4,field.linear_acceleration_covariance5,field.linear_acceleration_covariance6,field.linear_acceleration_covariance7,field.linear_acceleration_covariance8
88536000000,0,88536000000,imu_link,-0.00242315429155,-0.379489735103,0.00688197033603,0.925167178276,0.0,0.0,0.0,0.0,0.0,0.0,0.0,0.0,0.0,0.00327343792942,-0.00876278244167,-0.000815086399348,0.0,0.0,0.0,0.0,0.0,0.0,0.0,0.0,0.0,6.60584022254,-0.0812727382508,7.01048959283,0.0,0.0,0.0,0.0,0.0,0.0,0.0,0.0,0.0
88540000000,1,88540000000,imu_link,-0.0024165070849,-0.379506089565,0.00688292512224,0.925160480035,0.0,0.0,0.0,0.0,0.0,0.0,0.0,0.0,0.0,0.00319166359413,-0.00886029236828,-0.000816371055497,0.0,0.0,0.0,0.0,0.0,0.0,0.0,0.0,0.0,6.60605065637,-0.0813828974436,7.00950124048,0.0,0.0,0.0,0.0,0.0,0.0,0.0,0.0,0.0
88544000000,2,88544000000,imu_link,-0.00241023566753,-0.379522467277,0.00688379917464,0.925153771492,0.0,0.0,0.0,0.0,0.0,0.0,0.0,0.0,0.0,0.00300241895475,-0.00887161120953,-0.000782402401997,0.0,0.0,0.0,0.0,0.0,0.0,0.0,0.0,0.0,6.60671581164,-0.081475768355,7.00688117076,0.0,0.0,0.0,0.0,0.0,0.0,0.0,0.0,0.0
88548000000,3,88548000000,imu_link,-0.00240447152064,-0.379538508676,0.0068845759745,0.925147199943,0.0,0.0,0.0,0.0,0.0,0.0,0.0,0.0,0.0,0.0027506352419,-0.00868818160915,-0.000731195130369,0.0,0.0,0.0,0.0,0.0,0.0,0.0,0.0,0.0,6.60846874017,-0.0816391687773,7.00445982273,0.0,0.0,0.0,0.0,0.0,0.0,0.0,0.0,0.0
88552000000,4,88552000000,imu_link,-0.00239898273835,-0.379553906205,0.00688528327342,0.925140891994,0.0,0.0,0.0,0.0,0.0,0.0,0.0,0.0,0.0,0.00261260300272,-0.00833928933942,-0.000711221999485,0.0,0.0,0.0,0.0,0.0,0.0,0.0,0.0,0.0,6.61006131653,-0.0818281410593,7.00233398256,0.0,0.0,0.0,0.0,0.0,0.0,0.0,0.0,0.0
88556000000,5,88556000000,imu_link,-0.00239353878396,-0.379568667203,0.00688594400763,0.925134845103,0.0,0.0,0.0,0.0,0.0,0.0,0.0,0.0,0.0,0.00258553451587,-0.00799509612858,-0.000724389368934,0.0,0.0,0.0,0.0,0.0,0.0,0.0,0.0,0.0,6.61043783914,-0.0819362739403,7.00065471037,0.0,0.0,0.0,0.0,0.0,0.0,0.0,0.0,0.0
88560000000,6,88560000000,imu_link,-0.0023878714469,-0.379582922189,0.00688660377507,0.925129006107,0.0,0.0,0.0,0.0,0.0,0.0,0.0,0.0,0.0,0.00269067157292,-0.00772234409055,-0.00076734129177,0.0,0.0,0.0,0.0,0.0,0.0,0.0,0.0,0.0,6.61126689872,-0.0820492164165,7.00093367485,0.0,0.0,0.0,0.0,0.0,0.0,0.0,0.0,0.0
88564000000,7,88564000000,imu_link,-0.00238205266755,-0.3795969768,0.00688724585652,0.925123249559,0.0,0.0,0.0,0.0,0.0,0.0,0.0,0.0,0.0,0.00275815513778,-0.00761451027831,-0.000804309316479,0.0,0.0,0.0,0.0,0.0,0.0,0.0,0.0,0.0,6.61242057088,-0.0821208289738,7.00370869128,0.0,0.0,0.0,0.0,0.0,0.0,0.0,0.0,0.0
88568000000,8,88568000000,imu_link,-0.00237646474656,-0.379611094692,0.00688780426351,0.925117466787,0.0,0.0,0.0,0.0,0.0,0.0,0.0,0.0,0.0,0.00263523848203,-0.0076478642429,-0.000799182409566,0.0,0.0,0.0,0.0,0.0,0.0,0.0,0.0,0.0,6.61378844248,-0.0822094366646,7.00660671167,0.0,0.0,0.0,0.0,0.0,0.0,0.0,0.0,0.0
88572000000,9,88572000000,imu_link,-0.00237145470247,-0.379625246325,0.00688828026735,0.925111669016,0.0,0.0,0.0,0.0,0.0,0.0,0.0,0.0,0.0,0.00235216188047,-0.00766423013474,-0.000727602903003,0.0,0.0,0.0,0.0,0.0,0.0,0.0,0.0,0.0,6.61422221214,-0.0823164236859,7.00518569348,0.0,0.0,0.0,0.0,0.0,0.0,0.0,0.0,0.0
88576000000,10,88576000000,imu_link,-0.00236724549222,-0.379639312507,0.00688869042948,0.925105904474,0.0,0.0,0.0,0.0,0.0,0.0,0.0,0.0,0.0,0.00196956763539,-0.00761556103143,-0.000606063114318,0.0,0.0,0.0,0.0,0.0,0.0,0.0,0.0,0.0,6.61464141809,-0.0824794377432,7.00277888672,0.0,0.0,0.0,0.0,0.0,0.0,0.0,0.0,0.0
88580000000,11,88580000000,imu_link,-0.00236365812686,-0.379653369207,0.00688905716398,0.925100142288,0.0,0.0,0.0,0.0,0.0,0.0,0.0,0.0,0.0,0.00167372347301,-0.00760853446479,-0.00050810920723,0.0,0.0,0.0,0.0,0.0,0.0,0.0,0.0,0.0,6.61557189309,-0.0827289856349,7.00295889769,0.0,0.0,0.0,0.0,0.0,0.0,0.0,0.0,0.0
88584000000,12,88584000000,imu_link,-0.00236026387793,-0.379667771132,0.00688940600219,0.925094237796,0.0,0.0,0.0,0.0,0.0,0.0,0.0,0.0,0.0,0.00157964294538,-0.00779454513128,-0.000479646303169,0.0,0.0,0.0,0.0,0.0,0.0,0.0,0.0,0.0,6.61670872102,-0.0829965940814,7.00569189233,0.0,0.0,0.0,0.0,0.0,0.0,0.0,0.0,0.0
88588000000,13,88588000000,imu_link,-0.00235674450957,-0.379683027288,0.00688975251018,0.925087982764,0.0,0.0,0.0,0.0,0.0,0.0,0.0,0.0,0.0,0.00163371795918,-0.0082566403207,-0.000504276650513,0.0,0.0,0.0,0.0,0.0,0.0,0.0,0.0,0.0,6.61877952026,-0.0831828325245,7.01145456681,0.0,0.0,0.0,0.0,0.0,0.0,0.0,0.0,0.0
88592000000,14,88592000000,imu_link,-0.00235303027178,-0.379699305001,0.00689010591282,0.925081308573,0.0,0.0,0.0,0.0,0.0,0.0,0.0,0.0,0.0,0.00172114947691,-0.00880940833715,-0.000537841695064,0.0,0.0,0.0,0.0,0.0,0.0,0.0,0.0,0.0,6.61867438911,-0.0832525876175,7.01005857236,0.0,0.0,0.0,0.0,0.0,0.0,0.0,0.0,0.0
88596000000,15,88596000000,imu_link,-0.00234923954677,-0.379716577347,0.00689045479167,0.925074225992,0.0,0.0,0.0,0.0,0.0,0.0,0.0,0.0,0.0,0.00175176204287,-0.00934725762951,-0.000554218484661,0.0,0.0,0.0,0.0,0.0,0.0,0.0,0.0,0.0,6.6191054668,-0.0832591124107,7.00794956585,0.0,0.0,0.0,0.0,0.0,0.0,0.0,0.0,0.0
88600000000,16,88600000000,imu_link,-0.00234543683765,-0.379734519391,0.00689080822971,0.925066868108,0.0,0.0,0.0,0.0,0.0,0.0,0.0,0.0,0.0,0.00175554010434,-0.00970933243642,-0.000554223135367,0.0,0.0,0.0,0.0,0.0,0.0,0.0,0.0,0.0,6.61984374544,-0.083276936204,7.00381944949,0.0,0.0,0.0,0.0,0.0,0.0,0.0,0.0,0.0
88604000000,17,88604000000,imu_link,-0.00234154447682,-0.37975261734,0.00689118249669,0.925059445872,0.0,0.0,0.0,0.0,0.0,0.0,0.0,0.0,0.0,0.00180034912728,-0.00979399592172,-0.000561572087303,0.0,0.0,0.0,0.0,0.0,0.0,0.0,0.0,0.0,6.62180406521,-0.0833282895078,7.0003695488,0.0,0.0,0.0,0.0,0.0,0.0,0.0,0.0,0.0
88608000000,18,88608000000,imu_link,-0.002337407608,-0.379770379328,0.00689160158128,0.925052161415,0.0,0.0,0.0,0.0,0.0,0.0,0.0,0.0,0.0,0.00192327003597,-0.00961333781979,-0.000587350286208,0.0,0.0,0.0,0.0,0.0,0.0,0.0,0.0,0.0,6.62233767492,-0.083419763268,6.99468867258,0.0,0.0,0.0,0.0,0.0,0.0,0.0,0.0,0.0
88612000000,19,88612000000,imu_link,-0.00233306867339,-0.379787589554,0.00689205310735,0.925045103341,0.0,0.0,0.0,0.0,0.0,0.0,0.0,0.0,0.0,0.00202505672142,-0.0093158809804,-0.000610849774242,0.0,0.0,0.0,0.0,0.0,0.0,0.0,0.0,0.0,6.6231540026,-0.0835195800317,6.99237488382,0.0,0.0,0.0,0.0,0.0,0.0,0.0,0.0,0.0
88616000000,20,88616000000,imu_link,-0.00232865061849,-0.379804332593,0.00689252031859,0.925038236774,0.0,0.0,0.0,0.0,0.0,0.0,0.0,0.0,0.0,0.00206646350113,-0.00906372136862,-0.000618734431249,0.0,0.0,0.0,0.0,0.0,0.0,0.0,0.0,0.0,6.62279087823,-0.0835628807415,6.99055066436,0.0,0.0,0.0,0.0,0.0,0.0,0.0,0.0,0.0
88620000000,21,88620000000,imu_link,-0.00232420188709,-0.379820834005,0.00689298343562,0.925031469152,0.0,0.0,0.0,0.0,0.0,0.0,0.0,0.0,0.0,0.00208082237877,-0.0089332752882,-0.000626513278079,0.0,0.0,0.0,0.0,0.0,0.0,0.0,0.0,0.0,6.62491733109,-0.0836484387999,6.99446663948,0.0,0.0,0.0,0.0,0.0,0.0,0.0,0.0,0.0
88624000000,22,88624000000,imu_link,-0.00231970371203,-0.379837354277,0.00689342315485,0.925024693718,0.0,0.0,0.0,0.0,0.0,0.0,0.0,0.0,0.0,0.00209917328844,-0.00894362519906,-0.000646719984788,0.0,0.0,0.0,0.0,0.0,0.0,0.0,0.0,0.0,6.62507979216,-0.0837147454588,6.99508123506,0.0,0.0,0.0,0.0,0.0,0.0,0.0,0.0,0.0
88628000000,23,88628000000,imu_link,-0.00231510142374,-0.379854097177,0.00689388728323,0.925017826575,0.0,0.0,0.0,0.0,0.0,0.0,0.0,0.0,0.0,0.00215108899108,-0.0090643974895,-0.000655145621727,0.0,0.0,0.0,0.0,0.0,0.0,0.0,0.0,0.0,6.62553917877,-0.0837830411025,6.99554630464,0.0,0.0,0.0,0.0,0.0,0.0,0.0,0.0,0.0
88632000000,24,88632000000,imu_link,-0.00231044079324,-0.379871074685,0.00689438103852,0.925010862634,0.0,0.0,0.0,0.0,0.0,0.0,0.0,0.0,0.0,0.00218277900152,-0.00919152619744,-0.000652461587884,0.0,0.0,0.0,0.0,0.0,0.0,0.0,0.0,0.0,6.62566549192,-0.0838322670632,6.993548833,0.0,0.0,0.0,0.0,0.0,0.0,0.0,0.0,0.0
88636000000,25,88636000000,imu_link,-0.00230563638106,-0.379888310715,0.00689486207282,0.925003792587,0.0,0.0,0.0,0.0,0.0,0.0,0.0,0.0,0.0,0.00224584889445,-0.00933172810909,-0.000685587243319,0.0,0.0,0.0,0.0,0.0,0.0,0.0,0.0,0.0,6.62730766237,-0.0839257375464,6.99472061495,0.0,0.0,0.0,0.0,0.0,0.0,0.0,0.0,0.0
88640000000,26,88640000000,imu_link,-0.00230060547572,-0.379905824877,0.0068952490636,0.924996609172,0.0,0.0,0.0,0.0,0.0,0.0,0.0,0.0,0.0,0.00233164985897,-0.00948257100889,-0.000772033415312,0.0,0.0,0.0,0.0,0.0,0.0,0.0,0.0,0.0,6.6299088885,-0.084022375721,6.99760118447,0.0,0.0,0.0,0.0,0.0,0.0,0.0,0.0,0.0
88644000000,27,88644000000,imu_link,-0.00229525442986,-0.379923513853,0.00689551302838,0.924989355251,0.0,0.0,0.0,0.0,0.0,0.0,0.0,0.0,0.0,0.00245566136762,-0.00957777659068,-0.000889702368697,0.0,0.0,0.0,0.0,0.0,0.0,0.0,0.0,0.0,6.62993920959,-0.0840306721665,6.99432574953,0.0,0.0,0.0,0.0,0.0,0.0,0.0,0.0,0.0
88648000000,28,88648000000,imu_link,-0.00228950926028,-0.379941206851,0.00689565019919,0.924982101174,0.0,0.0,0.0,0.0,0.0,0.0,0.0,0.0,0.0,0.00261384143581,-0.00958088007011,-0.00102321640658,0.0,0.0,0.0,0.0,0.0,0.0,0.0,0.0,0.0,6.63044116288,-0.0840060282173,6.99136681067,0.0,0.0,0.0,0.0,0.0,0.0,0.0,0.0,0.0
88652000000,29,88652000000,imu_link,-0.00228331634569,-0.379958741957,0.00689565248563,0.924974913635,0.0,0.0,0.0,0.0,0.0,0.0,0.0,0.0,0.0,0.00279591598289,-0.00949660545049,-0.00117070628258,0.0,0.0,0.0,0.0,0.0,0.0,0.0,0.0,0.0,6.630934787,-0.084017399801,6.9886838077,0.0,0.0,0.0,0.0,0.0,0.0,0.0,0.0,0.0
88656000000,30,88656000000,imu_link,-0.00227677887659,-0.37997600639,0.00689551627964,0.924967838739,0.0,0.0,0.0,0.0,0.0,0.0,0.0,0.0,0.0,0.00293001925387,-0.00935105226116,-0.00130029489805,0.0,0.0,0.0,0.0,0.0,0.0,0.0,0.0,0.0,6.63085228638,-0.0840267636105,6.98577279779,0.0,0.0,0.0,0.0,0.0,0.0,0.0,0.0,0.0
88660000000,31,88660000000,imu_link,-0.00226996481851,-0.37999309559,0.00689523829513,0.924960837145,0.0,0.0,0.0,0.0,0.0,0.0,0.0,0.0,0.0,0.00303168859859,-0.00925687581591,-0.00141846701476,0.0,0.0,0.0,0.0,0.0,0.0,0.0,0.0,0.0,6.6314171056,-0.0840801375602,6.98594915196,0.0,0.0,0.0,0.0,0.0,0.0,0.0,0.0,0.0
88664000000,32,88664000000,imu_link,-0.00226287419313,-0.380009953583,0.00689483640797,0.924953931723,0.0,0.0,0.0,0.0,0.0,0.0,0.0,0.0,0.0,0.00313696074833,-0.00913248778228,-0.00152838554658,0.0,0.0,0.0,0.0,0.0,0.0,0.0,0.0,0.0,6.63208126662,-0.0841234040728,6.9848025269,0.0,0.0,0.0,0.0,0.0,0.0,0.0,0.0,0.0
88668000000,33,88668000000,imu_link,-0.00225556414524,-0.380026608614,0.00689437100467,0.924947110285,0.0,0.0,0.0,0.0,0.0,0.0,0.0,0.0,0.0,0.00322716493756,-0.00902334981149,-0.00159951155685,0.0,0.0,0.0,0.0,0.0,0.0,0.0,0.0,0.0,6.63299438078,-0.0841584793861,6.98513333612,0.0,0.0,0.0,0.0,0.0,0.0,0.0,0.0,0.0
88672000000,34,88672000000,imu_link,-0.00224804421791,-0.380043295303,0.00689390367312,0.924940275955,0.0,0.0,0.0,0.0,0.0,0.0,0.0,0.0,0.0,0.00332373857232,-0.00904116125813,-0.00164027447324,0.0,0.0,0.0,0.0,0.0,0.0,0.0,0.0,0.0,6.63411808676,-0.0841960278896,6.98742678675,0.0,0.0,0.0,0.0,0.0,0.0,0.0,0.0,0.0
88676000000,35,88676000000,imu_link,-0.00224078464948,-0.380060548758,0.00689339497621,0.924933208003,0.0,0.0,0.0,0.0,0.0,0.0,0.0,0.0,0.0,0.00319325382338,-0.00934672327209,-0.0016097626563,0.0,0.0,0.0,0.0,0.0,0.0,0.0,0.0,0.0,6.63668155651,-0.0841852801453,6.99456426836,0.0,0.0,0.0,0.0,0.0,0.0,0.0,0.0,0.0
88680000000,36,88680000000,imu_link,-0.00223451883274,-0.380078924177,0.00689278313683,0.92492567694,0.0,0.0,0.0,0.0,0.0,0.0,0.0,0.0,0.0,0.00270969072632,-0.00995005868063,-0.00146828053755,0.0,0.0,0.0,0.0,0.0,0.0,0.0,0.0,0.0,6.63968672107,-0.0841916071536,7.00303024212,0.0,0.0,0.0,0.0,0.0,0.0,0.0,0.0,0.0
88684000000,37,88684000000,imu_link,-0.00222963736906,-0.380098746175,0.00689204925167,0.924917548504,0.0,0.0,0.0,0.0,0.0,0.0,0.0,0.0,0.0,0.00204063247104,-0.0107276645471,-0.00126119788687,0.0,0.0,0.0,0.0,0.0,0.0,0.0,0.0,0.0,6.64034571971,-0.0843363370332,7.00456906478,0.0,0.0,0.0,0.0,0.0,0.0,0.0,0.0,0.0
88688000000,38,88688000000,imu_link,-0.00222620844258,-0.380119923669,0.00689120273074,0.924908859808,0.0,0.0,0.0,0.0,0.0,0.0,0.0,0.0,0.0,0.0013421918818,-0.0114558714607,-0.00103681396223,0.0,0.0,0.0,0.0,0.0,0.0,0.0,0.0,0.0,6.63990451671,-0.0845271849816,7.00023434014,0.0,0.0,0.0,0.0,0.0,0.0,0.0,0.0,0.0
88692000000,39,88692000000,imu_link,-0.00222404481886,-0.380142194627,0.00689025370052,0.924899718831,0.0,0.0,0.0,0.0,0.0,0.0,0.0,0.0,0.0,0.00073329302435,-0.0120430354084,-0.000843395206383,0.0,0.0,0.0,0.0,0.0,0.0,0.0,0.0,0.0,6.64025155461,-0.0847462794946,6.99605038218,0.0,0.0,0.0,0.0,0.0,0.0,0.0,0.0,0.0
88696000000,40,88696000000,imu_link,-0.00222300880283,-0.380165337622,0.00688918933321,0.92489021693,0.0,0.0,0.0,0.0,0.0,0.0,0.0,0.0,0.0,0.000186503123618,-0.0125108972443,-0.000682133494087,0.0,0.0,0.0,0.0,0.0,0.0,0.0,0.0,0.0,6.64142367387,-0.0849329118399,6.9936556242,0.0,0.0,0.0,0.0,0.0,0.0,0.0,0.0,0.0
88700000000,41,88700000000,imu_link,-0.00222307942973,-0.380189081214,0.00688798457866,0.92488046585,0.0,0.0,0.0,0.0,0.0,0.0,0.0,0.0,0.0,-0.000354289444495,-0.0128320370566,-0.000536510490811,0.0,0.0,0.0,0.0,0.0,0.0,0.0,0.0,0.0,6.64233213825,-0.0851289384788,6.99096208681,0.0,0.0,0.0,0.0,0.0,0.0,0.0,0.0,0.0
88704000000,42,88704000000,imu_link,-0.00222445415646,-0.380212992326,0.00688662381261,0.924870643216,0.0,0.0,0.0,0.0,0.0,0.0,0.0,0.0,0.0,-0.000987671078714,-0.012918442336,-0.000360693996008,0.0,0.0,0.0,0.0,0.0,0.0,0.0,0.0,0.0,6.64344751971,-0.0853544134956,6.98709081467,0.0,0.0,0.0,0.0,0.0,0.0,0.0,0.0,0.0
88708000000,43,88708000000,imu_link,-0.00222713672192,-0.380236401998,0.00688510395188,0.924861024047,0.0,0.0,0.0,0.0,0.0,0.0,0.0,0.0,0.0,-0.00162075392078,-0.0126431980745,-0.000185779238954,0.0,0.0,0.0,0.0,0.0,0.0,0.0,0.0,0.0,6.64453563723,-0.0855878593733,6.98098771523,0.0,0.0,0.0,0.0,0.0,0.0,0.0,0.0,0.0
88712000000,44,88712000000,imu_link,-0.00223090526111,-0.380258551608,0.00688340245848,0.924851920991,0.0,0.0,0.0,0.0,0.0,0.0,0.0,0.0,0.0,-0.00215256043402,-0.0119584441169,-6.36819299173e-05,0.0,0.0,0.0,0.0,0.0,0.0,0.0,0.0,0.0,6.64752943327,-0.0858649724237,6.97819475796,0.0,0.0,0.0,0.0,0.0,0.0,0.0,0.0,0.0
88716000000,45,88716000000,imu_link,-0.0022354949483,-0.380278965824,0.00688147793452,0.924843530537,0.0,0.0,0.0,0.0,0.0,0.0,0.0,0.0,0.0,-0.00256791764097,-0.0110173915642,-1.12095927911e-05,0.0,0.0,0.0,0.0,0.0,0.0,0.0,0.0,0.0,6.64929286617,-0.0860718740129,6.9760748361,0.0,0.0,0.0,0.0,0.0,0.0,0.0,0.0,0.0
88720000000,46,88720000000,imu_link,-0.00224075007381,-0.38029758042,0.00687931987215,0.92483587967,0.0,0.0,0.0,0.0,0.0,0.0,0.0,0.0,0.0,-0.00291301697826,-0.0100420322185,6.79005397549e-06,0.0,0.0,0.0,0.0,0.0,0.0,0.0,0.0,0.0,6.64928371869,-0.0862009465497,6.97395416864,0.0,0.0,0.0,0.0,0.0,0.0,0.0,0.0,0.0
88724000000,47,88724000000,imu_link,-0.0022466216725,-0.380314552951,0.00687694050424,0.924828903741,0.0,0.0,0.0,0.0,0.0,0.0,0.0,0.0,0.0,-0.00323376189386,-0.00915200514047,2.11942016439e-05,0.0,0.0,0.0,0.0,0.0,0.0,0.0,0.0,0.0,6.64813186866,-0.0862814578547,6.97164187069,0.0,0.0,0.0,0.0,0.0,0.0,0.0,0.0,0.0
88728000000,48,88728000000,imu_link,-0.00225288759528,-0.380330147783,0.00687438322717,0.924822494342,0.0,0.0,0.0,0.0,0.0,0.0,0.0,0.0,0.0,-0.00344456020559,-0.00840565174236,1.35096202612e-05,0.0,0.0,0.0,0.0,0.0,0.0,0.0,0.0,0.0,6.64837508078,-0.0863995400871,6.97281387705,0.0,0.0,0.0,0.0,0.0,0.0,0.0,0.0,0.0
88732000000,49,88732000000,imu_link,-0.00225918713222,-0.380344537961,0.00687173243574,0.924816580631,0.0,0.0,0.0,0.0,0.0,0.0,0.0,0.0,0.0,-0.00347318794129,-0.00775412294139,-2.36870312961e-05,0.0,0.0,0.0,0.0,0.0,0.0,0.0,0.0,0.0,6.64905521719,-0.0864282243073,6.97400242888,0.0,0.0,0.0,0.0,0.0,0.0,0.0,0.0,0.0
88736000000,50,88736000000,imu_link,-0.00226528321604,-0.380357910452,0.0068690345701,0.924811086013,0.0,0.0,0.0,0.0,0.0,0.0,0.0,0.0,0.0,-0.00338409170116,-0.00720448172986,-8.44360538175e-05,0.0,0.0,0.0,0.0,0.0,0.0,0.0,0.0,0.0,6.65006782986,-0.0863235207791,6.97574983114,0.0,0.0,0.0,0.0,0.0,0.0,0.0,0.0,0.0
88740000000,51,88740000000,imu_link,-0.00227113069726,-0.380370586043,0.00686628893013,0.92480587872,0.0,0.0,0.0,0.0,0.0,0.0,0.0,0.0,0.0,-0.00327550320382,-0.0068283879702,-0.000154003636356,0.0,0.0,0.0,0.0,0.0,0.0,0.0,0.0,0.0,6.65134396567,-0.0861802191251,6.97908313408,0.0,0.0,0.0,0.0,0.0,0.0,0.0,0.0,0.0
88744000000,52,88744000000,imu_link,-0.00227671092996,-0.380382935965,0.00686346362849,0.92480080638,0.0,0.0,0.0,0.0,0.0,0.0,0.0,0.0,0.0,-0.00316580586182,-0.00665295856236,-0.000241759658423,0.0,0.0,0.0,0.0,0.0,0.0,0.0,0.0,0.0,6.65232114206,-0.0860897865825,6.98224847399,0.0,0.0,0.0,0.0,0.0,0.0,0.0,0.0,0.0
88748000000,53,88748000000,imu_link,-0.00228185160901,-0.380395243387,0.00686059854677,0.924795752666,0.0,0.0,0.0,0.0,0.0,0.0,0.0,0.0,0.0,-0.0029699548619,-0.006631227602,-0.000343768882079,0.0,0.0,0.0,0.0,0.0,0.0,0.0,0.0,0.0,6.65302854242,-0.0860758190689,6.98409828664,0.0,0.0,0.0,0.0,0.0,0.0,0.0,0.0,0.0
88752000000,54,88752000000,imu_link,-0.00228622061016,-0.380407564379,0.00685774245287,0.924790694983,0.0,0.0,0.0,0.0,0.0,0.0,0.0,0.0,0.0,-0.00261147425164,-0.00664091388134,-0.000486386096187,0.0,0.0,0.0,0.0,0.0,0.0,0.0,0.0,0.0,6.65488344951,-0.0860569796166,6.98599539391,0.0,0.0,0.0,0.0,0.0,0.0,0.0,0.0,0.0
88756000000,55,88756000000,imu_link,-0.00228933677185,-0.380419611237,0.00685498948365,0.924785752184,0.0,0.0,0.0,0.0,0.0,0.0,0.0,0.0,0.0,-0.0020114811157,-0.00649671842146,-0.000677077086622,0.0,0.0,0.0,0.0,0.0,0.0,0.0,0.0,0.0,6.65669504447,-0.0860093234098,6.98446776315,0.0,0.0,0.0,0.0,0.0,0.0,0.0,0.0,0.0
88760000000,56,88760000000,imu_link,-0.00229068274066,-0.380431064707,0.00685241493056,0.924781056352,0.0,0.0,0.0,0.0,0.0,0.0,0.0,0.0,0.0,-0.00115670350892,-0.00618163574725,-0.000931454024577,0.0,0.0,0.0,0.0,0.0,0.0,0.0,0.0,0.0,6.65966292188,-0.0859261827113,6.98521678476,0.0,0.0,0.0,0.0,0.0,0.0,0.0,0.0,0.0
88764000000,57,88764000000,imu_link,-0.00229027759349,-0.380441790113,0.00685003716883,0.924776662743,0.0,0.0,0.0,0.0,0.0,0.0,0.0,0.0,0.0,-0.000306730650917,-0.00579372373767,-0.00117375062446,0.0,0.0,0.0,0.0,0.0,0.0,0.0,0.0,0.0,6.65922548408,-0.0856422596257,6.98132434957,0.0,0.0,0.0,0.0,0.0,0.0,0.0,0.0,0.0
88768000000,58,88768000000,imu_link,-0.00228862559996,-0.380451986309,0.00684780024183,0.924772488744,0.0,0.0,0.0,0.0,0.0,0.0,0.0,0.0,0.0,0.000298650308648,-0.00551168020024,-0.00134595266761,0.0,0.0,0.0,0.0,0.0,0.0,0.0,0.0,0.0,6.66100456594,-0.08533058306,6.9846053477,0.0,0.0,0.0,0.0,0.0,0.0,0.0,0.0,0.0
88772000000,59,88772000000,imu_link,-0.0022864473166,-0.380462115307,0.00684560262098,0.924768343262,0.0,0.0,0.0,0.0,0.0,0.0,0.0,0.0,0.0,0.000549739247763,-0.00547703146154,-0.00142791279005,0.0,0.0,0.0,0.0,0.0,0.0,0.0,0.0,0.0,6.66298680371,-0.0850610919947,6.9906583674,0.0,0.0,0.0,0.0,0.0,0.0,0.0,0.0,0.0
88776000000,60,88776000000,imu_link,-0.00228417899957,-0.380472530749,0.00684337082894,0.924764080264,0.0,0.0,0.0,0.0,0.0,0.0,0.0,0.0,0.0,0.000583754183246,-0.00563210265804,-0.00146076544846,0.0,0.0,0.0,0.0,0.0,0.0,0.0,0.0,0.0,6.66336465522,-0.0848619730022,6.99255020008,0.0,0.0,0.0,0.0,0.0,0.0,0.0,0.0,0.0
88780000000,61,88780000000,imu_link,-0.00228194483802,-0.380483326388,0.00684108014279,0.924759661042,0.0,0.0,0.0,0.0,0.0,0.0,0.0,0.0,0.0,0.000555278165877,-0.00583743445771,-0.001481399084,0.0,0.0,0.0,0.0,0.0,0.0,0.0,0.0,0.0,6.66353842835,-0.0847481072295,6.99160737889,0.0,0.0,0.0,0.0,0.0,0.0,0.0,0.0,0.0
88784000000,62,88784000000,imu_link,-0.00227983401204,-0.380494202272,0.00683869910967,0.924755209009,0.0,0.0,0.0,0.0,0.0,0.0,0.0,0.0,0.0,0.000480750618438,-0.00588025499745,-0.00149968946028,0.0,0.0,0.0,0.0,0.0,0.0,0.0,0.0,0.0,6.66509766574,-0.0846968937582,6.98972162414,0.0,0.0,0.0,0.0,0.0,0.0,0.0,0.0,0.0
88788000000,63,88788000000,imu_link,-0.00227801929092,-0.380504583055,0.00683618401917,0.924750960795,0.0,0.0,0.0,0.0,0.0,0.0,0.0,0.0,0.0,0.000320259589758,-0.00561138998995,-0.0015054740533,0.0,0.0,0.0,0.0,0.0,0.0,0.0,0.0,0.0,6.6666447056,-0.0846775857286,6.98524051682,0.0,0.0,0.0,0.0,0.0,0.0,0.0,0.0,0.0
88792000000,64,88792000000,imu_link,-0.00227669368497,-0.38051391463,0.00683351674149,0.924747144082,0.0,0.0,0.0,0.0,0.0,0.0,0.0,0.0,0.0,6.92285397897e-05,-0.00504232315958,-0.00148306624718,0.0,0.0,0.0,0.0,0.0,0.0,0.0,0.0,0.0,6.66788523948,-0.0847197541792,6.98113797042,0.0,0.0,0.0,0.0,0.0,0.0,0.0,0.0,0.0
88796000000,65,88796000000,imu_link,-0.00227596962174,-0.380521954892,0.00683071384554,0.924743858133,0.0,0.0,0.0,0.0,0.0,0.0,0.0,0.0,0.0,-0.000229694932623,-0.00434206249525,-0.00143166839503,0.0,0.0,0.0,0.0,0.0,0.0,0.0,0.0,0.0,6.66813531166,-0.0848194703758,6.97788294908,0.0,0.0,0.0,0.0,0.0,0.0,0.0,0.0,0.0
88800000000,66,88800000000,imu_link,-0.00227582075322,-0.380528918859,0.00682780557742,0.924741014351,0.0,0.0,0.0,0.0,0.0,0.0,0.0,0.0,0.0,-0.000511517929178,-0.00375820263605,-0.00137123776622,0.0,0.0,0.0,0.0,0.0,0.0,0.0,0.0,0.0,6.66967731986,-0.084948329065,6.98107825957,0.0,0.0,0.0,0.0,0.0,0.0,0.0,0.0,0.0
88804000000,67,88804000000,imu_link,-0.00227582257202,-0.380535331664,0.00682486615975,0.924738397164,0.0,0.0,0.0,0.0,0.0,0.0,0.0,0.0,0.0,-0.000584978487842,-0.00345969860121,-0.00135711636295,0.0,0.0,0.0,0.0,0.0,0.0,0.0,0.0,0.0,6.67040734314,-0.0851164638228,6.98536179053,0.0,0.0,0.0,0.0,0.0,0.0,0.0,0.0,0.0
88808000000,68,88808000000,imu_link,-0.00227536117282,-0.380541958904,0.00682198104894,0.924735692411,0.0,0.0,0.0,0.0,0.0,0.0,0.0,0.0,0.0,-0.000361299301454,-0.00357715004593,-0.0014200871457,0.0,0.0,0.0,0.0,0.0,0.0,0.0,0.0,0.0,6.67299247314,-0.08526766535,6.9949715591,0.0,0.0,0.0,0.0,0.0,0.0,0.0,0.0,0.0
88812000000,69,88812000000,imu_link,-0.0022738187402,-0.380549384809,0.00681927355472,0.924732660274,0.0,0.0,0.0,0.0,0.0,0.0,0.0,0.0,0.0,0.000169234375618,-0.00401260818437,-0.00154344415381,0.0,0.0,0.0,0.0,0.0,0.0,0.0,0.0,0.0,6.67479591172,-0.0853314116169,7.00124388899,0.0,0.0,0.0,0.0,0.0,0.0,0.0,0.0,0.0
88816000000,70,88816000000,imu_link,-0.00227079635966,-0.380557968078,0.00681680599175,0.924729153629,0.0,0.0,0.0,0.0,0.0,0.0,0.0,0.0,0.0,0.00089467964499,-0.00464334023679,-0.00171380257577,0.0,0.0,0.0,0.0,0.0,0.0,0.0,0.0,0.0,6.6750690291,-0.0852540273288,7.00260439714,0.0,0.0,0.0,0.0,0.0,0.0,0.0,0.0,0.0
88820000000,71,88820000000,imu_link,-0.00226624462805,-0.380567794899,0.00681459672757,0.924725136942,0.0,0.0,0.0,0.0,0.0,0.0,0.0,0.0,0.0,0.00164612861246,-0.00532087060234,-0.00188505122672,0.0,0.0,0.0,0.0,0.0,0.0,0.0,0.0,0.0,6.67512529958,-0.0850231397869,7.00109268936,0.0,0.0,0.0,0.0,0.0,0.0,0.0,0.0,0.0
88824000000,72,88824000000,imu_link,-0.00226038628885,-0.380578762701,0.00681262321019,0.924720651981,0.0,0.0,0.0,0.0,0.0,0.0,0.0,0.0,0.0,0.0022906955978,-0.00594224197322,-0.00202437444226,0.0,0.0,0.0,0.0,0.0,0.0,0.0,0.0,0.0,6.67494977784,-0.0847282017737,6.99765507123,0.0,0.0,0.0,0.0,0.0,0.0,0.0,0.0,0.0
88828000000,73,88828000000,imu_link,-0.0022538003765,-0.380590675271,0.0068108007052,0.924715778645,0.0,0.0,0.0,0.0,0.0,0.0,0.0,0.0,0.0,0.00265217549634,-0.00645561766187,-0.00209274659264,0.0,0.0,0.0,0.0,0.0,0.0,0.0,0.0,0.0,6.6764513523,-0.0844329500997,6.99650333382,0.0,0.0,0.0,0.0,0.0,0.0,0.0,0.0,0.0
88832000000,74,88832000000,imu_link,-0.00224703258936,-0.380603528584,0.00680902814065,0.924710517951,0.0,0.0,0.0,0.0,0.0,0.0,0.0,0.0,0.0,0.0027421300544,-0.00696496581566,-0.00210400717716,0.0,0.0,0.0,0.0,0.0,0.0,0.0,0.0,0.0,6.67778294139,-0.0842295810009,6.99669198743,0.0,0.0,0.0,0.0,0.0,0.0,0.0,0.0,0.0
88836000000,75,88836000000,imu_link,-0.00224043526168,-0.38061740177,0.00680724429224,0.924704836878,0.0,0.0,0.0,0.0,0.0,0.0,0.0,0.0,0.0,0.00265722541598,-0.00751591517591,-0.00207650024626,0.0,0.0,0.0,0.0,0.0,0.0,0.0,0.0,0.0,6.67824040197,-0.0841881887246,6.99630541003,0.0,0.0,0.0,0.0,0.0,0.0,0.0,0.0,0.0
88840000000,76,88840000000,imu_link,-0.0022339332598,-0.380632216427,0.00680546571684,0.924698767706,0.0,0.0,0.0,0.0,0.0,0.0,0.0,0.0,0.0,0.00261051563214,-0.00802474694562,-0.00205565463958,0.0,0.0,0.0,0.0,0.0,0.0,0.0,0.0,0.0,6.67807613693,-0.0843001469618,6.99322773108,0.0,0.0,0.0,0.0,0.0,0.0,0.0,0.0,0.0
88844000000,77,88844000000,imu_link,-0.00222742435547,-0.380647733294,0.00680374128608,0.924692408763,0.0,0.0,0.0,0.0,0.0,0.0,0.0,0.0,0.0,0.00262129847397,-0.00840464491518,-0.00203173287883,0.0,0.0,0.0,0.0,0.0,0.0,0.0,0.0,0.0,6.67754032883,-0.0843845857599,6.98787579276,0.0,0.0,0.0,0.0,0.0,0.0,0.0,0.0,0.0
88848000000,78,88848000000,imu_link,-0.00222078619447,-0.380663727387,0.0068021123896,0.924685852616,0.0,0.0,0.0,0.0,0.0,0.0,0.0,0.0,0.0,0.00269739916892,-0.00866336767554,-0.00201202422729,0.0,0.0,0.0,0.0,0.0,0.0,0.0,0.0,0.0,6.67743534493,-0.084453744331,6.9836224505,0.0,0.0,0.0,0.0,0.0,0.0,0.0,0.0,0.0
88852000000,79,88852000000,imu_link,-0.00221389901254,-0.380680182886,0.00680063453668,0.924679105625,0.0,0.0,0.0,0.0,0.0,0.0,0.0,0.0,0.0,0.00283949946288,-0.00891403331646,-0.0019894501938,0.0,0.0,0.0,0.0,0.0,0.0,0.0,0.0,0.0,6.67712192874,-0.0844889224034,6.98107307749,0.0,0.0,0.0,0.0,0.0,0.0,0.0,0.0,0.0
88856000000,80,88856000000,imu_link,-0.00220679519639,-0.380697098689,0.00679934053053,0.924672167891,0.0,0.0,0.0,0.0,0.0,0.0,0.0,0.0,0.0,0.00297287511249,-0.0091640966016,-0.00194554568763,0.0,0.0,0.0,0.0,0.0,0.0,0.0,0.0,0.0,6.67827381145,-0.0845013051803,6.98146975872,0.0,0.0,0.0,0.0,0.0,0.0,0.0,0.0,0.0
88860000000,81,88860000000,imu_link,-0.00219978305999,-0.380714299989,0.00679821694503,0.924665110721,0.0,0.0,0.0,0.0,0.0,0.0,0.0,0.0,0.0,0.00296182520012,-0.00931870319543,-0.00184921192801,0.0,0.0,0.0,0.0,0.0,0.0,0.0,0.0,0.0,6.67900443651,-0.0844824819826,6.97960120521,0.0,0.0,0.0,0.0,0.0,0.0,0.0,0.0,0.0
88864000000,82,88864000000,imu_link,-0.00219311531256,-0.380731470588,0.00679725960813,0.924658063725,0.0,0.0,0.0,0.0,0.0,0.0,0.0,0.0,0.0,0.00283436512863,-0.0093015841944,-0.00170679370753,0.0,0.0,0.0,0.0,0.0,0.0,0.0,0.0,0.0,6.67946958209,-0.0845194552646,6.97591625737,0.0,0.0,0.0,0.0,0.0,0.0,0.0,0.0,0.0
88868000000,83,88868000000,imu_link,-0.00218720930496,-0.380748253782,0.00679645646963,0.924651172895,0.0,0.0,0.0,0.0,0.0,0.0,0.0,0.0,0.0,0.00251303266854,-0.00909032749581,-0.00149060008864,0.0,0.0,0.0,0.0,0.0,0.0,0.0,0.0,0.0,6.68117683368,-0.0845440800291,6.97420227457,0.0,0.0,0.0,0.0,0.0,0.0,0.0,0.0,0.0
88872000000,84,88872000000,imu_link,-0.00218247713081,-0.380764421665,0.00679576331622,0.924644531476,0.0,0.0,0.0,0.0,0.0,0.0,0.0,0.0,0.0,0.00199364146923,-0.0087545032118,-0.00121645828952,0.0,0.0,0.0,0.0,0.0,0.0,0.0,0.0,0.0,6.68173388268,-0.0845850245573,6.97159546452,0.0,0.0,0.0,0.0,0.0,0.0,0.0,0.0,0.0
88876000000,85,88876000000,imu_link,-0.00217907372176,-0.380779711559,0.00679512286549,0.924638247753,0.0,0.0,0.0,0.0,0.0,0.0,0.0,0.0,0.0,0.00139273106725,-0.00827603293482,-0.000939376747685,0.0,0.0,0.0,0.0,0.0,0.0,0.0,0.0,0.0,6.68152223849,-0.0847012322799,6.96689339808,0.0,0.0,0.0,0.0,0.0,0.0,0.0,0.0,0.0
88880000000,86,88880000000,imu_link,-0.00217690074487,-0.380793885206,0.00679452036651,0.924632420255,0.0,0.0,0.0,0.0,0.0,0.0,0.0,0.0,0.0,0.000835393969896,-0.0076689711178,-0.000687902985148,0.0,0.0,0.0,0.0,0.0,0.0,0.0,0.0,0.0,6.68166492724,-0.0849494726011,6.96362263094,0.0,0.0,0.0,0.0,0.0,0.0,0.0,0.0,0.0
88884000000,87,88884000000,imu_link,-0.00217559246753,-0.380807105966,0.00679401579132,0.924626982189,0.0,0.0,0.0,0.0,0.0,0.0,0.0,0.0,0.0,0.00045793482213,-0.00715145803988,-0.000478280914106,0.0,0.0,0.0,0.0,0.0,0.0,0.0,0.0,0.0,6.68164482162,-0.085277764829,6.96361798816,0.0,0.0,0.0,0.0,0.0,0.0,0.0,0.0,0.0
88888000000,88,88888000000,imu_link,-0.00217484913992,-0.380819733885,0.00679366188892,0.924621785636,0.0,0.0,0.0,0.0,0.0,0.0,0.0,0.0,0.0,0.000227716179051,-0.00682963941372,-0.000301229940652,0.0,0.0,0.0,0.0,0.0,0.0,0.0,0.0,0.0,6.68203769941,-0.0855061191008,6.9659144472,0.0,0.0,0.0,0.0,0.0,0.0,0.0,0.0,0.0
88892000000,89,88892000000,imu_link,-0.0021745243064,-0.380832189625,0.00679346418553,0.924616657666,0.0,0.0,0.0,0.0,0.0,0.0,0.0,0.0,0.0,6.46430713955e-05,-0.00673572926108,-0.00014937776877,0.0,0.0,0.0,0.0,0.0,0.0,0.0,0.0,0.0,6.68258829894,-0.0856594576008,6.96911437199,0.0,0.0,0.0,0.0,0.0,0.0,0.0,0.0,0.0
88896000000,90,88896000000,imu_link,-0.00217451157862,-0.380844531257,0.00679342399349,0.924611574609,0.0,0.0,0.0,0.0,0.0,0.0,0.0,0.0,0.0,-4.92168825952e-05,-0.00667353419566,-1.71574965793e-05,0.0,0.0,0.0,0.0,0.0,0.0,0.0,0.0,0.0,6.68221688126,-0.0857653716266,6.96725210603,0.0,0.0,0.0,0.0,0.0,0.0,0.0,0.0,0.0
88900000000,91,88900000000,imu_link,-0.0021747160166,-0.380856590307,0.0067935425632,0.924606606081,0.0,0.0,0.0,0.0,0.0,0.0,0.0,0.0,0.0,-0.000118297731526,-0.00652052166482,9.751039444e-05,0.0,0.0,0.0,0.0,0.0,0.0,0.0,0.0,0.0,6.68233383075,-0.0858545370185,6.96419377773,0.0,0.0,0.0,0.0,0.0,0.0,0.0,0.0,0.0
88904000000,92,88904000000,imu_link,-0.00217505503039,-0.380868231812,0.00679382041034,0.924601807881,0.0,0.0,0.0,0.0,0.0,0.0,0.0,0.0,0.0,-0.000148578131796,-0.00629476976084,0.000196647371708,0.0,0.0,0.0,0.0,0.0,0.0,0.0,0.0,0.0,6.68256349441,-0.0859517709755,6.96147348848,0.0,0.0,0.0,0.0,0.0,0.0,0.0,0.0,0.0
88908000000,93,88908000000,imu_link,-0.00217551970888,-0.38087958456,0.00679426235813,0.924597126958,0.0,0.0,0.0,0.0,0.0,0.0,0.0,0.0,0.0,-0.000174314249522,-0.00613869554406,0.00029635775155,0.0,0.0,0.0,0.0,0.0,0.0,0.0,0.0,0.0,6.68230346325,-0.0860115657433,6.96015659309,0.0,0.0,0.0,0.0,0.0,0.0,0.0,0.0,0.0
88912000000,94,88912000000,imu_link,-0.00217627568512,-0.380891113863,0.00679484165514,0.924592371443,0.0,0.0,0.0,0.0,0.0,0.0,0.0,0.0,0.0,-0.000283504939885,-0.0062336814265,0.000415390127415,0.0,0.0,0.0,0.0,0.0,0.0,0.0,0.0,0.0,6.68413538021,-0.08601256585,6.96603846239,0.0,0.0,0.0,0.0,0.0,0.0,0.0,0.0,0.0
88916000000,95,88916000000,imu_link,-0.00217744745833,-0.380903230324,0.00679547873119,0.924587372464,0.0,0.0,0.0,0.0,0.0,0.0,0.0,0.0,0.0,-0.00046698227423,-0.00655013899689,0.000521476087214,0.0,0.0,0.0,0.0,0.0,0.0,0.0,0.0,0.0,6.68494250121,-0.0859929838219,6.96950693448,0.0,0.0,0.0,0.0,0.0,0.0,0.0,0.0,0.0
88920000000,96,88920000000,imu_link,-0.00217915734818,-0.380916157129,0.00679609480188,0.924582038332,0.0,0.0,0.0,0.0,0.0,0.0,0.0,0.0,0.0,-0.000722868933302,-0.00698673550683,0.000614507140144,0.0,0.0,0.0,0.0,0.0,0.0,0.0,0.0,0.0,6.68525072228,-0.085998918637,6.97011788028,0.0,0.0,0.0,0.0,0.0,0.0,0.0,0.0,0.0
88924000000,97,88924000000,imu_link,-0.00218151614318,-0.380929743925,0.00679662637862,0.924576431157,0.0,0.0,0.0,0.0,0.0,0.0,0.0,0.0,0.0,-0.00104148469647,-0.00734154959908,0.0006992442821,0.0,0.0,0.0,0.0,0.0,0.0,0.0,0.0,0.0,6.6849480538,-0.0860359019074,6.96627104038,0.0,0.0,0.0,0.0,0.0,0.0,0.0,0.0,0.0
88928000000,98,88928000000,imu_link,-0.00218453880857,-0.380943516216,0.00679705134997,0.924570746528,0.0,0.0,0.0,0.0,0.0,0.0,0.0,0.0,0.0,-0.00136940359059,-0.00743968129293,0.000776466735189,0.0,0.0,0.0,0.0,0.0,0.0,0.0,0.0,0.0,6.68506978457,-0.0861517544552,6.96046105549,0.0,0.0,0.0,0.0,0.0,0.0,0.0,0.0,0.0
88932000000,99,88932000000,imu_link,-0.00218794941198,-0.380956932251,0.00679737364671,0.924565208278,0.0,0.0,0.0,0.0,0.0,0.0,0.0,0.0,0.0,-0.00156692764563,-0.0072456782654,0.000802784655961,0.0,0.0,0.0,0.0,0.0,0.0,0.0,0.0,0.0,6.6874610642,-0.0863596704077,6.95787384825,0.0,0.0,0.0,0.0,0.0,0.0,0.0,0.0,0.0
88936000000,100,88936000000,imu_link,-0.0021910345455,-0.380969645473,0.00679765224985,0.924559960478,0.0,0.0,0.0,0.0,0.0,0.0,0.0,0.0,0.0,-0.00142208487543,-0.00686651327972,0.000720372569462,0.0,0.0,0.0,0.0,0.0,0.0,0.0,0.0,0.0,6.69040782516,-0.0865961984137,6.95860826885,0.0,0.0,0.0,0.0,0.0,0.0,0.0,0.0,0.0
88940000000,101,88940000000,imu_link,-0.00219309054897,-0.380981543501,0.0067979680758,0.924555050549,0.0,0.0,0.0,0.0,0.0,0.0,0.0,0.0,0.0,-0.000936107436878,-0.00642884527192,0.000541290976933,0.0,0.0,0.0,0.0,0.0,0.0,0.0,0.0,0.0,6.69220546525,-0.0867056132864,6.95924571472,0.0,0.0,0.0,0.0,0.0,0.0,0.0,0.0,0.0
88944000000,102,88944000000,imu_link,-0.00219375146161,-0.380992546735,0.00679838598428,0.924550511727,0.0,0.0,0.0,0.0,0.0,0.0,0.0,0.0,0.0,-0.000268294189468,-0.00594936304615,0.00032244929242,0.0,0.0,0.0,0.0,0.0,0.0,0.0,0.0,0.0,6.69279606956,-0.0866392052318,6.95797754571,0.0,0.0,0.0,0.0,0.0,0.0,0.0,0.0,0.0
88948000000,103,88948000000,imu_link,-0.00219313921695,-0.381002563406,0.00679890262722,0.924546381606,0.0,0.0,0.0,0.0,0.0,0.0,0.0,0.0,0.0,0.000342865282903,-0.00541987983065,0.00012525295436,0.0,0.0,0.0,0.0,0.0,0.0,0.0,0.0,0.0,6.69209597654,-0.0864448457136,6.95436787456,0.0,0.0,0.0,0.0,0.0,0.0,0.0,0.0,0.0
88952000000,104,88952000000,imu_link,-0.00219174037673,-0.381011640898,0.00679944897344,0.924542640049,0.0,0.0,0.0,0.0,0.0,0.0,0.0,0.0,0.0,0.000715764619665,-0.00491440691578,-1.11545023782e-05,0.0,0.0,0.0,0.0,0.0,0.0,0.0,0.0,0.0,6.6928172168,-0.0862295111599,6.95459571001,0.0,0.0,0.0,0.0,0.0,0.0,0.0,0.0,0.0
88956000000,105,88956000000,imu_link,-0.00219038159004,-0.381020211344,0.00679989746604,0.924539107972,0.0,0.0,0.0,0.0,0.0,0.0,0.0,0.0,0.0,0.000680560711934,-0.00463986384398,-4.89155142569e-05,0.0,0.0,0.0,0.0,0.0,0.0,0.0,0.0,0.0,6.69537409941,-0.0859899934004,6.96169240334,0.0,0.0,0.0,0.0,0.0,0.0,0.0,0.0,0.0
88960000000,106,88960000000,imu_link,-0.00218981752952,-0.381028886607,0.00680014393266,0.924535532207,0.0,0.0,0.0,0.0,0.0,0.0,0.0,0.0,0.0,0.000274290791536,-0.00469371694947,9.13113615485e-06,0.0,0.0,0.0,0.0,0.0,0.0,0.0,0.0,0.0,6.69770455406,-0.0858423340109,6.97016462568,0.0,0.0,0.0,0.0,0.0,0.0,0.0,0.0,0.0
88964000000,107,88964000000,imu_link,-0.00219034432493,-0.381038201502,0.00680017180849,0.92453169175,0.0,0.0,0.0,0.0,0.0,0.0,0.0,0.0,0.0,-0.000274086052348,-0.00503587767165,0.000116107096016,0.0,0.0,0.0,0.0,0.0,0.0,0.0,0.0,0.0,6.69768579613,-0.0858756810438,6.97321533328,0.0,0.0,0.0,0.0,0.0,0.0,0.0,0.0,0.0
88968000000,108,88968000000,imu_link,-0.00219204069516,-0.381048311547,0.00679996919186,0.924527522383,0.0,0.0,0.0,0.0,0.0,0.0,0.0,0.0,0.0,-0.00086171755021,-0.00546188262523,0.000232632154822,0.0,0.0,0.0,0.0,0.0,0.0,0.0,0.0,0.0,6.69646923823,-0.0859781292879,6.97044429672,0.0,0.0,0.0,0.0,0.0,0.0,0.0,0.0,0.0
88972000000,109,88972000000,imu_link,-0.0021950270558,-0.381058994876,0.00679951402171,0.92452311539,0.0,0.0,0.0,0.0,0.0,0.0,0.0,0.0,0.0,-0.00150836051923,-0.00576750211004,0.000361839735912,0.0,0.0,0.0,0.0,0.0,0.0,0.0,0.0,0.0,6.69607740626,-0.0861380537194,6.96583569221,0.0,0.0,0.0,0.0,0.0,0.0,0.0,0.0,0.0
88976000000,110,88976000000,imu_link,-0.00219928952746,-0.381069852656,0.00679881965383,0.92451863506,0.0,0.0,0.0,0.0,0.0,0.0,0.0,0.0,0.0,-0.00214450538717,-0.00585751585751,0.000494462476616,0.0,0.0,0.0,0.0,0.0,0.0,0.0,0.0,0.0,6.69625446392,-0.0863689090613,6.96055046965,0.0,0.0,0.0,0.0,0.0,0.0,0.0,0.0,0.0
88980000000,111,88980000000,imu_link,-0.00220478655062,-0.38108062111,0.00679790150054,0.924514190084,0.0,0.0,0.0,0.0,0.0,0.0,0.0,0.0,0.0,-0.00275748473064,-0.0058050450702,0.000626218811078,0.0,0.0,0.0,0.0,0.0,0.0,0.0,0.0,0.0,6.69548928357,-0.0865549031776,6.95503074836,0.0,0.0,0.0,0.0,0.0,0.0,0.0,0.0,0.0
88984000000,112,88984000000,imu_link,-0.00221118710033,-0.381091122059,0.00679676715264,0.924509854623,0.0,0.0,0.0,0.0,0.0,0.0,0.0,0.0,0.0,-0.00321531010737,-0.00565721256609,0.000698362208026,0.0,0.0,0.0,0.0,0.0,0.0,0.0,0.0,0.0,6.69467046374,-0.0867673496187,6.95062914436,0.0,0.0,0.0,0.0,0.0,0.0,0.0,0.0,0.0
88988000000,113,88988000000,imu_link,-0.00221819001646,-0.381101368776,0.00679541977821,0.924505623899,0.0,0.0,0.0,0.0,0.0,0.0,0.0,0.0,0.0,-0.00353336844077,-0.00551745293315,0.000714593035273,0.0,0.0,0.0,0.0,0.0,0.0,0.0,0.0,0.0,6.69387027349,-0.0869116903207,6.9478176415,0.0,0.0,0.0,0.0,0.0,0.0,0.0,0.0,0.0
88992000000,114,88992000000,imu_link,-0.00222569111008,-0.381111381447,0.00679383195144,0.924501490035,0.0,0.0,0.0,0.0,0.0,0.0,0.0,0.0,0.0,-0.00380856809397,-0.00538884848909,0.000698301796861,0.0,0.0,0.0,0.0,0.0,0.0,0.0,0.0,0.0,6.69396171316,-0.0869910716169,6.94665705564,0.0,0.0,0.0,0.0,0.0,0.0,0.0,0.0,0.0
88996000000,115,88996000000,imu_link,-0.00223380362304,-0.381121126345,0.0067919731142,0.924497466885,0.0,0.0,0.0,0.0,0.0,0.0,0.0,0.0,0.0,-0.00414180691912,-0.00524159426687,0.0006894583516,0.0,0.0,0.0,0.0,0.0,0.0,0.0,0.0,0.0,6.69479945968,-0.0870388042982,6.94578450835,0.0,0.0,0.0,0.0,0.0,0.0,0.0,0.0,0.0
89000000000,116,89000000000,imu_link,-0.00224271288528,-0.381130313415,0.00678986242301,0.924493673425,0.0,0.0,0.0,0.0,0.0,0.0,0.0,0.0,0.0,-0.004555945777,-0.00493698203927,0.000724711180171,0.0,0.0,0.0,0.0,0.0,0.0,0.0,0.0,0.0,6.69584917221,-0.087019624285,6.94309552519,0.0,0.0,0.0,0.0,0.0,0.0,0.0,0.0,0.0
89004000000,117,89004000000,imu_link,-0.00225250460703,-0.381138716017,0.00678753368231,0.924490202632,0.0,0.0,0.0,0.0,0.0,0.0,0.0,0.0,0.0,-0.00500238749476,-0.00450963481819,0.000791868762114,0.0,0.0,0.0,0.0,0.0,0.0,0.0,0.0,0.0,6.69531863752,-0.0869735980235,6.93837573892,0.0,0.0,0.0,0.0,0.0,0.0,0.0,0.0,0.0
89008000000,118,89008000000,imu_link,-0.00226301946245,-0.381146147429,0.00678499662121,0.9244871318,0.0,0.0,0.0,0.0,0.0,0.0,0.0,0.0,0.0,-0.00537260552574,-0.00398179806289,0.000833117222119,0.0,0.0,0.0,0.0,0.0,0.0,0.0,0.0,0.0,6.69594238472,-0.0870135344432,6.93615913659,0.0,0.0,0.0,0.0,0.0,0.0,0.0,0.0,0.0
89012000000,119,89012000000,imu_link,-0.00227389499432,-0.381152539427,0.0067822398623,0.924484490034,0.0,0.0,0.0,0.0,0.0,0.0,0.0,0.0,0.0,-0.00557718267854,-0.0034180948623,0.000800019050592,0.0,0.0,0.0,0.0,0.0,0.0,0.0,0.0,0.0,6.69757097942,-0.0870856601236,6.93729586607,0.0,0.0,0.0,0.0,0.0,0.0,0.0,0.0,0.0
89016000000,120,89016000000,imu_link,-0.002284774496,-0.381157955298,0.00677927938776,0.924482252014,0.0,0.0,0.0,0.0,0.0,0.0,0.0,0.0,0.0,-0.0056140718561,-0.00288969829751,0.000706350280007,0.0,0.0,0.0,0.0,0.0,0.0,0.0,0.0,0.0,6.69891838716,-0.0871374385184,6.9390629382,0.0,0.0,0.0,0.0,0.0,0.0,0.0,0.0,0.0
89020000000,121,89020000000,imu_link,-0.00229541016114,-0.381162643322,0.00677615449928,0.924480315723,0.0,0.0,0.0,0.0,0.0,0.0,0.0,0.0,0.0,-0.00552988258584,-0.00249639293084,0.000583690011362,0.0,0.0,0.0,0.0,0.0,0.0,0.0,0.0,0.0,6.69898661621,-0.0871213147306,6.93966946337,0.0,0.0,0.0,0.0,0.0,0.0,0.0,0.0,0.0
89024000000,122,89024000000,imu_link,-0.00230565447936,-0.381166980554,0.00677292895348,0.924478525617,0.0,0.0,0.0,0.0,0.0,0.0,0.0,0.0,0.0,-0.0053668134464,-0.00230759301859,0.000462486060607,0.0,0.0,0.0,0.0,0.0,0.0,0.0,0.0,0.0,6.698897076,-0.0870321993726,6.94102495946,0.0,0.0,0.0,0.0,0.0,0.0,0.0,0.0,0.0
89028000000,123,89028000000,imu_link,-0.00231549518843,-0.381171239988,0.00676964802957,0.924476768855,0.0,0.0,0.0,0.0,0.0,0.0,0.0,0.0,0.0,-0.00519050170198,-0.00226658019171,0.000359943648175,0.0,0.0,0.0,0.0,0.0,0.0,0.0,0.0,0.0,6.6994883769,-0.0869150367286,6.9429898407,0.0,0.0,0.0,0.0,0.0,0.0,0.0,0.0,0.0
89032000000,124,89032000000,imu_link,-0.00232515168944,-0.38117559962,0.00676628361925,0.924474971716,0.0,0.0,0.0,0.0,0.0,0.0,0.0,0.0,0.0,-0.00512165087213,-0.00232111742804,0.000286266286837,0.0,0.0,0.0,0.0,0.0,0.0,0.0,0.0,0.0,6.69995388781,-0.0867512157984,6.94370356446,0.0,0.0,0.0,0.0,0.0,0.0,0.0,0.0,0.0
89036000000,125,89036000000,imu_link,-0.00233475633477,-0.381180080589,0.00676283899546,0.924473125128,0.0,0.0,0.0,0.0,0.0,0.0,0.0,0.0,0.0,-0.00511343692909,-0.00238671020198,0.000239331784083,0.0,0.0,0.0,0.0,0.0,0.0,0.0,0.0,0.0,6.70004653195,-0.0866215657476,6.94222022044,0.0,0.0,0.0,0.0,0.0,0.0,0.0,0.0,0.0
89040000000,126,89040000000,imu_link,-0.00234445150396,-0.381184659732,0.00675930219422,0.924471238366,0.0,0.0,0.0,0.0,0.0,0.0,0.0,0.0,0.0,-0.0051732273428,-0.00243933315986,0.000213998180249,0.0,0.0,0.0,0.0,0.0,0.0,0.0,0.0,0.0,6.69977862538,-0.0865281191751,6.93948293742,0.0,0.0,0.0,0.0,0.0,0.0,0.0,0.0,0.0
89044000000,127,89044000000,imu_link,-0.00235422411367,-0.381189275471,0.00675570698274,0.924469336602,0.0,0.0,0.0,0.0,0.0,0.0,0.0,0.0,0.0,-0.00522029691505,-0.00245877826302,0.000201766257798,0.0,0.0,0.0,0.0,0.0,0.0,0.0,0.0,0.0,6.69999671299,-0.0864314768965,6.93742388668,0.0,0.0,0.0,0.0,0.0,0.0,0.0,0.0,0.0
89048000000,128,89048000000,imu_link,-0.0023638486292,-0.381193999507,0.00675210660332,0.924467390456,0.0,0.0,0.0,0.0,0.0,0.0,0.0,0.0,0.0,-0.0051532456916,-0.00251779008841,0.000171173943683,0.0,0.0,0.0,0.0,0.0,0.0,0.0,0.0,0.0,6.70063666844,-0.0863487491294,6.93747224878,0.0,0.0,0.0,0.0,0.0,0.0,0.0,0.0,0.0
89052000000,129,89052000000,imu_link,-0.00237279572801,-0.381198865281,0.0067485375924,0.924465387232,0.0,0.0,0.0,0.0,0.0,0.0,0.0,0.0,0.0,-0.00483468808682,-0.00259650898587,5.65850991668e-05,0.0,0.0,0.0,0.0,0.0,0.0,0.0,0.0,0.0,6.70197734259,-0.0863006351293,6.93869149285,0.0,0.0,0.0,0.0,0.0,0.0,0.0,0.0,0.0
89056000000,130,89056000000,imu_link,-0.00238047324002,-0.381203874048,0.00674502974226,0.924463327738,0.0,0.0,0.0,0.0,0.0,0.0,0.0,0.0,0.0,-0.00423673561068,-0.0026776863233,-0.000157106687574,0.0,0.0,0.0,0.0,0.0,0.0,0.0,0.0,0.0,6.70334345029,-0.0862111065021,6.93979279897,0.0,0.0,0.0,0.0,0.0,0.0,0.0,0.0,0.0
89060000000,131,89060000000,imu_link,-0.0023864885839,-0.381209149801,0.00674158691165,0.924461161859,0.0,0.0,0.0,0.0,0.0,0.0,0.0,0.0,0.0,-0.00345706305379,-0.00282705610213,-0.00044382406418,0.0,0.0,0.0,0.0,0.0,0.0,0.0,0.0,0.0,6.70439883457,-0.0859933204204,6.94118201325,0.0,0.0,0.0,0.0,0.0,0.0,0.0,0.0,0.0
89064000000,132,89064000000,imu_link,-0.00239095902866,-0.381214935018,0.00673817791934,0.924458789559,0.0,0.0,0.0,0.0,0.0,0.0,0.0,0.0,0.0,-0.00273847731668,-0.00310713928594,-0.000722559915626,0.0,0.0,0.0,0.0,0.0,0.0,0.0,0.0,0.0,6.70511552622,-0.0856706416406,6.94259025335,0.0,0.0,0.0,0.0,0.0,0.0,0.0,0.0,0.0
89068000000,133,89068000000,imu_link,-0.00239412021619,-0.38122140728,0.00673478697987,0.924456137123,0.0,0.0,0.0,0.0,0.0,0.0,0.0,0.0,0.0,-0.00213250874553,-0.00348253947482,-0.000963647115688,0.0,0.0,0.0,0.0,0.0,0.0,0.0,0.0,0.0,6.70602627609,-0.0853683898511,6.94377890601,0.0,0.0,0.0,0.0,0.0,0.0,0.0,0.0,0.0
89072000000,134,89072000000,imu_link,-0.00239615836405,-0.381228703204,0.0067314016464,0.924453147818,0.0,0.0,0.0,0.0,0.0,0.0,0.0,0.0,0.0,-0.00161551656507,-0.00393125868661,-0.00117497084408,0.0,0.0,0.0,0.0,0.0,0.0,0.0,0.0,0.0,6.70667715496,-0.0851316900538,6.94431102882,0.0,0.0,0.0,0.0,0.0,0.0,0.0,0.0,0.0
89076000000,135,89076000000,imu_link,-0.00239739606418,-0.381236690197,0.00672801916317,0.924449875493,0.0,0.0,0.0,0.0,0.0,0.0,0.0,0.0,0.0,-0.00124765007347,-0.00430733417732,-0.00132610560789,0.0,0.0,0.0,0.0,0.0,0.0,0.0,0.0,0.0,6.70762604173,-0.0849168937656,6.94302025187,0.0,0.0,0.0,0.0,0.0,0.0,0.0,0.0,0.0
89080000000,136,89080000000,imu_link,-0.00239813003435,-0.381244938452,0.00672463196202,0.924446496668,0.0,0.0,0.0,0.0,0.0,0.0,0.0,0.0,0.0,-0.00101671939545,-0.00445008618484,-0.00142426143352,0.0,0.0,0.0,0.0,0.0,0.0,0.0,0.0,0.0,6.71018193308,-0.0847795219458,6.94180952682,0.0,0.0,0.0,0.0,0.0,0.0,0.0,0.0,0.0
89084000000,137,89084000000,imu_link,-0.00239855382088,-0.381252692085,0.00672123912951,0.924443322579,0.0,0.0,0.0,0.0,0.0,0.0,0.0,0.0,0.0,-0.000872510197265,-0.00418346885008,-0.00148608765102,0.0,0.0,0.0,0.0,0.0,0.0,0.0,0.0,0.0,6.71287025975,-0.0847159011558,6.93772141463,0.0,0.0,0.0,0.0,0.0,0.0,0.0,0.0,0.0
89088000000,138,89088000000,imu_link,-0.00239865980734,-0.381259366151,0.00671784373201,0.924440594483,0.0,0.0,0.0,0.0,0.0,0.0,0.0,0.0,0.0,-0.000721942198332,-0.00360051652989,-0.00154805842032,0.0,0.0,0.0,0.0,0.0,0.0,0.0,0.0,0.0,6.71426545196,-0.0846729211724,6.93307442593,0.0,0.0,0.0,0.0,0.0,0.0,0.0,0.0,0.0
89092000000,139,89092000000,imu_link,-0.00239844392677,-0.381264933176,0.00671444646927,0.924438323743,0.0,0.0,0.0,0.0,0.0,0.0,0.0,0.0,0.0,-0.000569257306935,-0.00300271321006,-0.00161048649754,0.0,0.0,0.0,0.0,0.0,0.0,0.0,0.0,0.0,6.71375582097,-0.0845821224054,6.93066498669,0.0,0.0,0.0,0.0,0.0,0.0,0.0,0.0,0.0
89096000000,140,89096000000,imu_link,-0.00239790625546,-0.381269886353,0.00671104427793,0.924436306995,0.0,0.0,0.0,0.0,0.0,0.0,0.0,0.0,0.0,-0.000419093592209,-0.00267163596209,-0.00167422492591,0.0,0.0,0.0,0.0,0.0,0.0,0.0,0.0,0.0,6.71471157022,-0.0844747858918,6.93560797383,0.0,0.0,0.0,0.0,0.0,0.0,0.0,0.0,0.0
89100000000,141,89100000000,imu_link,-0.00239711901581,-0.381274731146,0.00670766681542,0.924434335373,0.0,0.0,0.0,0.0,0.0,0.0,0.0,0.0,0.0,-0.000298606607913,-0.00261380342424,-0.00171039272624,0.0,0.0,0.0,0.0,0.0,0.0,0.0,0.0,0.0,6.71604933761,-0.0843762686849,6.94128802203,0.0,0.0,0.0,0.0,0.0,0.0,0.0,0.0,0.0
89104000000,142,89104000000,imu_link,-0.0023959751674,-0.381279644233,0.00670433704091,0.924432336118,0.0,0.0,0.0,0.0,0.0,0.0,0.0,0.0,0.0,-0.0001249469723,-0.00265189145714,-0.0017563226504,0.0,0.0,0.0,0.0,0.0,0.0,0.0,0.0,0.0,6.71541418374,-0.0842991059282,6.94015653639,0.0,0.0,0.0,0.0,0.0,0.0,0.0,0.0,0.0
89108000000,143,89108000000,imu_link,-0.00239442638328,-0.381284495144,0.00670106173648,0.924430363119,0.0,0.0,0.0,0.0,0.0,0.0,0.0,0.0,0.0,7.28449106859e-05,-0.00261956971767,-0.00180835609926,0.0,0.0,0.0,0.0,0.0,0.0,0.0,0.0,0.0,6.71557211083,-0.0842518891012,6.93759291229,0.0,0.0,0.0,0.0,0.0,0.0,0.0,0.0,0.0
89112000000,144,89112000000,imu_link,-0.00239239527772,-0.38128912961,0.00669786277907,0.924428480046,0.0,0.0,0.0,0.0,0.0,0.0,0.0,0.0,0.0,0.000311169028432,-0.00250408924493,-0.0018650603589,0.0,0.0,0.0,0.0,0.0,0.0,0.0,0.0,0.0,6.71528512512,-0.0842256244057,6.93403741485,0.0,0.0,0.0,0.0,0.0,0.0,0.0,0.0,0.0
89116000000,145,89116000000,imu_link,-0.00239001684172,-0.381293462948,0.00669474204142,0.924426721467,0.0,0.0,0.0,0.0,0.0,0.0,0.0,0.0,0.0,0.00048777966062,-0.00234242602435,-0.00189517944378,0.0,0.0,0.0,0.0,0.0,0.0,0.0,0.0,0.0,6.71584915729,-0.0841642708153,6.9329447818,0.0,0.0,0.0,0.0,0.0,0.0,0.0,0.0,0.0
89120000000,146,89120000000,imu_link,-0.00238738341161,-0.38129765777,0.00669170685452,0.92442502002,0.0,0.0,0.0,0.0,0.0,0.0,0.0,0.0,0.0,0.000622483251999,-0.00226846621969,-0.0019042762527,0.0,0.0,0.0,0.0,0.0,0.0,0.0,0.0,0.0,6.71674640658,-0.0841280929143,6.93465964583,0.0,0.0,0.0,0.0,0.0,0.0,0.0,0.0,0.0
89124000000,147,89124000000,imu_link,-0.00238448080839,-0.381302051493,0.00668879255623,0.924423236312,0.0,0.0,0.0,0.0,0.0,0.0,0.0,0.0,0.0,0.000769182011516,-0.00237712827639,-0.00189967975692,0.0,0.0,0.0,0.0,0.0,0.0,0.0,0.0,0.0,6.71685652838,-0.0841186981967,6.93655996207,0.0,0.0,0.0,0.0,0.0,0.0,0.0,0.0,0.0
89128000000,148,89128000000,imu_link,-0.00238134819541,-0.381307156008,0.00668602283322,0.924421158919,0.0,0.0,0.0,0.0,0.0,0.0,0.0,0.0,0.0,0.00090033131117,-0.00276259812488,-0.00187657221633,0.0,0.0,0.0,0.0,0.0,0.0,0.0,0.0,0.0,6.71778954536,-0.0841071174795,6.94102630124,0.0,0.0,0.0,0.0,0.0,0.0,0.0,0.0,0.0
89132000000,149,89132000000,imu_link,-0.0023780335753,-0.381313398026,0.00668341452767,0.924418611568,0.0,0.0,0.0,0.0,0.0,0.0,0.0,0.0,0.0,0.00101086949406,-0.00337876319515,-0.00183644699177,0.0,0.0,0.0,0.0,0.0,0.0,0.0,0.0,0.0,6.71796194838,-0.0840959094523,6.94316432508,0.0,0.0,0.0,0.0,0.0,0.0,0.0,0.0,0.0
89136000000,150,89136000000,imu_link,-0.00237451977984,-0.381320997983,0.00668098113219,0.924415503247,0.0,0.0,0.0,0.0,0.0,0.0,0.0,0.0,0.0,0.00113107313053,-0.00411424185611,-0.00179331605592,0.0,0.0,0.0,0.0,0.0,0.0,0.0,0.0,0.0,6.71956728191,-0.0840845993536,6.94614717723,0.0,0.0,0.0,0.0,0.0,0.0,0.0,0.0,0.0
89140000000,151,89140000000,imu_link,-0.00237072203709,-0.381330004554,0.00667875633154,0.924411813813,0.0,0.0,0.0,0.0,0.0,0.0,0.0,0.0,0.0,0.00129669785462,-0.00487638104736,-0.00175076825422,0.0,0.0,0.0,0.0,0.0,0.0,0.0,0.0,0.0,6.72077283596,-0.0840692389382,6.94679654321,0.0,0.0,0.0,0.0,0.0,0.0,0.0,0.0,0.0
89144000000,152,89144000000,imu_link,-0.00236659408109,-0.381340313382,0.00667675818257,0.924407586253,0.0,0.0,0.0,0.0,0.0,0.0,0.0,0.0,0.0,0.00148755230696,-0.00558226547981,-0.00170871525714,0.0,0.0,0.0,0.0,0.0,0.0,0.0,0.0,0.0,6.72058056491,-0.0840336811696,6.94370333214,0.0,0.0,0.0,0.0,0.0,0.0,0.0,0.0,0.0
89148000000,153,89148000000,imu_link,-0.00236227955483,-0.38135174615,0.00667496941745,0.924402893833,0.0,0.0,0.0,0.0,0.0,0.0,0.0,0.0,0.0,0.00160940683996,-0.00619126005742,-0.00164728870786,0.0,0.0,0.0,0.0,0.0,0.0,0.0,0.0,0.0,6.72148292682,-0.083972427416,6.94163865865,0.0,0.0,0.0,0.0,0.0,0.0,0.0,0.0,0.0
89152000000,154,89152000000,imu_link,-0.00235823288485,-0.381364004123,0.00667331124533,0.924397859157,0.0,0.0,0.0,0.0,0.0,0.0,0.0,0.0,0.0,0.00150734584943,-0.00663719109792,-0.00153568710917,0.0,0.0,0.0,0.0,0.0,0.0,0.0,0.0,0.0,6.72439554546,-0.0839293800271,6.9424818329,0.0,0.0,0.0,0.0,0.0,0.0,0.0,0.0,0.0
89156000000,155,89156000000,imu_link,-0.00235476406558,-0.381376854186,0.00667170036429,0.924392578179,0.0,0.0,0.0,0.0,0.0,0.0,0.0,0.0,0.0,0.00124701540746,-0.0069559476355,-0.00140351980877,0.0,0.0,0.0,0.0,0.0,0.0,0.0,0.0,0.0,6.72458784613,-0.0839780869078,6.93899110226,0.0,0.0,0.0,0.0,0.0,0.0,0.0,0.0,0.0
89160000000,156,89160000000,imu_link,-0.00235196010304,-0.381390182175,0.00667008438481,0.924387098135,0.0,0.0,0.0,0.0,0.0,0.0,0.0,0.0,0.0,0.00093692021459,-0.00721257918557,-0.0012789944586,0.0,0.0,0.0,0.0,0.0,0.0,0.0,0.0,0.0,6.72518057146,-0.0841197851334,6.93765627289,0.0,0.0,0.0,0.0,0.0,0.0,0.0,0.0,0.0
89164000000,157,89164000000,imu_link,-0.00234948694533,-0.381403902425,0.00666849333857,0.924381454986,0.0,0.0,0.0,0.0,0.0,0.0,0.0,0.0,0.0,0.000787278991633,-0.00742390870292,-0.00120430494313,0.0,0.0,0.0,0.0,0.0,0.0,0.0,0.0,0.0,6.72563010712,-0.0843224178579,6.93637739436,0.0,0.0,0.0,0.0,0.0,0.0,0.0,0.0,0.0
89168000000,158,89168000000,imu_link,-0.00234679063503,-0.381417998612,0.00666698213377,0.924375656461,0.0,0.0,0.0,0.0,0.0,0.0,0.0,0.0,0.0,0.000904207971987,-0.00762813182546,-0.00120988217398,0.0,0.0,0.0,0.0,0.0,0.0,0.0,0.0,0.0,6.72767604412,-0.0845187315554,6.93858698655,0.0,0.0,0.0,0.0,0.0,0.0,0.0,0.0,0.0
89172000000,159,89172000000,imu_link,-0.00234345868944,-0.381432304038,0.00666562672944,0.924369771822,0.0,0.0,0.0,0.0,0.0,0.0,0.0,0.0,0.0,0.00122690487309,-0.0077435643329,-0.00125905291821,0.0,0.0,0.0,0.0,0.0,0.0,0.0,0.0,0.0,6.72798353805,-0.0845915535106,6.93608531672,0.0,0.0,0.0,0.0,0.0,0.0,0.0,0.0,0.0
89176000000,160,89176000000,imu_link,-0.00233942586655,-0.381446578492,0.00666449488936,0.924363899853,0.0,0.0,0.0,0.0,0.0,0.0,0.0,0.0,0.0,0.00159359515321,-0.00772943058565,-0.00128939946123,0.0,0.0,0.0,0.0,0.0,0.0,0.0,0.0,0.0,6.72965949925,-0.0845921332256,6.93508721292,0.0,0.0,0.0,0.0,0.0,0.0,0.0,0.0,0.0
89180000000,161,89180000000,imu_link,-0.00233504379939,-0.381460533033,0.00666362001121,0.924358158658,0.0,0.0,0.0,0.0,0.0,0.0,0.0,0.0,0.0,0.00180523716971,-0.0075580953367,-0.00123730687663,0.0,0.0,0.0,0.0,0.0,0.0,0.0,0.0,0.0,6.73115278108,-0.0844724996634,6.93411033022,0.0,0.0,0.0,0.0,0.0,0.0,0.0,0.0,0.0
89184000000,162,89184000000,imu_link,-0.00233058605368,-0.381473951648,0.00666299827453,0.924352636734,0.0,0.0,0.0,0.0,0.0,0.0,0.0,0.0,0.0,0.00189053756772,-0.00726912747141,-0.00113484923971,0.0,0.0,0.0,0.0,0.0,0.0,0.0,0.0,0.0,6.73127343982,-0.0843819563612,6.93113085783,0.0,0.0,0.0,0.0,0.0,0.0,0.0,0.0,0.0
89188000000,163,89188000000,imu_link,-0.00232604339224,-0.381486783467,0.00666261438168,0.924347355236,0.0,0.0,0.0,0.0,0.0,0.0,0.0,0.0,0.0,0.00197738429184,-0.00695262642985,-0.00104123721446,0.0,0.0,0.0,0.0,0.0,0.0,0.0,0.0,0.0,6.73122597871,-0.0843870332455,6.92951597475,0.0,0.0,0.0,0.0,0.0,0.0,0.0,0.0,0.0
89192000000,164,89192000000,imu_link,-0.00232112607382,-0.381499082818,0.00666246341852,0.924342292533,0.0,0.0,0.0,0.0,0.0,0.0,0.0,0.0,0.0,0.0021969989611,-0.00666631876605,-0.00100515618089,0.0,0.0,0.0,0.0,0.0,0.0,0.0,0.0,0.0,6.73120422742,-0.0844317154541,6.92867543502,0.0,0.0,0.0,0.0,0.0,0.0,0.0,0.0,0.0
89196000000,165,89196000000,imu_link,-0.00231562349095,-0.381510858691,0.00666253959946,0.924337445501,0.0,0.0,0.0,0.0,0.0,0.0,0.0,0.0,0.0,0.00251281306601,-0.00638545663156,-0.00101192658447,0.0,0.0,0.0,0.0,0.0,0.0,0.0,0.0,0.0,6.73175385585,-0.0844381858245,6.92823535028,0.0,0.0,0.0,0.0,0.0,0.0,0.0,0.0,0.0
89200000000,166,89200000000,imu_link,-0.00230947633107,-0.381522011611,0.00666282015002,0.924332855525,0.0,0.0,0.0,0.0,0.0,0.0,0.0,0.0,0.0,0.00285207385824,-0.00605089642157,-0.00104056496115,0.0,0.0,0.0,0.0,0.0,0.0,0.0,0.0,0.0,6.73234760666,-0.084441465454,6.92722213306,0.0,0.0,0.0,0.0,0.0,0.0,0.0,0.0,0.0
89204000000,167,89204000000,imu_link,-0.0023027389797,-0.381532535717,0.00666328765057,0.924328525028,0.0,0.0,0.0,0.0,0.0,0.0,0.0,0.0,0.0,0.00316289778488,-0.00571296334505,-0.00106688679288,0.0,0.0,0.0,0.0,0.0,0.0,0.0,0.0,0.0,6.73154635366,-0.0844515253452,6.9244531432,0.0,0.0,0.0,0.0,0.0,0.0,0.0,0.0,0.0
89208000000,168,89208000000,imu_link,-0.00229557807842,-0.381542489981,0.00666389407371,0.924324429611,0.0,0.0,0.0,0.0,0.0,0.0,0.0,0.0,0.0,0.00338731834321,-0.00540632809368,-0.00108360787321,0.0,0.0,0.0,0.0,0.0,0.0,0.0,0.0,0.0,6.73230255736,-0.084448498524,6.92506836596,0.0,0.0,0.0,0.0,0.0,0.0,0.0,0.0,0.0
89212000000,169,89212000000,imu_link,-0.00228835015373,-0.381552033134,0.00666452473269,0.924320503708,0.0,0.0,0.0,0.0,0.0,0.0,0.0,0.0,0.0,0.00342448189262,-0.00518424081536,-0.00108528606421,0.0,0.0,0.0,0.0,0.0,0.0,0.0,0.0,0.0,6.73461624065,-0.0844361624491,6.92928753808,0.0,0.0,0.0,0.0,0.0,0.0,0.0,0.0,0.0
89216000000,170,89216000000,imu_link,-0.00228133091859,-0.381561271701,0.00666509119664,0.924316703315,0.0,0.0,0.0,0.0,0.0,0.0,0.0,0.0,0.0,0.00331694556897,-0.00501876077077,-0.00107521122939,0.0,0.0,0.0,0.0,0.0,0.0,0.0,0.0,0.0,6.73619748248,-0.0844724057359,6.93180097846,0.0,0.0,0.0,0.0,0.0,0.0,0.0,0.0,0.0
89220000000,171,89220000000,imu_link,-0.00227465978835,-0.381570247678,0.00666557820635,0.924313010877,0.0,0.0,0.0,0.0,0.0,0.0,0.0,0.0,0.0,0.0031419058908,-0.00487555582268,-0.00104558023519,0.0,0.0,0.0,0.0,0.0,0.0,0.0,0.0,0.0,6.73737401913,-0.0845933703625,6.93297518653,0.0,0.0,0.0,0.0,0.0,0.0,0.0,0.0,0.0
89224000000,172,89224000000,imu_link,-0.00226842651322,-0.381579008637,0.00666599633135,0.924309406477,0.0,0.0,0.0,0.0,0.0,0.0,0.0,0.0,0.0,0.00292722286147,-0.00475784959674,-0.000993928374493,0.0,0.0,0.0,0.0,0.0,0.0,0.0,0.0,0.0,6.7361823597,-0.0846844131567,6.92996282071,0.0,0.0,0.0,0.0,0.0,0.0,0.0,0.0,0.0
89228000000,173,89228000000,imu_link,-0.00226248754194,-0.381587692693,0.00666638181566,0.924305833201,0.0,0.0,0.0,0.0,0.0,0.0,0.0,0.0,0.0,0.00278527306963,-0.00471535267973,-0.000952879850165,0.0,0.0,0.0,0.0,0.0,0.0,0.0,0.0,0.0,6.73589651362,-0.0848156181886,6.92933217102,0.0,0.0,0.0,0.0,0.0,0.0,0.0,0.0,0.0
89232000000,174,89232000000,imu_link,-0.00225672804255,-0.381596405508,0.00666676246526,0.924302247514,0.0,0.0,0.0,0.0,0.0,0.0,0.0,0.0,0.0,0.00270129727794,-0.00473040813179,-0.000920863257152,0.0,0.0,0.0,0.0,0.0,0.0,0.0,0.0,0.0,6.73568450627,-0.0849128575666,6.92853160038,0.0,0.0,0.0,0.0,0.0,0.0,0.0,0.0,0.0
89236000000,175,89236000000,imu_link,-0.00225112409782,-0.381605118923,0.00666713773229,0.924298661108,0.0,0.0,0.0,0.0,0.0,0.0,0.0,0.0,0.0,0.00262837772921,-0.00473029750104,-0.000893669549136,0.0,0.0,0.0,0.0,0.0,0.0,0.0,0.0,0.0,6.73538510097,-0.0849658625258,6.92634953288,0.0,0.0,0.0,0.0,0.0,0.0,0.0,0.0,0.0
89240000000,176,89240000000,imu_link,-0.0022455957599,-0.381613707938,0.00666752341626,0.924295125674,0.0,0.0,0.0,0.0,0.0,0.0,0.0,0.0,0.0,0.00259589573117,-0.00466284074966,-0.000874459293435,0.0,0.0,0.0,0.0,0.0,0.0,0.0,0.0,0.0,6.73551570257,-0.0850242993176,6.92390667117,0.0,0.0,0.0,0.0,0.0,0.0,0.0,0.0,0.0
89244000000,177,89244000000,imu_link,-0.00224008604751,-0.381622025344,0.00666792783282,0.924291702075,0.0,0.0,0.0,0.0,0.0,0.0,0.0,0.0,0.0,0.00259189334937,-0.00451593723648,-0.00086231606118,0.0,0.0,0.0,0.0,0.0,0.0,0.0,0.0,0.0,6.73575182003,-0.0851219529382,6.92174646773,0.0,0.0,0.0,0.0,0.0,0.0,0.0,0.0,0.0
89248000000,178,89248000000,imu_link,-0.00223470238691,-0.381630041958,0.00666836389579,0.924288402017,0.0,0.0,0.0,0.0,0.0,0.0,0.0,0.0,0.0,0.00254081871723,-0.0043529694981,-0.000823713715356,0.0,0.0,0.0,0.0,0.0,0.0,0.0,0.0,0.0,6.73508961769,-0.0852267495765,6.91928983228,0.0,0.0,0.0,0.0,0.0,0.0,0.0,0.0,0.0
89252000000,179,89252000000,imu_link,-0.00222948885384,-0.381638068486,0.00666888392335,0.924285096736,0.0,0.0,0.0,0.0,0.0,0.0,0.0,0.0,0.0,0.00247817807688,-0.00435807475629,-0.000752440747209,0.0,0.0,0.0,0.0,0.0,0.0,0.0,0.0,0.0,6.73528310444,-0.0853390027199,6.92123744586,0.0,0.0,0.0,0.0,0.0,0.0,0.0,0.0,0.0
89256000000,180,89256000000,imu_link,-0.00222434824681,-0.381646737215,0.00666954937647,0.924281524948,0.0,0.0,0.0,0.0,0.0,0.0,0.0,0.0,0.0,0.00246978735239,-0.00470563652355,-0.000671144962619,0.0,0.0,0.0,0.0,0.0,0.0,0.0,0.0,0.0,6.73714092311,-0.0854749172017,6.92896922847,0.0,0.0,0.0,0.0,0.0,0.0,0.0,0.0,0.0
89260000000,181,89260000000,imu_link,-0.00221899197951,-0.381656537978,0.00667040013858,0.924277484771,0.0,0.0,0.0,0.0,0.0,0.0,0.0,0.0,0.0,0.00260051803058,-0.00531910046074,-0.000626356195367,0.0,0.0,0.0,0.0,0.0,0.0,0.0,0.0,0.0,6.73796513483,-0.0855995791172,6.93330535361,0.0,0.0,0.0,0.0,0.0,0.0,0.0,0.0,0.0
89264000000,182,89264000000,imu_link,-0.00221338024153,-0.381667496946,0.00667139437808,0.924272965752,0.0,0.0,0.0,0.0,0.0,0.0,0.0,0.0,0.0,0.00274156634742,-0.00594673981882,-0.000608488751494,0.0,0.0,0.0,0.0,0.0,0.0,0.0,0.0,0.0,6.73782054698,-0.0856246520724,6.93146070927,0.0,0.0,0.0,0.0,0.0,0.0,0.0,0.0,0.0
89268000000,183,89268000000,imu_link,-0.00220762874805,-0.381679182712,0.00667248675133,0.924268146038,0.0,0.0,0.0,0.0,0.0,0.0,0.0,0.0,0.0,0.00282212254809,-0.00634057673971,-0.000589608942494,0.0,0.0,0.0,0.0,0.0,0.0,0.0,0.0,0.0,6.73994229521,-0.0856450117001,6.92936416213,0.0,0.0,0.0,0.0,0.0,0.0,0.0,0.0,0.0
89272000000,184,89272000000,imu_link,-0.00220217799198,-0.381691085674,0.00667360882027,0.924263235488,0.0,0.0,0.0,0.0,0.0,0.0,0.0,0.0,0.0,0.0026879837672,-0.00645731541538,-0.000518429640945,0.0,0.0,0.0,0.0,0.0,0.0,0.0,0.0,0.0,6.74110599756,-0.0856013746902,6.92508777324,0.0,0.0,0.0,0.0,0.0,0.0,0.0,0.0,0.0
89276000000,185,89276000000,imu_link,-0.00219756134362,-0.381702946939,0.00667473910278,0.924258339903,0.0,0.0,0.0,0.0,0.0,0.0,0.0,0.0,0.0,0.00230423935582,-0.00643241566092,-0.000355452176076,0.0,0.0,0.0,0.0,0.0,0.0,0.0,0.0,0.0,6.74309986881,-0.0856112681918,6.92517321356,0.0,0.0,0.0,0.0,0.0,0.0,0.0,0.0,0.0
89280000000,186,89280000000,imu_link,-0.00219417582878,-0.381714966915,0.00667587355857,0.924253375616,0.0,0.0,0.0,0.0,0.0,0.0,0.0,0.0,0.0,0.00173548795733,-0.00651476814732,-0.000118505040723,0.0,0.0,0.0,0.0,0.0,0.0,0.0,0.0,0.0,6.74333865388,-0.0856930209577,6.9262774427,0.0,0.0,0.0,0.0,0.0,0.0,0.0,0.0,0.0
89284000000,187,89284000000,imu_link,-0.00219201185555,-0.381727486667,0.00667703725537,0.924248201611,0.0,0.0,0.0,0.0,0.0,0.0,0.0,0.0,0.0,0.0011746635465,-0.00678170909146,0.00012830009775,0.0,0.0,0.0,0.0,0.0,0.0,0.0,0.0,0.0,6.74329067024,-0.0858936494114,6.92804016132,0.0,0.0,0.0,0.0,0.0,0.0,0.0,0.0,0.0
89288000000,188,89288000000,imu_link,-0.00219093194502,-0.381740632372,0.00667821309132,0.924242766206,0.0,0.0,0.0,0.0,0.0,0.0,0.0,0.0,0.0,0.000673632717216,-0.00711726256134,0.00034100479117,0.0,0.0,0.0,0.0,0.0,0.0,0.0,0.0,0.0,6.74240048356,-0.0861507614881,6.92622265363,0.0,0.0,0.0,0.0,0.0,0.0,0.0,0.0,0.0
89292000000,189,89292000000,imu_link,-0.00219090240051,-0.381754339331,0.00667937069389,0.924237096397,0.0,0.0,0.0,0.0,0.0,0.0,0.0,0.0,0.0,0.000182625039795,-0.00741784407452,0.000533230323641,0.0,0.0,0.0,0.0,0.0,0.0,0.0,0.0,0.0,6.74259759838,-0.0864074672052,6.92450972834,0.0,0.0,0.0,0.0,0.0,0.0,0.0,0.0,0.0
89296000000,190,89296000000,imu_link,-0.00219227529651,-0.381768523144,0.00668043749739,0.924231226707,0.0,0.0,0.0,0.0,0.0,0.0,0.0,0.0,0.0,-0.000484611706733,-0.00767157663558,0.000759109426911,0.0,0.0,0.0,0.0,0.0,0.0,0.0,0.0,0.0,6.74478033258,-0.0866075514045,6.926375454,0.0,0.0,0.0,0.0,0.0,0.0,0.0,0.0,0.0
89300000000,191,89300000000,imu_link,-0.00219545365374,-0.381782999913,0.00668133969502,0.924225232647,0.0,0.0,0.0,0.0,0.0,0.0,0.0,0.0,0.0,-0.0013514790627,-0.00782448501388,0.00102777092389,0.0,0.0,0.0,0.0,0.0,0.0,0.0,0.0,0.0,6.74627811634,-0.0868067621682,6.9259709259,0.0,0.0,0.0,0.0,0.0,0.0,0.0,0.0,0.0
89304000000,192,89304000000,imu_link,-0.00220064959556,-0.381797575067,0.00668200008228,0.924219194612,0.0,0.0,0.0,0.0,0.0,0.0,0.0,0.0,0.0,-0.00233036684408,-0.00787133917076,0.0013012059554,0.0,0.0,0.0,0.0,0.0,0.0,0.0,0.0,0.0,6.74652197267,-0.0870556018717,6.92334213136,0.0,0.0,0.0,0.0,0.0,0.0,0.0,0.0,0.0
89308000000,193,89308000000,imu_link,-0.00220757584344,-0.381812131677,0.00668239050346,0.92421316176,0.0,0.0,0.0,0.0,0.0,0.0,0.0,0.0,0.0,-0.00318142642064,-0.00785570219289,0.00150676845648,0.0,0.0,0.0,0.0,0.0,0.0,0.0,0.0,0.0,6.74609388043,-0.087399991645,6.92046007443,0.0,0.0,0.0,0.0,0.0,0.0,0.0,0.0,0.0
89312000000,194,89312000000,imu_link,-0.00221540945161,-0.381826506582,0.00668252369595,0.924207203342,0.0,0.0,0.0,0.0,0.0,0.0,0.0,0.0,0.0,-0.00364914082786,-0.00775420968777,0.00156107383756,0.0,0.0,0.0,0.0,0.0,0.0,0.0,0.0,0.0,6.74770044554,-0.0878025877535,6.92098990432,0.0,0.0,0.0,0.0,0.0,0.0,0.0,0.0,0.0
89316000000,195,89316000000,imu_link,-0.00222336730138,-0.381840319433,0.00668243641301,0.924201478108,0.0,0.0,0.0,0.0,0.0,0.0,0.0,0.0,0.0,-0.00374650873057,-0.00744930520276,0.00148275417275,0.0,0.0,0.0,0.0,0.0,0.0,0.0,0.0,0.0,6.75012770185,-0.0880378426128,6.92073545361,0.0,0.0,0.0,0.0,0.0,0.0,0.0,0.0,0.0
89320000000,196,89320000000,imu_link,-0.00223120066904,-0.381853207177,0.00668216026268,0.92419613646,0.0,0.0,0.0,0.0,0.0,0.0,0.0,0.0,0.0,-0.00372152663741,-0.00694878448159,0.00137145905106,0.0,0.0,0.0,0.0,0.0,0.0,0.0,0.0,0.0,6.74966505285,-0.0880033176748,6.91534319537,0.0,0.0,0.0,0.0,0.0,0.0,0.0,0.0,0.0
89324000000,197,89324000000,imu_link,-0.00223923920897,-0.381864992924,0.00668170331158,0.924191250677,0.0,0.0,0.0,0.0,0.0,0.0,0.0,0.0,0.0,-0.0038466656055,-0.00635162998093,0.00132679051773,0.0,0.0,0.0,0.0,0.0,0.0,0.0,0.0,0.0,6.74919490194,-0.0878508283393,6.91193583812,0.0,0.0,0.0,0.0,0.0,0.0,0.0,0.0,0.0
89328000000,198,89328000000,imu_link,-0.0022479251608,-0.381875676267,0.0066810756943,0.924186819824,0.0,0.0,0.0,0.0,0.0,0.0,0.0,0.0,0.0,-0.00417422520921,-0.00575299840965,0.00137125280748,0.0,0.0,0.0,0.0,0.0,0.0,0.0,0.0,0.0,6.74950874885,-0.0877419394004,6.91162367838,0.0,0.0,0.0,0.0,0.0,0.0,0.0,0.0,0.0
89332000000,199,89332000000,imu_link,-0.00225743883435,-0.381885427227,0.00668031477206,0.92418277296,0.0,0.0,0.0,0.0,0.0,0.0,0.0,0.0,0.0,-0.00457861667467,-0.00524591810982,0.00146746209633,0.0,0.0,0.0,0.0,0.0,0.0,0.0,0.0,0.0,6.75001211716,-0.0877422938822,6.91321163168,0.0,0.0,0.0,0.0,0.0,0.0,0.0,0.0,0.0
89336000000,200,89336000000,imu_link,-0.00226730961569,-0.381894536449,0.00667951792215,0.924178990444,0.0,0.0,0.0,0.0,0.0,0.0,0.0,0.0,0.0,-0.00474805135319,-0.00489766707287,0.00151888873712,0.0,0.0,0.0,0.0,0.0,0.0,0.0,0.0,0.0,6.75059835041,-0.0879117600789,6.91555862106,0.0,0.0,0.0,0.0,0.0,0.0,0.0,0.0,0.0
89340000000,201,89340000000,imu_link,-0.00227669975323,-0.381903189157,0.00667875251015,0.924175397322,0.0,0.0,0.0,0.0,0.0,0.0,0.0,0.0,0.0,-0.0045182085664,-0.00465219421414,0.00144152324669,0.0,0.0,0.0,0.0,0.0,0.0,0.0,0.0,0.0,6.75253403127,-0.0881182438588,6.91991871914,0.0,0.0,0.0,0.0,0.0,0.0,0.0,0.0,0.0
89344000000,202,89344000000,imu_link,-0.00228491720582,-0.381911510731,0.00667807041324,0.924171943147,0.0,0.0,0.0,0.0,0.0,0.0,0.0,0.0,0.0,-0.00395915217867,-0.00447665957749,0.00125600901191,0.0,0.0,0.0,0.0,0.0,0.0,0.0,0.0,0.0,6.75363632229,-0.0881578376113,6.9218961656,0.0,0.0,0.0,0.0,0.0,0.0,0.0,0.0,0.0
89348000000,203,89348000000,imu_link,-0.00229173730336,-0.381919635846,0.0066774641488,0.924168572917,0.0,0.0,0.0,0.0,0.0,0.0,0.0,0.0,0.0,-0.0032982214716,-0.00437460120375,0.00102416129055,0.0,0.0,0.0,0.0,0.0,0.0,0.0,0.0,0.0,6.75285810804,-0.0879986183122,6.92042637332,0.0,0.0,0.0,0.0,0.0,0.0,0.0,0.0,0.0
89352000000,204,89352000000,imu_link,-0.00229730832001,-0.381927776042,0.00667689453801,0.924165199162,0.0,0.0,0.0,0.0,0.0,0.0,0.0,0.0,0.0,-0.00271409584245,-0.00438645546544,0.000802568599079,0.0,0.0,0.0,0.0,0.0,0.0,0.0,0.0,0.0,6.75341278939,-0.0877669489859,6.92197226619,0.0,0.0,0.0,0.0,0.0,0.0,0.0,0.0,0.0
89356000000,205,89356000000,imu_link,-0.00230177208548,-0.381936121459,0.00667634285657,0.924161743103,0.0,0.0,0.0,0.0,0.0,0.0,0.0,0.0,0.0,-0.00219981013575,-0.00450071863873,0.000599447486174,0.0,0.0,0.0,0.0,0.0,0.0,0.0,0.0,0.0,6.75299011578,-0.0875300505342,6.92139000775,0.0,0.0,0.0,0.0,0.0,0.0,0.0,0.0,0.0
89360000000,206,89360000000,imu_link,-0.00230516088868,-0.381944918204,0.00667582580869,0.924158102838,0.0,0.0,0.0,0.0,0.0,0.0,0.0,0.0,0.0,-0.00169819534095,-0.00474807449492,0.000410263023134,0.0,0.0,0.0,0.0,0.0,0.0,0.0,0.0,0.0,6.75311906896,-0.0872899778135,6.92254696454,0.0,0.0,0.0,0.0,0.0,0.0,0.0,0.0,0.0
89364000000,207,89364000000,imu_link,-0.00230731569327,-0.381954264677,0.00667537790022,0.924154237841,0.0,0.0,0.0,0.0,0.0,0.0,0.0,0.0,0.0,-0.00111688067219,-0.00504920858025,0.000206667670008,0.0,0.0,0.0,0.0,0.0,0.0,0.0,0.0,0.0,6.75292335433,-0.0870553485494,6.92166042979,0.0,0.0,0.0,0.0,0.0,0.0,0.0,0.0,0.0
89368000000,208,89368000000,imu_link,-0.00230824512234,-0.381963993688,0.00667501948327,0.924150217035,0.0,0.0,0.0,0.0,0.0,0.0,0.0,0.0,0.0,-0.000535028399951,-0.00525991993751,1.40796778296e-05,0.0,0.0,0.0,0.0,0.0,0.0,0.0,0.0,0.0,6.75305357146,-0.0868279590481,6.91888843175,0.0,0.0,0.0,0.0,0.0,0.0,0.0,0.0,0.0
89372000000,209,89372000000,imu_link,-0.0023084425652,-0.381973952893,0.00667473586,0.924146102251,0.0,0.0,0.0,0.0,0.0,0.0,0.0,0.0,0.0,-0.000183388275568,-0.00538676389141,-9.11082360208e-05,0.0,0.0,0.0,0.0,0.0,0.0,0.0,0.0,0.0,6.75396752377,-0.0865598602684,6.91802938817,0.0,0.0,0.0,0.0,0.0,0.0,0.0,0.0,0.0
89376000000,210,89376000000,imu_link,-0.00230874206719,-0.381984179843,0.00667449041576,0.924141876141,0.0,0.0,0.0,0.0,0.0,0.0,0.0,0.0,0.0,-0.000224277414014,-0.00553144709528,-5.39122692504e-05,0.0,0.0,0.0,0.0,0.0,0.0,0.0,0.0,0.0,6.75519739023,-0.0863152939549,6.91964243327,0.0,0.0,0.0,0.0,0.0,0.0,0.0,0.0,0.0
89380000000,211,89380000000,imu_link,-0.00231011959789,-0.381994908999,0.00667419800021,0.924137439955,0.0,0.0,0.0,0.0,0.0,0.0,0.0,0.0,0.0,-0.000733292789064,-0.00579997294263,0.000130399954827,0.0,0.0,0.0,0.0,0.0,0.0,0.0,0.0,0.0,6.75770395188,-0.086226897546,6.92524262444,0.0,0.0,0.0,0.0,0.0,0.0,0.0,0.0,0.0
89384000000,212,89384000000,imu_link,-0.00231294314903,-0.382006226356,0.00667382161502,0.924132757468,0.0,0.0,0.0,0.0,0.0,0.0,0.0,0.0,0.0,-0.00141973896201,-0.00611388228001,0.000367928959583,0.0,0.0,0.0,0.0,0.0,0.0,0.0,0.0,0.0,6.75729881393,-0.086379857418,6.92385672095,0.0,0.0,0.0,0.0,0.0,0.0,0.0,0.0,0.0
89388000000,213,89388000000,imu_link,-0.00231694949071,-0.38201800075,0.00667336468317,0.924127883494,0.0,0.0,0.0,0.0,0.0,0.0,0.0,0.0,0.0,-0.00198339791611,-0.00635759852831,0.00055673814684,0.0,0.0,0.0,0.0,0.0,0.0,0.0,0.0,0.0,6.75643649092,-0.0866527966847,6.91941291937,0.0,0.0,0.0,0.0,0.0,0.0,0.0,0.0,0.0
89392000000,214,89392000000,imu_link,-0.00232142383962,-0.382030173153,0.00667289535121,0.924122843706,0.0,0.0,0.0,0.0,0.0,0.0,0.0,0.0,0.0,-0.00220353583065,-0.00657160043632,0.000640494290193,0.0,0.0,0.0,0.0,0.0,0.0,0.0,0.0,0.0,6.75862217392,-0.0869909741256,6.9212294404,0.0,0.0,0.0,0.0,0.0,0.0,0.0,0.0,0.0
89396000000,215,89396000000,imu_link,-0.00232611418736,-0.382042669253,0.00667248492654,0.924117668919,0.0,0.0,0.0,0.0,0.0,0.0,0.0,0.0,0.0,-0.00229332507064,-0.0067463025316,0.000709046806269,0.0,0.0,0.0,0.0,0.0,0.0,0.0,0.0,0.0,6.75868913302,-0.0871269936329,6.9190664662,0.0,0.0,0.0,0.0,0.0,0.0,0.0,0.0,0.0
89400000000,216,89400000000,imu_link,-0.00233155824725,-0.382055332263,0.00667212170335,0.924112422662,0.0,0.0,0.0,0.0,0.0,0.0,0.0,0.0,0.0,-0.00263320791829,-0.00683461761047,0.000874876086002,0.0,0.0,0.0,0.0,0.0,0.0,0.0,0.0,0.0,6.75984889148,-0.0871137827403,6.9184760242,0.0,0.0,0.0,0.0,0.0,0.0,0.0,0.0,0.0
89404000000,217,89404000000,imu_link,-0.00233836444851,-0.382067987005,0.00667173886806,0.924107176283,0.0,0.0,0.0,0.0,0.0,0.0,0.0,0.0,0.0,-0.00326631280596,-0.00682625342096,0.00112603091908,0.0,0.0,0.0,0.0,0.0,0.0,0.0,0.0,0.0,6.76035163969,-0.0871011426045,6.91672082708,0.0,0.0,0.0,0.0,0.0,0.0,0.0,0.0,0.0
89408000000,218,89408000000,imu_link,-0.00234690493078,-0.38208061732,0.0066712495744,0.924101936117,0.0,0.0,0.0,0.0,0.0,0.0,0.0,0.0,0.0,-0.0040878919934,-0.00680787042132,0.0014081559198,0.0,0.0,0.0,0.0,0.0,0.0,0.0,0.0,0.0,6.76078195119,-0.0871610106931,6.91618916459,0.0,0.0,0.0,0.0,0.0,0.0,0.0,0.0,0.0
89412000000,219,89412000000,imu_link,-0.00235710209469,-0.382093313168,0.00667059901676,0.924096665512,0.0,0.0,0.0,0.0,0.0,0.0,0.0,0.0,0.0,-0.00488442557788,-0.00683824932084,0.00165016133626,0.0,0.0,0.0,0.0,0.0,0.0,0.0,0.0,0.0,6.7607773255,-0.0873606652409,6.91598463969,0.0,0.0,0.0,0.0,0.0,0.0,0.0,0.0,0.0
89416000000,220,89416000000,imu_link,-0.00236875420244,-0.382106111257,0.00666978898462,0.924091349737,0.0,0.0,0.0,0.0,0.0,0.0,0.0,0.0,0.0,-0.00558754126357,-0.0068890787286,0.00185446872799,0.0,0.0,0.0,0.0,0.0,0.0,0.0,0.0,0.0,6.7603150967,-0.0875793333682,6.91436994229,0.0,0.0,0.0,0.0,0.0,0.0,0.0,0.0,0.0
89420000000,221,89420000000,imu_link,-0.00238163807237,-0.382119035161,0.00666887202958,0.924085979178,0.0,0.0,0.0,0.0,0.0,0.0,0.0,0.0,0.0,-0.00617758406464,-0.00695344337878,0.00204043108169,0.0,0.0,0.0,0.0,0.0,0.0,0.0,0.0,0.0,6.76051168857,-0.0877733042306,6.9134741153,0.0,0.0,0.0,0.0,0.0,0.0,0.0,0.0,0.0
89424000000,222,89424000000,imu_link,-0.00239566271473,-0.382132069058,0.00666788197097,0.924080560313,0.0,0.0,0.0,0.0,0.0,0.0,0.0,0.0,0.0,-0.00671906138571,-0.00700960337482,0.00222463961271,0.0,0.0,0.0,0.0,0.0,0.0,0.0,0.0,0.0,6.76125855301,-0.0879035062259,6.91322274968,0.0,0.0,0.0,0.0,0.0,0.0,0.0,0.0,0.0
89428000000,223,89428000000,imu_link,-0.00241077286952,-0.382145250094,0.00666684564186,0.924075077672,0.0,0.0,0.0,0.0,0.0,0.0,0.0,0.0,0.0,-0.00723001952206,-0.00708609818735,0.00241070170786,0.0,0.0,0.0,0.0,0.0,0.0,0.0,0.0,0.0,6.76112650654,-0.088019099829,6.91207971502,0.0,0.0,0.0,0.0,0.0,0.0,0.0,0.0,0.0
89432000000,224,89432000000,imu_link,-0.00242702373234,-0.38215860374,0.00666574187026,0.924069520668,0.0,0.0,0.0,0.0,0.0,0.0,0.0,0.0,0.0,-0.00777062088794,-0.00717617562029,0.00259753864126,0.0,0.0,0.0,0.0,0.0,0.0,0.0,0.0,0.0,6.7609581911,-0.0881168984402,6.91087972403,0.0,0.0,0.0,0.0,0.0,0.0,0.0,0.0,0.0
89436000000,225,89436000000,imu_link,-0.00244441654619,-0.382171975152,0.0066645712503,0.924063953266,0.0,0.0,0.0,0.0,0.0,0.0,0.0,0.0,0.0,-0.00831108712005,-0.00718248357988,0.00278486868331,0.0,0.0,0.0,0.0,0.0,0.0,0.0,0.0,0.0,6.76178094725,-0.0882491772062,6.90969939436,0.0,0.0,0.0,0.0,0.0,0.0,0.0,0.0,0.0
89440000000,226,89440000000,imu_link,-0.00246271005292,-0.382185306713,0.00666333044326,0.924058399897,0.0,0.0,0.0,0.0,0.0,0.0,0.0,0.0,0.0,-0.00874049785907,-0.00715830287392,0.00292455173819,0.0,0.0,0.0,0.0,0.0,0.0,0.0,0.0,0.0,6.76152602938,-0.0884166123349,6.90754130562,0.0,0.0,0.0,0.0,0.0,0.0,0.0,0.0,0.0
89444000000,227,89444000000,imu_link,-0.00248129181104,-0.382198484612,0.00666205810781,0.924052908947,0.0,0.0,0.0,0.0,0.0,0.0,0.0,0.0,0.0,-0.00887911445724,-0.00707437944035,0.00296504867023,0.0,0.0,0.0,0.0,0.0,0.0,0.0,0.0,0.0,6.76389689457,-0.0886501403587,6.90959569519,0.0,0.0,0.0,0.0,0.0,0.0,0.0,0.0,0.0
89448000000,228,89448000000,imu_link,-0.00249941693982,-0.382211394783,0.00666079410706,0.924047529316,0.0,0.0,0.0,0.0,0.0,0.0,0.0,0.0,0.0,-0.00866551694635,-0.00693094071594,0.00288159934785,0.0,0.0,0.0,0.0,0.0,0.0,0.0,0.0,0.0,6.76501452351,-0.0887185987803,6.90974279734,0.0,0.0,0.0,0.0,0.0,0.0,0.0,0.0,0.0
89452000000,229,89452000000,imu_link,-0.00251639277201,-0.382223839982,0.00665957492143,0.924042344256,0.0,0.0,0.0,0.0,0.0,0.0,0.0,0.0,0.0,-0.00812415848537,-0.00668281227894,0.00268260095244,0.0,0.0,0.0,0.0,0.0,0.0,0.0,0.0,0.0,6.76655632617,-0.0886027288222,6.90989673559,0.0,0.0,0.0,0.0,0.0,0.0,0.0,0.0,0.0
89456000000,230,89456000000,imu_link,-0.00253182532093,-0.382235752419,0.00665841912397,0.924037382841,0.0,0.0,0.0,0.0,0.0,0.0,0.0,0.0,0.0,-0.00739695933201,-0.00639914234904,0.00241687342831,0.0,0.0,0.0,0.0,0.0,0.0,0.0,0.0,0.0,6.76696817337,-0.0883864633533,6.90884928557,0.0,0.0,0.0,0.0,0.0,0.0,0.0,0.0,0.0
89460000000,231,89460000000,imu_link,-0.00254578383307,-0.382247334414,0.00665729588845,0.924032561509,0.0,0.0,0.0,0.0,0.0,0.0,0.0,0.0,0.0,-0.00670842617936,-0.00622464822092,0.0021501548221,0.0,0.0,0.0,0.0,0.0,0.0,0.0,0.0,0.0,6.76764045765,-0.088082336839,6.91081558388,0.0,0.0,0.0,0.0,0.0,0.0,0.0,0.0,0.0
89464000000,232,89464000000,imu_link,-0.00255845895272,-0.382258957254,0.00665615721592,0.924027726563,0.0,0.0,0.0,0.0,0.0,0.0,0.0,0.0,0.0,-0.0061185816113,-0.00625037329538,0.0018977293155,0.0,0.0,0.0,0.0,0.0,0.0,0.0,0.0,0.0,6.76699751416,-0.0877780510895,6.91206944425,0.0,0.0,0.0,0.0,0.0,0.0,0.0,0.0,0.0
89468000000,233,89468000000,imu_link,-0.00257010453982,-0.382270902958,0.00665496614891,0.924022760943,0.0,0.0,0.0,0.0,0.0,0.0,0.0,0.0,0.0,-0.00565417911251,-0.00642787600007,0.00167677020418,0.0,0.0,0.0,0.0,0.0,0.0,0.0,0.0,0.0,6.76717153814,-0.0874794422965,6.91378789767,0.0,0.0,0.0,0.0,0.0,0.0,0.0,0.0,0.0
89472000000,234,89472000000,imu_link,-0.0025809286675,-0.382283132451,0.00665371260774,0.924017680328,0.0,0.0,0.0,0.0,0.0,0.0,0.0,0.0,0.0,-0.00528768861925,-0.00658362273357,0.00149091436433,0.0,0.0,0.0,0.0,0.0,0.0,0.0,0.0,0.0,6.76689261799,-0.087249849952,6.91142186947,0.0,0.0,0.0,0.0,0.0,0.0,0.0,0.0,0.0
89476000000,235,89476000000,imu_link,-0.00259090579018,-0.382295248975,0.00665243340381,0.924012648695,0.0,0.0,0.0,0.0,0.0,0.0,0.0,0.0,0.0,-0.00490083099749,-0.00652485222301,0.00131714291172,0.0,0.0,0.0,0.0,0.0,0.0,0.0,0.0,0.0,6.76833901689,-0.0871230258252,6.90886152463,0.0,0.0,0.0,0.0,0.0,0.0,0.0,0.0,0.0
89480000000,236,89480000000,imu_link,-0.00259988374535,-0.382306720262,0.00665116134538,0.924007886492,0.0,0.0,0.0,0.0,0.0,0.0,0.0,0.0,0.0,-0.00443534821472,-0.00617858058753,0.0011293953677,0.0,0.0,0.0,0.0,0.0,0.0,0.0,0.0,0.0,6.76956227908,-0.08703700556,6.90444642871,0.0,0.0,0.0,0.0,0.0,0.0,0.0,0.0,0.0
89484000000,237,89484000000,imu_link,-0.00260764991323,-0.382317101834,0.00664992300819,0.924003578094,0.0,0.0,0.0,0.0,0.0,0.0,0.0,0.0,0.0,-0.00386483791775,-0.0055924549054,0.000913244902723,0.0,0.0,0.0,0.0,0.0,0.0,0.0,0.0,0.0,6.77092369012,-0.0869435313752,6.90167765699,0.0,0.0,0.0,0.0,0.0,0.0,0.0,0.0,0.0
89488000000,238,89488000000,imu_link,-0.00261404491049,-0.382326301448,0.00664873321884,0.923999762087,0.0,0.0,0.0,0.0,0.0,0.0,0.0,0.0,0.0,-0.00321750235388,-0.00495688622618,0.000673466994193,0.0,0.0,0.0,0.0,0.0,0.0,0.0,0.0,0.0,6.77036082556,-0.0868106707999,6.89888686344,0.0,0.0,0.0,0.0,0.0,0.0,0.0,0.0,0.0
89492000000,239,89492000000,imu_link,-0.00261910510113,-0.382334555711,0.00664760245291,0.923996340458,0.0,0.0,0.0,0.0,0.0,0.0,0.0,0.0,0.0,-0.00258588059428,-0.00444925816246,0.000445494503253,0.0,0.0,0.0,0.0,0.0,0.0,0.0,0.0,0.0,6.77027359279,-0.0865442223397,6.90012023494,0.0,0.0,0.0,0.0,0.0,0.0,0.0,0.0,0.0
89496000000,240,89496000000,imu_link,-0.00262312565721,-0.382342259915,0.00664647782726,0.923993149232,0.0,0.0,0.0,0.0,0.0,0.0,0.0,0.0,0.0,-0.00210226749414,-0.00415454986972,0.000249541712239,0.0,0.0,0.0,0.0,0.0,0.0,0.0,0.0,0.0,6.77230398164,-0.0862454404274,6.90670061545,0.0,0.0,0.0,0.0,0.0,0.0,0.0,0.0,0.0
89500000000,241,89500000000,imu_link,-0.00262658526732,-0.38234958734,0.00664529863487,0.923990115811,0.0,0.0,0.0,0.0,0.0,0.0,0.0,0.0,0.0,-0.00185208487216,-0.0039521041374,0.000117065129948,0.0,0.0,0.0,0.0,0.0,0.0,0.0,0.0,0.0,6.77417445874,-0.0859987394431,6.91093042773,0.0,0.0,0.0,0.0,0.0,0.0,0.0,0.0,0.0
89504000000,242,89504000000,imu_link,-0.00262981737804,-0.382356431095,0.00664405426548,0.923987283572,0.0,0.0,0.0,0.0,0.0,0.0,0.0,0.0,0.0,-0.00175757019192,-0.00369086005295,4.34282769415e-05,0.0,0.0,0.0,0.0,0.0,0.0,0.0,0.0,0.0,6.77334576626,-0.0858470504602,6.9076221553,0.0,0.0,0.0,0.0,0.0,0.0,0.0,0.0,0.0
89508000000,243,89508000000,imu_link,-0.00263289186806,-0.382362576237,0.00664277417506,0.923984741067,0.0,0.0,0.0,0.0,0.0,0.0,0.0,0.0,0.0,-0.00168887773994,-0.00331319161284,-3.25215078962e-06,0.0,0.0,0.0,0.0,0.0,0.0,0.0,0.0,0.0,6.77460615769,-0.0858277992596,6.90690025978,0.0,0.0,0.0,0.0,0.0,0.0,0.0,0.0,0.0
89512000000,244,89512000000,imu_link,-0.00263547081416,-0.382367921194,0.00664152522987,0.923982530829,0.0,0.0,0.0,0.0,0.0,0.0,0.0,0.0,0.0,-0.00145089069907,-0.00288167531822,-8.36522044798e-05,0.0,0.0,0.0,0.0,0.0,0.0,0.0,0.0,0.0,6.77504344729,-0.0858617405892,6.90537635072,0.0,0.0,0.0,0.0,0.0,0.0,0.0,0.0,0.0
89516000000,245,89516000000,imu_link,-0.00263686730437,-0.382372631211,0.00664041212999,0.923980585704,0.0,0.0,0.0,0.0,0.0,0.0,0.0,0.0,0.0,-0.000876177129538,-0.00254175915019,-0.000247003150512,0.0,0.0,0.0,0.0,0.0,0.0,0.0,0.0,0.0,6.77705281373,-0.0859657629231,6.90954597328,0.0,0.0,0.0,0.0,0.0,0.0,0.0,0.0,0.0
89520000000,246,89520000000,imu_link,-0.00263659410627,-0.382376886638,0.00663949610754,0.923978832024,0.0,0.0,0.0,0.0,0.0,0.0,0.0,0.0,0.0,-6.53570932375e-05,-0.00230094531199,-0.00047521313395,0.0,0.0,0.0,0.0,0.0,0.0,0.0,0.0,0.0,6.77869152834,-0.0859754847246,6.91319324477,0.0,0.0,0.0,0.0,0.0,0.0,0.0,0.0,0.0
89524000000,247,89524000000,imu_link,-0.00263460729009,-0.382380814073,0.00663877593347,0.923977217537,0.0,0.0,0.0,0.0,0.0,0.0,0.0,0.0,0.0,0.00076503261835,-0.00212875085379,-0.000712386926435,0.0,0.0,0.0,0.0,0.0,0.0,0.0,0.0,0.0,6.77901781502,-0.0858184554276,6.91385536702,0.0,0.0,0.0,0.0,0.0,0.0,0.0,0.0,0.0
89528000000,248,89528000000,imu_link,-0.00263128153711,-0.382384497338,0.0066381879899,0.923975706939,0.0,0.0,0.0,0.0,0.0,0.0,0.0,0.0,0.0,0.00140983472283,-0.00200070336634,-0.000907313015211,0.0,0.0,0.0,0.0,0.0,0.0,0.0,0.0,0.0,6.77889131409,-0.0855868561246,6.91322959737,0.0,0.0,0.0,0.0,0.0,0.0,0.0,0.0,0.0
89532000000,249,89532000000,imu_link,-0.002627032059,-0.382387979956,0.00663768395675,0.923974281373,0.0,0.0,0.0,0.0,0.0,0.0,0.0,0.0,0.0,0.00185340536654,-0.00189492539283,-0.00104517475757,0.0,0.0,0.0,0.0,0.0,0.0,0.0,0.0,0.0,6.77962446602,-0.0854199884883,6.91388479242,0.0,0.0,0.0,0.0,0.0,0.0,0.0,0.0,0.0
89536000000,250,89536000000,imu_link,-0.00262205581567,-0.382391285139,0.00663727310127,0.923972930599,0.0,0.0,0.0,0.0,0.0,0.0,0.0,0.0,0.0,0.00220766368699,-0.00180118766813,-0.00114109616539,0.0,0.0,0.0,0.0,0.0,0.0,0.0,0.0,0.0,6.77924555185,-0.0853034806311,6.91242651664,0.0,0.0,0.0,0.0,0.0,0.0,0.0,0.0,0.0
89540000000,251,89540000000,imu_link,-0.00261640728691,-0.382394610553,0.00663695980321,0.923971572613,0.0,0.0,0.0,0.0,0.0,0.0,0.0,0.0,0.0,0.00253682641598,-0.00181427182966,-0.0012245666012,0.0,0.0,0.0,0.0,0.0,0.0,0.0,0.0,0.0,6.7798077524,-0.0852447752844,6.91386007814,0.0,0.0,0.0,0.0,0.0,0.0,0.0,0.0,0.0
89544000000,252,89544000000,imu_link,-0.00261030088852,-0.382398123054,0.0066366927322,0.923970138112,0.0,0.0,0.0,0.0,0.0,0.0,0.0,0.0,0.0,0.00275647321991,-0.00191691311941,-0.00129074463691,0.0,0.0,0.0,0.0,0.0,0.0,0.0,0.0,0.0,6.78053514108,-0.0851574989243,6.91534734142,0.0,0.0,0.0,0.0,0.0,0.0,0.0,0.0,0.0
89548000000,253,89548000000,imu_link,-0.00260400821947,-0.382401703192,0.00663644682798,0.923968675936,0.0,0.0,0.0,0.0,0.0,0.0,0.0,0.0,0.0,0.00284631399156,-0.00195409732767,-0.00131657710369,0.0,0.0,0.0,0.0,0.0,0.0,0.0,0.0,0.0,6.78145129654,-0.0851189402095,6.91477792264,0.0,0.0,0.0,0.0,0.0,0.0,0.0,0.0,0.0
89552000000,254,89552000000,imu_link,-0.00259772320935,-0.382405220817,0.00663620296729,0.923967239536,0.0,0.0,0.0,0.0,0.0,0.0,0.0,0.0,0.0,0.00284340740366,-0.00192026584667,-0.00131417277439,0.0,0.0,0.0,0.0,0.0,0.0,0.0,0.0,0.0,6.78258384375,-0.0851384035041,6.91444791517,0.0,0.0,0.0,0.0,0.0,0.0,0.0,0.0,0.0
89556000000,255,89556000000,imu_link,-0.00259174948639,-0.382408738042,0.00663591443915,0.923965802692,0.0,0.0,0.0,0.0,0.0,0.0,0.0,0.0,0.0,0.00269105804946,-0.00191907542069,-0.0012752874896,0.0,0.0,0.0,0.0,0.0,0.0,0.0,0.0,0.0,6.78336067538,-0.0851488640051,6.91498235038,0.0,0.0,0.0,0.0,0.0,0.0,0.0,0.0,0.0
89560000000,256,89560000000,imu_link,-0.00258644207438,-0.382412551275,0.00663553450437,0.923964242071,0.0,0.0,0.0,0.0,0.0,0.0,0.0,0.0,0.0,0.00236461389535,-0.00207716354118,-0.00119008713736,0.0,0.0,0.0,0.0,0.0,0.0,0.0,0.0,0.0,6.78460206595,-0.0852283865563,6.91888703615,0.0,0.0,0.0,0.0,0.0,0.0,0.0,0.0,0.0
89564000000,257,89564000000,imu_link,-0.00258169081012,-0.382417029439,0.0066351165871,0.923962404915,0.0,0.0,0.0,0.0,0.0,0.0,0.0,0.0,0.0,0.00209785738362,-0.00243533059543,-0.00110123784788,0.0,0.0,0.0,0.0,0.0,0.0,0.0,0.0,0.0,6.78485306542,-0.0854640134787,6.92151826915,0.0,0.0,0.0,0.0,0.0,0.0,0.0,0.0,0.0
89568000000,258,89568000000,imu_link,-0.00257696799623,-0.382422478001,0.00663474539682,0.923960165651,0.0,0.0,0.0,0.0,0.0,0.0,0.0,0.0,0.0,0.00208991003069,-0.00296048847589,-0.00107412952238,0.0,0.0,0.0,0.0,0.0,0.0,0.0,0.0,0.0,6.78583803131,-0.0857650064433,6.92476385087,0.0,0.0,0.0,0.0,0.0,0.0,0.0,0.0,0.0
89572000000,259,89572000000,imu_link,-0.00257157730213,-0.382429154881,0.00663452877712,0.92395741867,0.0,0.0,0.0,0.0,0.0,0.0,0.0,0.0,0.0,0.00242328404534,-0.00362744295015,-0.00113032558062,0.0,0.0,0.0,0.0,0.0,0.0,0.0,0.0,0.0,6.78723710279,-0.0860006557342,6.92838854825,0.0,0.0,0.0,0.0,0.0,0.0,0.0,0.0,0.0
89576000000,260,89576000000,imu_link,-0.00256516931366,-0.382436936724,0.00663449413679,0.923954215761,0.0,0.0,0.0,0.0,0.0,0.0,0.0,0.0,0.0,0.0029237978151,-0.00422870138909,-0.00124068481064,0.0,0.0,0.0,0.0,0.0,0.0,0.0,0.0,0.0,6.7881186707,-0.0860609280978,6.92761533889,0.0,0.0,0.0,0.0,0.0,0.0,0.0,0.0,0.0
89580000000,261,89580000000,imu_link,-0.00255795356461,-0.382445430096,0.00663461469604,0.923950719335,0.0,0.0,0.0,0.0,0.0,0.0,0.0,0.0,0.0,0.00332390495639,-0.00461641550393,-0.00132338383149,0.0,0.0,0.0,0.0,0.0,0.0,0.0,0.0,0.0,6.78848945218,-0.0859768387451,6.92316495481,0.0,0.0,0.0,0.0,0.0,0.0,0.0,0.0,0.0
89584000000,262,89584000000,imu_link,-0.00255040697307,-0.382454049903,0.00663483353604,0.923947170633,0.0,0.0,0.0,0.0,0.0,0.0,0.0,0.0,0.0,0.00349505326569,-0.00468604502847,-0.00134123343363,0.0,0.0,0.0,0.0,0.0,0.0,0.0,0.0,0.0,6.79001987247,-0.0858722170995,6.9190260729,0.0,0.0,0.0,0.0,0.0,0.0,0.0,0.0,0.0
89588000000,263,89588000000,imu_link,-0.00254290864464,-0.382462340226,0.0066351005925,0.923943757685,0.0,0.0,0.0,0.0,0.0,0.0,0.0,0.0,0.0,0.0034832434188,-0.0045077740286,-0.00130975968018,0.0,0.0,0.0,0.0,0.0,0.0,0.0,0.0,0.0,6.79074875758,-0.0858325315689,6.91488005177,0.0,0.0,0.0,0.0,0.0,0.0,0.0,0.0,0.0
89592000000,264,89592000000,imu_link,-0.00253587913735,-0.382470193718,0.00663537565359,0.923940524073,0.0,0.0,0.0,0.0,0.0,0.0,0.0,0.0,0.0,0.00326986920125,-0.0042701301042,-0.00121644810396,0.0,0.0,0.0,0.0,0.0,0.0,0.0,0.0,0.0,6.79057256544,-0.0858286844186,6.91273893001,0.0,0.0,0.0,0.0,0.0,0.0,0.0,0.0,0.0
89596000000,265,89596000000,imu_link,-0.00252962226936,-0.382477582573,0.00663567893375,0.923937480356,0.0,0.0,0.0,0.0,0.0,0.0,0.0,0.0,0.0,0.002920111592,-0.0040166397836,-0.00105569685803,0.0,0.0,0.0,0.0,0.0,0.0,0.0,0.0,0.0,6.79115559735,-0.085913620838,6.91291256052,0.0,0.0,0.0,0.0,0.0,0.0,0.0,0.0,0.0
89600000000,266,89600000000,imu_link,-0.00252434620981,-0.382484535525,0.00663602822147,0.923934613969,0.0,0.0,0.0,0.0,0.0,0.0,0.0,0.0,0.0,0.0024774777293,-0.00377815788366,-0.000846911203846,0.0,0.0,0.0,0.0,0.0,0.0,0.0,0.0,0.0,6.7909529213,-0.0860404548791,6.91207634462,0.0,0.0,0.0,0.0,0.0,0.0,0.0,0.0,0.0
89604000000,267,89604000000,imu_link,-0.00252016770737,-0.382491128022,0.00663641034487,0.923931893484,0.0,0.0,0.0,0.0,0.0,0.0,0.0,0.0,0.0,0.00197810194236,-0.00358013619036,-0.000621872030828,0.0,0.0,0.0,0.0,0.0,0.0,0.0,0.0,0.0,6.79101081906,-0.0862152182859,6.91161548357,0.0,0.0,0.0,0.0,0.0,0.0,0.0,0.0,0.0
89608000000,268,89608000000,imu_link,-0.00251703464476,-0.382497415653,0.00663681154414,0.923929296152,0.0,0.0,0.0,0.0,0.0,0.0,0.0,0.0,0.0,0.00149995930941,-0.00341230147204,-0.000413148385386,0.0,0.0,0.0,0.0,0.0,0.0,0.0,0.0,0.0,6.79052662678,-0.0864885773735,6.91048793242,0.0,0.0,0.0,0.0,0.0,0.0,0.0,0.0,0.0
89612000000,269,89612000000,imu_link,-0.00251460044799,-0.382503533688,0.00663726900069,0.923926766665,0.0,0.0,0.0,0.0,0.0,0.0,0.0,0.0,0.0,0.00118851529973,-0.00331873055726,-0.000253514022485,0.0,0.0,0.0,0.0,0.0,0.0,0.0,0.0,0.0,6.79027382657,-0.0868531346937,6.91039333349,0.0,0.0,0.0,0.0,0.0,0.0,0.0,0.0,0.0
89616000000,270,89616000000,imu_link,-0.00251235815827,-0.382509624641,0.00663784200671,0.923924246985,0.0,0.0,0.0,0.0,0.0,0.0,0.0,0.0,0.0,0.0011220625218,-0.00330385220886,-0.000163430330469,0.0,0.0,0.0,0.0,0.0,0.0,0.0,0.0,0.0,6.79228970012,-0.0871782867013,6.91441335544,0.0,0.0,0.0,0.0,0.0,0.0,0.0,0.0,0.0
89620000000,271,89620000000,imu_link,-0.00250994834481,-0.382515869311,0.00663857278494,0.923921662933,0.0,0.0,0.0,0.0,0.0,0.0,0.0,0.0,0.0,0.00122903579475,-0.00338792932685,-0.000122564715837,0.0,0.0,0.0,0.0,0.0,0.0,0.0,0.0,0.0,6.79275105745,-0.0873672370386,6.91604365833,0.0,0.0,0.0,0.0,0.0,0.0,0.0,0.0,0.0
89624000000,272,89624000000,imu_link,-0.00250735784712,-0.382522420538,0.00663944073503,0.923918951407,0.0,0.0,0.0,0.0,0.0,0.0,0.0,0.0,0.0,0.00133756251565,-0.00355469910105,-9.37155862789e-05,0.0,0.0,0.0,0.0,0.0,0.0,0.0,0.0,0.0,6.7919283986,-0.0874263422165,6.914796052,0.0,0.0,0.0,0.0,0.0,0.0,0.0,0.0,0.0
89628000000,273,89628000000,imu_link,-0.00250482951313,-0.382529419804,0.00664038918359,0.92391605357,0.0,0.0,0.0,0.0,0.0,0.0,0.0,0.0,0.0,0.00132252070265,-0.00379720322072,-4.45822422932e-05,0.0,0.0,0.0,0.0,0.0,0.0,0.0,0.0,0.0,6.7918661495,-0.0874065994308,6.91479351252,0.0,0.0,0.0,0.0,0.0,0.0,0.0,0.0,0.0
89632000000,274,89632000000,imu_link,-0.00250256064121,-0.382536975575,0.00664137277693,0.923912924293,0.0,0.0,0.0,0.0,0.0,0.0,0.0,0.0,0.0,0.00120724450593,-0.00409773429411,2.13505584556e-05,0.0,0.0,0.0,0.0,0.0,0.0,0.0,0.0,0.0,6.79174590961,-0.0874160145242,6.91433806225,0.0,0.0,0.0,0.0,0.0,0.0,0.0,0.0,0.0
89636000000,275,89636000000,imu_link,-0.0025005082377,-0.382545265541,0.00664237702466,0.923909490209,0.0,0.0,0.0,0.0,0.0,0.0,0.0,0.0,0.0,0.00110837662785,-0.00449450759261,7.238905872e-05,0.0,0.0,0.0,0.0,0.0,0.0,0.0,0.0,0.0,6.79173299104,-0.087496479089,6.91478150046,0.0,0.0,0.0,0.0,0.0,0.0,0.0,0.0,0.0
89640000000,276,89640000000,imu_link,-0.00249855815704,-0.382554311427,0.00664341805175,0.923905742494,0.0,0.0,0.0,0.0,0.0,0.0,0.0,0.0,0.0,0.00106524032082,-0.00490340327852,0.000109047554727,0.0,0.0,0.0,0.0,0.0,0.0,0.0,0.0,0.0,6.79149220559,-0.0875846146163,6.91335950666,0.0,0.0,0.0,0.0,0.0,0.0,0.0,0.0,0.0
89644000000,277,89644000000,imu_link,-0.00249660444194,-0.38256412845,0.00664451492334,0.923901674969,0.0,0.0,0.0,0.0,0.0,0.0,0.0,0.0,0.0,0.00107464000551,-0.00532088683585,0.000134248843677,0.0,0.0,0.0,0.0,0.0,0.0,0.0,0.0,0.0,6.79134232544,-0.0876589486094,6.9120753207,0.0,0.0,0.0,0.0,0.0,0.0,0.0,0.0,0.0
89648000000,278,89648000000,imu_link,-0.0024947886719,-0.382574617524,0.0066456598333,0.923897328312,0.0,0.0,0.0,0.0,0.0,0.0,0.0,0.0,0.0,0.00101752389212,-0.0056843353033,0.000182915056139,0.0,0.0,0.0,0.0,0.0,0.0,0.0,0.0,0.0,6.79172091581,-0.0876702732273,6.91041366938,0.0,0.0,0.0,0.0,0.0,0.0,0.0,0.0,0.0
89652000000,279,89652000000,imu_link,-0.00249330317975,-0.382585798939,0.00664681455214,0.923892693848,0.0,0.0,0.0,0.0,0.0,0.0,0.0,0.0,0.0,0.000864169225574,-0.00605813043138,0.000250716928554,0.0,0.0,0.0,0.0,0.0,0.0,0.0,0.0,0.0,6.79231703479,-0.0877442320397,6.91053100015,0.0,0.0,0.0,0.0,0.0,0.0,0.0,0.0,0.0
89656000000,280,89656000000,imu_link,-0.00249229559507,-0.382597690579,0.00664794968307,0.923887763958,0.0,0.0,0.0,0.0,0.0,0.0,0.0,0.0,0.0,0.000636925931397,-0.00644111664581,0.000333185092498,0.0,0.0,0.0,0.0,0.0,0.0,0.0,0.0,0.0,6.79275928261,-0.087880450211,6.9103018726,0.0,0.0,0.0,0.0,0.0,0.0,0.0,0.0,0.0
89660000000,281,89660000000,imu_link,-0.0024917983572,-0.382610172505,0.00664902383575,0.923882588492,0.0,0.0,0.0,0.0,0.0,0.0,0.0,0.0,0.0,0.000387241157428,-0.00675900124613,0.000402726025364,0.0,0.0,0.0,0.0,0.0,0.0,0.0,0.0,0.0,6.79369397498,-0.0880312969413,6.90970118771,0.0,0.0,0.0,0.0,0.0,0.0,0.0,0.0,0.0
89664000000,282,89664000000,imu_link,-0.00249184165145,-0.382622913685,0.00665000662599,0.923877304657,0.0,0.0,0.0,0.0,0.0,0.0,0.0,0.0,0.0,0.000119072039522,-0.00689758206163,0.000463965750157,0.0,0.0,0.0,0.0,0.0,0.0,0.0,0.0,0.0,6.794791944,-0.0881770391674,6.90743761307,0.0,0.0,0.0,0.0,0.0,0.0,0.0,0.0,0.0
89668000000,283,89668000000,imu_link,-0.00249267887279,-0.382635545221,0.00665085524101,0.92387206485,0.0,0.0,0.0,0.0,0.0,0.0,0.0,0.0,0.0,-0.000272923409396,-0.00683570365782,0.000553862595854,0.0,0.0,0.0,0.0,0.0,0.0,0.0,0.0,0.0,6.795977288,-0.0882964154605,6.9049999916,0.0,0.0,0.0,0.0,0.0,0.0,0.0,0.0,0.0
89672000000,284,89672000000,imu_link,-0.00249443086151,-0.382647877357,0.00665155589767,0.923866947441,0.0,0.0,0.0,0.0,0.0,0.0,0.0,0.0,0.0,-0.000722646296503,-0.006670756042,0.000660492685065,0.0,0.0,0.0,0.0,0.0,0.0,0.0,0.0,0.0,6.79624461335,-0.0884182341684,6.90289928253,0.0,0.0,0.0,0.0,0.0,0.0,0.0,0.0,0.0
89676000000,285,89676000000,imu_link,-0.00249712730354,-0.382659867886,0.00665211376568,0.923861969802,0.0,0.0,0.0,0.0,0.0,0.0,0.0,0.0,0.0,-0.00118492935531,-0.00648289652784,0.000775191561745,0.0,0.0,0.0,0.0,0.0,0.0,0.0,0.0,0.0,6.79618469762,-0.0885575206868,6.90152634845,0.0,0.0,0.0,0.0,0.0,0.0,0.0,0.0,0.0
89680000000,286,89680000000,imu_link,-0.00250057432746,-0.382671579026,0.00665260471657,0.92385710615,0.0,0.0,0.0,0.0,0.0,0.0,0.0,0.0,0.0,-0.00154337804981,-0.00632944857593,0.000887858968655,0.0,0.0,0.0,0.0,0.0,0.0,0.0,0.0,0.0,6.79782927633,-0.0887610234209,6.90399633484,0.0,0.0,0.0,0.0,0.0,0.0,0.0,0.0,0.0
89684000000,287,89684000000,imu_link,-0.00250462563749,-0.382682828495,0.00665307535395,0.923852432055,0.0,0.0,0.0,0.0,0.0,0.0,0.0,0.0,0.0,-0.00182462910507,-0.00607788500297,0.000994043834624,0.0,0.0,0.0,0.0,0.0,0.0,0.0,0.0,0.0,6.79846128551,-0.0889151595879,6.90252414907,0.0,0.0,0.0,0.0,0.0,0.0,0.0,0.0,0.0
89688000000,288,89688000000,imu_link,-0.00250932564152,-0.382693201477,0.00665351524386,0.923848119316,0.0,0.0,0.0,0.0,0.0,0.0,0.0,0.0,0.0,-0.0021267929334,-0.00560167421452,0.00110385836994,0.0,0.0,0.0,0.0,0.0,0.0,0.0,0.0,0.0,6.79864032671,-0.0890025329016,6.8982712116,0.0,0.0,0.0,0.0,0.0,0.0,0.0,0.0,0.0
89692000000,289,89692000000,imu_link,-0.00251459423496,-0.382702285677,0.00665390770573,0.923844339088,0.0,0.0,0.0,0.0,0.0,0.0,0.0,0.0,0.0,-0.00239355766762,-0.00490250928972,0.00119059331821,0.0,0.0,0.0,0.0,0.0,0.0,0.0,0.0,0.0,6.79986620065,-0.0891114752458,6.89584473373,0.0,0.0,0.0,0.0,0.0,0.0,0.0,0.0,0.0
89696000000,290,89696000000,imu_link,-0.00252004620344,-0.382710209657,0.00665427968602,0.923841039007,0.0,0.0,0.0,0.0,0.0,0.0,0.0,0.0,0.0,-0.0024777181502,-0.00427406535215,0.00121608276348,0.0,0.0,0.0,0.0,0.0,0.0,0.0,0.0,0.0,6.80045390513,-0.089262030197,6.89761399238,0.0,0.0,0.0,0.0,0.0,0.0,0.0,0.0,0.0
89700000000,291,89700000000,imu_link,-0.00252535088371,-0.382717362186,0.00665465621476,0.923838058772,0.0,0.0,0.0,0.0,0.0,0.0,0.0,0.0,0.0,-0.00240584259789,-0.00385700810922,0.00118990731009,0.0,0.0,0.0,0.0,0.0,0.0,0.0,0.0,0.0,6.80087658951,-0.0893873576163,6.90159813378,0.0,0.0,0.0,0.0,0.0,0.0,0.0,0.0,0.0
89704000000,292,89704000000,imu_link,-0.00253043198851,-0.382724303578,0.00665505793505,0.923835166341,0.0,0.0,0.0,0.0,0.0,0.0,0.0,0.0,0.0,-0.00229693482563,-0.00374345392673,0.00115873510076,0.0,0.0,0.0,0.0,0.0,0.0,0.0,0.0,0.0,6.80192646747,-0.0894480924012,6.90786660061,0.0,0.0,0.0,0.0,0.0,0.0,0.0,0.0,0.0
89708000000,293,89708000000,imu_link,-0.0025354366615,-0.382731265948,0.00665544919815,0.923832265416,0.0,0.0,0.0,0.0,0.0,0.0,0.0,0.0,0.0,-0.00226371128565,-0.00375500993204,0.00113928030612,0.0,0.0,0.0,0.0,0.0,0.0,0.0,0.0,0.0,6.80081451107,-0.0894190512617,6.90710951555,0.0,0.0,0.0,0.0,0.0,0.0,0.0,0.0,0.0
89712000000,294,89712000000,imu_link,-0.0025404800264,-0.382738262179,0.00665580968066,0.923829350488,0.0,0.0,0.0,0.0,0.0,0.0,0.0,0.0,0.0,-0.00228760448392,-0.0037731630191,0.00113247023259,0.0,0.0,0.0,0.0,0.0,0.0,0.0,0.0,0.0,6.79907701616,-0.0894100128326,6.90301256212,0.0,0.0,0.0,0.0,0.0,0.0,0.0,0.0,0.0
89716000000,295,89716000000,imu_link,-0.00254547499401,-0.382745153599,0.00665615573226,0.923826479132,0.0,0.0,0.0,0.0,0.0,0.0,0.0,0.0,0.0,-0.00226760655205,-0.00371655377431,0.00111653076632,0.0,0.0,0.0,0.0,0.0,0.0,0.0,0.0,0.0,6.79972068328,-0.0894229795052,6.90184019186,0.0,0.0,0.0,0.0,0.0,0.0,0.0,0.0,0.0
89720000000,296,89720000000,imu_link,-0.00255026067267,-0.382751741959,0.00665652112283,0.923823733687,0.0,0.0,0.0,0.0,0.0,0.0,0.0,0.0,0.0,-0.00216606340567,-0.00355319162092,0.00108537819665,0.0,0.0,0.0,0.0,0.0,0.0,0.0,0.0,0.0,6.80021963365,-0.0894033454601,6.89977533519,0.0,0.0,0.0,0.0,0.0,0.0,0.0,0.0,0.0
89724000000,297,89724000000,imu_link,-0.00255451231507,-0.382758119498,0.00665694426257,0.923821076572,0.0,0.0,0.0,0.0,0.0,0.0,0.0,0.0,0.0,-0.00190751961788,-0.0034407575114,0.00100982641458,0.0,0.0,0.0,0.0,0.0,0.0,0.0,0.0,0.0,6.80080760525,-0.0894128986191,6.90089547281,0.0,0.0,0.0,0.0,0.0,0.0,0.0,0.0,0.0
89728000000,298,89728000000,imu_link,-0.00255797402344,-0.382764564864,0.00665746237354,0.923818392785,0.0,0.0,0.0,0.0,0.0,0.0,0.0,0.0,0.0,-0.00152472508959,-0.00347994254297,0.000902519937935,0.0,0.0,0.0,0.0,0.0,0.0,0.0,0.0,0.0,6.80221707052,-0.0893985497425,6.90507796047,0.0,0.0,0.0,0.0,0.0,0.0,0.0,0.0,0.0
89732000000,299,89732000000,imu_link,-0.00256061328751,-0.382771216316,0.00665807615314,0.923815625134,0.0,0.0,0.0,0.0,0.0,0.0,0.0,0.0,0.0,-0.00112731449361,-0.00359404589397,0.000789324466992,0.0,0.0,0.0,0.0,0.0,0.0,0.0,0.0,0.0,6.80149490179,-0.0892928744132,6.9039683838,0.0,0.0,0.0,0.0,0.0,0.0,0.0,0.0,0.0
89736000000,300,89736000000,imu_link,-0.00256251316208,-0.382777892852,0.00665878504421,0.923812848391,0.0,0.0,0.0,0.0,0.0,0.0,0.0,0.0,0.0,-0.00076767688281,-0.00360995607539,0.000691746845847,0.0,0.0,0.0,0.0,0.0,0.0,0.0,0.0,0.0,6.80253638971,-0.089185249696,6.90292311197,0.0,0.0,0.0,0.0,0.0,0.0,0.0,0.0,0.0
89740000000,301,89740000000,imu_link,-0.00256362977923,-0.382784301251,0.00665959245998,0.923810184154,0.0,0.0,0.0,0.0,0.0,0.0,0.0,0.0,0.0,-0.00038599182695,-0.00346730259757,0.000587318195645,0.0,0.0,0.0,0.0,0.0,0.0,0.0,0.0,0.0,6.80264697321,-0.0890879119613,6.89900047619,0.0,0.0,0.0,0.0,0.0,0.0,0.0,0.0,0.0
89744000000,302,89744000000,imu_link,-0.00256366872925,-0.382790228287,0.00666052842738,0.923807721386,0.0,0.0,0.0,0.0,0.0,0.0,0.0,0.0,0.0,0.000138252964104,-0.00321015275231,0.000440385989983,0.0,0.0,0.0,0.0,0.0,0.0,0.0,0.0,0.0,6.80217084678,-0.0890788500475,6.89535056436,0.0,0.0,0.0,0.0,0.0,0.0,0.0,0.0,0.0
89748000000,303,89748000000,imu_link,-0.00256246397117,-0.382795682537,0.00666162502536,0.923805456772,0.0,0.0,0.0,0.0,0.0,0.0,0.0,0.0,0.0,0.000745298953927,-0.0029581929155,0.000276488349486,0.0,0.0,0.0,0.0,0.0,0.0,0.0,0.0,0.0,6.80257046651,-0.0890503981247,6.8955230827,0.0,0.0,0.0,0.0,0.0,0.0,0.0,0.0,0.0
89752000000,304,89752000000,imu_link,-0.00256008262161,-0.382800711827,0.00666286915321,0.923803370407,0.0,0.0,0.0,0.0,0.0,0.0,0.0,0.0,0.0,0.00131865050035,-0.00273189460572,0.000119386484282,0.0,0.0,0.0,0.0,0.0,0.0,0.0,0.0,0.0,6.80147392666,-0.0889223729466,6.89327294373,0.0,0.0,0.0,0.0,0.0,0.0,0.0,0.0,0.0
89756000000,305,89756000000,imu_link,-0.0025569242766,-0.382805310725,0.00666420354305,0.923801463849,0.0,0.0,0.0,0.0,0.0,0.0,0.0,0.0,0.0,0.00169648617135,-0.00250138444261,1.23133517853e-05,0.0,0.0,0.0,0.0,0.0,0.0,0.0,0.0,0.0,6.80262239786,-0.0887867371701,6.89432100764,0.0,0.0,0.0,0.0,0.0,0.0,0.0,0.0,0.0
89760000000,306,89760000000,imu_link,-0.00255341668013,-0.382809434335,0.00666558682496,0.923799754817,0.0,0.0,0.0,0.0,0.0,0.0,0.0,0.0,0.0,0.00186899998409,-0.00224526805159,-3.20015625239e-05,0.0,0.0,0.0,0.0,0.0,0.0,0.0,0.0,0.0,6.80427464069,-0.0886769588417,6.89625976145,0.0,0.0,0.0,0.0,0.0,0.0,0.0,0.0,0.0
89764000000,307,89764000000,imu_link,-0.0025500953186,-0.382813197857,0.00666696430936,0.923798194492,0.0,0.0,0.0,0.0,0.0,0.0,0.0,0.0,0.0,0.00178325837949,-0.00204985172712,9.30931721846e-07,0.0,0.0,0.0,0.0,0.0,0.0,0.0,0.0,0.0,6.80587929551,-0.0886005609221,6.89959821301,0.0,0.0,0.0,0.0,0.0,0.0,0.0,0.0,0.0
89768000000,308,89768000000,imu_link,-0.00254750426739,-0.382817009331,0.0066683119414,0.923796612467,0.0,0.0,0.0,0.0,0.0,0.0,0.0,0.0,0.0,0.00144002724362,-0.00207368179995,0.000126939567711,0.0,0.0,0.0,0.0,0.0,0.0,0.0,0.0,0.0,6.80872509499,-0.0886312796468,6.90769361826,0.0,0.0,0.0,0.0,0.0,0.0,0.0,0.0,0.0
89772000000,309,89772000000,imu_link,-0.00254601301229,-0.382821373822,0.00666964483801,0.923794798319,0.0,0.0,0.0,0.0,0.0,0.0,0.0,0.0,0.0,0.000927073280984,-0.00236986428438,0.000330713150389,0.0,0.0,0.0,0.0,0.0,0.0,0.0,0.0,0.0,6.80990426752,-0.0887510621888,6.91355008462,0.0,0.0,0.0,0.0,0.0,0.0,0.0,0.0,0.0
89776000000,310,89776000000,imu_link,-0.00254577279642,-0.382826567794,0.00667100444908,0.92379263676,0.0,0.0,0.0,0.0,0.0,0.0,0.0,0.0,0.0,0.000351126522774,-0.00281535954222,0.000582617387029,0.0,0.0,0.0,0.0,0.0,0.0,0.0,0.0,0.0,6.81001634039,-0.0889511950484,6.91549090572,0.0,0.0,0.0,0.0,0.0,0.0,0.0,0.0,0.0
89780000000,311,89780000000,imu_link,-0.00254673849361,-0.382832737086,0.00667241267578,0.923790067303,0.0,0.0,0.0,0.0,0.0,0.0,0.0,0.0,0.0,-0.000200346994945,-0.0033399731444,0.000836019616573,0.0,0.0,0.0,0.0,0.0,0.0,0.0,0.0,0.0,6.8106204378,-0.0891953048473,6.91660092233,0.0,0.0,0.0,0.0,0.0,0.0,0.0,0.0,0.0
89784000000,312,89784000000,imu_link,-0.00254889206842,-0.382839887021,0.00667385859797,0.923787087844,0.0,0.0,0.0,0.0,0.0,0.0,0.0,0.0,0.0,-0.000745599946448,-0.00386749298854,0.00108092933617,0.0,0.0,0.0,0.0,0.0,0.0,0.0,0.0,0.0,6.81038813711,-0.0894147964926,6.9146520414,0.0,0.0,0.0,0.0,0.0,0.0,0.0,0.0,0.0
89788000000,313,89788000000,imu_link,-0.00255235564408,-0.382847754113,0.00667531463814,0.923783807406,0.0,0.0,0.0,0.0,0.0,0.0,0.0,0.0,0.0,-0.0013515207803,-0.00425199834109,0.00133645341298,0.0,0.0,0.0,0.0,0.0,0.0,0.0,0.0,0.0,6.81026115447,-0.0896373335595,6.91088653125,0.0,0.0,0.0,0.0,0.0,0.0,0.0,0.0,0.0
89792000000,314,89792000000,imu_link,-0.00255732795266,-0.382855958426,0.00667674337696,0.923780383137,0.0,0.0,0.0,0.0,0.0,0.0,0.0,0.0,0.0,-0.00205492751358,-0.00443021997474,0.00161270035094,0.0,0.0,0.0,0.0,0.0,0.0,0.0,0.0,0.0,6.81085700915,-0.0898961054501,6.90706920861,0.0,0.0,0.0,0.0,0.0,0.0,0.0,0.0,0.0
89796000000,315,89796000000,imu_link,-0.00256393711741,-0.382864240537,0.00667810940548,0.923776922422,0.0,0.0,0.0,0.0,0.0,0.0,0.0,0.0,0.0,-0.00282328614945,-0.00446758625488,0.00189709734753,0.0,0.0,0.0,0.0,0.0,0.0,0.0,0.0,0.0,6.81083624952,-0.0901585986716,6.90371333768,0.0,0.0,0.0,0.0,0.0,0.0,0.0,0.0,0.0
89800000000,316,89800000000,imu_link,-0.00257205549933,-0.382872639684,0.00667939157454,0.923773409468,0.0,0.0,0.0,0.0,0.0,0.0,0.0,0.0,0.0,-0.00353688729672,-0.0045264972845,0.00214730065969,0.0,0.0,0.0,0.0,0.0,0.0,0.0,0.0,0.0,6.8118154886,-0.0904875755601,6.904889085,0.0,0.0,0.0,0.0,0.0,0.0,0.0,0.0,0.0
89804000000,317,89804000000,imu_link,-0.00258157074412,-0.38288137277,0.00668060668054,0.923769754524,0.0,0.0,0.0,0.0,0.0,0.0,0.0,0.0,0.0,-0.00419621584835,-0.00470316996241,0.00238378016312,0.0,0.0,0.0,0.0,0.0,0.0,0.0,0.0,0.0,6.81164525062,-0.0907642892597,6.9054642069,0.0,0.0,0.0,0.0,0.0,0.0,0.0,0.0,0.0
89808000000,318,89808000000,imu_link,-0.00259260435392,-0.382890496057,0.00668178925224,0.923765933624,0.0,0.0,0.0,0.0,0.0,0.0,0.0,0.0,0.0,-0.0049052716822,-0.00491005485841,0.00265948057886,0.0,0.0,0.0,0.0,0.0,0.0,0.0,0.0,0.0,6.81199174675,-0.0909507496062,6.90596559587,0.0,0.0,0.0,0.0,0.0,0.0,0.0,0.0,0.0
89812000000,319,89812000000,imu_link,-0.00260541465287,-0.382899789703,0.00668292635214,0.923762037191,0.0,0.0,0.0,0.0,0.0,0.0,0.0,0.0,0.0,-0.00573526655795,-0.00499720659925,0.00297864813141,0.0,0.0,0.0,0.0,0.0,0.0,0.0,0.0,0.0,6.81250944851,-0.0911028554577,6.90387761633,0.0,0.0,0.0,0.0,0.0,0.0,0.0,0.0,0.0
89816000000,320,89816000000,imu_link,-0.00261994117053,-0.382908906789,0.00668400197628,0.923758209234,0.0,0.0,0.0,0.0,0.0,0.0,0.0,0.0,0.0,-0.00653904575871,-0.00489673205345,0.00327882473359,0.0,0.0,0.0,0.0,0.0,0.0,0.0,0.0,0.0,6.81242967709,-0.0913313050853,6.89959938367,0.0,0.0,0.0,0.0,0.0,0.0,0.0,0.0,0.0
89820000000,321,89820000000,imu_link,-0.00263555746642,-0.382917575114,0.00668501702068,0.923754564293,0.0,0.0,0.0,0.0,0.0,0.0,0.0,0.0,0.0,-0.00705225031503,-0.00465069868877,0.0034594633374,0.0,0.0,0.0,0.0,0.0,0.0,0.0,0.0,0.0,6.81448549482,-0.0916690125363,6.90025351825,0.0,0.0,0.0,0.0,0.0,0.0,0.0,0.0,0.0
89824000000,322,89824000000,imu_link,-0.00265158037919,-0.382925826927,0.00668601725863,0.92375109059,0.0,0.0,0.0,0.0,0.0,0.0,0.0,0.0,0.0,-0.007241274383,-0.00442415726018,0.00353045146009,0.0,0.0,0.0,0.0,0.0,0.0,0.0,0.0,0.0,6.81568791738,-0.09192382223,6.90202444309,0.0,0.0,0.0,0.0,0.0,0.0,0.0,0.0,0.0
89828000000,323,89828000000,imu_link,-0.00266760079723,-0.382933896464,0.0066870677799,0.923747691726,0.0,0.0,0.0,0.0,0.0,0.0,0.0,0.0,0.0,-0.00722978617082,-0.00432571463106,0.0035531899159,0.0,0.0,0.0,0.0,0.0,0.0,0.0,0.0,0.0,6.81543852807,-0.0920053379399,6.90290869407,0.0,0.0,0.0,0.0,0.0,0.0,0.0,0.0,0.0
89832000000,324,89832000000,imu_link,-0.0026835741628,-0.382941905885,0.00668817224784,0.923744317167,0.0,0.0,0.0,0.0,0.0,0.0,0.0,0.0,0.0,-0.00719749143653,-0.00429352400231,0.00356909639637,0.0,0.0,0.0,0.0,0.0,0.0,0.0,0.0,0.0,6.81489439367,-0.0919696983265,6.9022090792,0.0,0.0,0.0,0.0,0.0,0.0,0.0,0.0,0.0
89836000000,325,89836000000,imu_link,-0.0026994563814,-0.382949762431,0.00668929469493,0.923741005762,0.0,0.0,0.0,0.0,0.0,0.0,0.0,0.0,0.0,-0.00715135474549,-0.00421115255867,0.00355994240804,0.0,0.0,0.0,0.0,0.0,0.0,0.0,0.0,0.0,6.81451420387,-0.0919578968185,6.89984135067,0.0,0.0,0.0,0.0,0.0,0.0,0.0,0.0,0.0
89840000000,326,89840000000,imu_link,-0.002715145912,-0.382957509954,0.00669042389892,0.923737739719,0.0,0.0,0.0,0.0,0.0,0.0,0.0,0.0,0.0,-0.00706063819555,-0.0041527658978,0.00352616373121,0.0,0.0,0.0,0.0,0.0,0.0,0.0,0.0,0.0,6.81377971103,-0.091957532815,6.89809530263,0.0,0.0,0.0,0.0,0.0,0.0,0.0,0.0,0.0
89844000000,327,89844000000,imu_link,-0.00273023403359,-0.382965441486,0.00669159558907,0.923734398514,0.0,0.0,0.0,0.0,0.0,0.0,0.0,0.0,0.0,-0.00677544847765,-0.00425421516977,0.00343063134799,0.0,0.0,0.0,0.0,0.0,0.0,0.0,0.0,0.0,6.81435245022,-0.0920310729898,6.90067543591,0.0,0.0,0.0,0.0,0.0,0.0,0.0,0.0,0.0
89848000000,328,89848000000,imu_link,-0.00274430694792,-0.382973913958,0.00669287259109,0.923730834964,0.0,0.0,0.0,0.0,0.0,0.0,0.0,0.0,0.0,-0.00628850555047,-0.0045501729882,0.00328488227293,0.0,0.0,0.0,0.0,0.0,0.0,0.0,0.0,0.0,6.81507988584,-0.0920294282422,6.90400997748,0.0,0.0,0.0,0.0,0.0,0.0,0.0,0.0,0.0
89852000000,329,89852000000,imu_link,-0.00275673655778,-0.382983173956,0.00669434373639,0.923726948093,0.0,0.0,0.0,0.0,0.0,0.0,0.0,0.0,0.0,-0.00549542318445,-0.00498158160043,0.0030598803389,0.0,0.0,0.0,0.0,0.0,0.0,0.0,0.0,0.0,6.81648416554,-0.0919629541855,6.90797108157,0.0,0.0,0.0,0.0,0.0,0.0,0.0,0.0,0.0
89856000000,330,89856000000,imu_link,-0.00276693729682,-0.382993132875,0.00669606569785,0.923722776017,0.0,0.0,0.0,0.0,0.0,0.0,0.0,0.0,0.0,-0.00442069250957,-0.00536680827098,0.00274890440461,0.0,0.0,0.0,0.0,0.0,0.0,0.0,0.0,0.0,6.81819799232,-0.0917621787535,6.90947932911,0.0,0.0,0.0,0.0,0.0,0.0,0.0,0.0,0.0
89860000000,331,89860000000,imu_link,-0.00277458851232,-0.383003258269,0.00669804551838,0.923718540466,0.0,0.0,0.0,0.0,0.0,0.0,0.0,0.0,0.0,-0.00319443208231,-0.00546474479717,0.00237975675258,0.0,0.0,0.0,0.0,0.0,0.0,0.0,0.0,0.0,6.82001162244,-0.0914869308627,6.90684342371,0.0,0.0,0.0,0.0,0.0,0.0,0.0,0.0,0.0
89864000000,332,89864000000,imu_link,-0.00277970085592,-0.383012919641,0.00670025665007,0.923714503086,0.0,0.0,0.0,0.0,0.0,0.0,0.0,0.0,0.0,-0.00197570515288,-0.00522130512602,0.00200037190828,0.0,0.0,0.0,0.0,0.0,0.0,0.0,0.0,0.0,6.82093620131,-0.0911357759205,6.90142459769,0.0,0.0,0.0,0.0,0.0,0.0,0.0,0.0,0.0
89868000000,333,89868000000,imu_link,-0.00278258174267,-0.383021771988,0.0067026374805,0.923710806515,0.0,0.0,0.0,0.0,0.0,0.0,0.0,0.0,0.0,-0.000909408208008,-0.00479009547364,0.00165139277426,0.0,0.0,0.0,0.0,0.0,0.0,0.0,0.0,0.0,6.82167846084,-0.0907648831756,6.89858323785,0.0,0.0,0.0,0.0,0.0,0.0,0.0,0.0,0.0
89872000000,334,89872000000,imu_link,-0.00278353428235,-0.383029753575,0.00670511008045,0.923707476051,0.0,0.0,0.0,0.0,0.0,0.0,0.0,0.0,0.0,2.21172699717e-06,-0.00432440688613,0.00132446210281,0.0,0.0,0.0,0.0,0.0,0.0,0.0,0.0,0.0,6.82142632642,-0.0904238025165,6.8967811631,0.0,0.0,0.0,0.0,0.0,0.0,0.0,0.0,0.0
89876000000,335,89876000000,imu_link,-0.00278272620081,-0.38303694914,0.00670763142625,0.923704476393,0.0,0.0,0.0,0.0,0.0,0.0,0.0,0.0,0.0,0.000827792350233,-0.00390399618443,0.00100977530999,0.0,0.0,0.0,0.0,0.0,0.0,0.0,0.0,0.0,6.82046109393,-0.0901390200241,6.89518766061,0.0,0.0,0.0,0.0,0.0,0.0,0.0,0.0,0.0
89880000000,336,89880000000,imu_link,-0.00278029717252,-0.383043391981,0.00671016464528,0.923701793599,0.0,0.0,0.0,0.0,0.0,0.0,0.0,0.0,0.0,0.001581669562,-0.00350111601933,0.000704802354213,0.0,0.0,0.0,0.0,0.0,0.0,0.0,0.0,0.0,6.81965283033,-0.0899538628901,6.89358365089,0.0,0.0,0.0,0.0,0.0,0.0,0.0,0.0,0.0
89884000000,337,89884000000,imu_link,-0.00277646064158,-0.38304899822,0.00671270520603,0.923699461848,0.0,0.0,0.0,0.0,0.0,0.0,0.0,0.0,0.0,0.0022364268803,-0.00305223126082,0.000438611058299,0.0,0.0,0.0,0.0,0.0,0.0,0.0,0.0,0.0,6.81911549508,-0.0898063527706,6.89135801844,0.0,0.0,0.0,0.0,0.0,0.0,0.0,0.0,0.0
89888000000,338,89888000000,imu_link,-0.00277141819428,-0.383053923202,0.00671529832087,0.923697415786,0.0,0.0,0.0,0.0,0.0,0.0,0.0,0.0,0.0,0.00280612756582,-0.0026869969292,0.000231907496575,0.0,0.0,0.0,0.0,0.0,0.0,0.0,0.0,0.0,6.81949342165,-0.0897199444771,6.89295507708,0.0,0.0,0.0,0.0,0.0,0.0,0.0,0.0,0.0
89892000000,339,89892000000,imu_link,-0.00276548624776,-0.383058531088,0.00671798769074,0.923695503122,0.0,0.0,0.0,0.0,0.0,0.0,0.0,0.0,0.0,0.00323662662052,-0.00251811645294,0.000105991169973,0.0,0.0,0.0,0.0,0.0,0.0,0.0,0.0,0.0,6.82070490445,-0.0896552506251,6.89790700617,0.0,0.0,0.0,0.0,0.0,0.0,0.0,0.0,0.0
89896000000,340,89896000000,imu_link,-0.00275908633263,-0.383063353926,0.00672074739678,0.923693502129,0.0,0.0,0.0,0.0,0.0,0.0,0.0,0.0,0.0,0.00346538414089,-0.00263597925992,4.88455610267e-05,0.0,0.0,0.0,0.0,0.0,0.0,0.0,0.0,0.0,6.82220939168,-0.0895805247717,6.90491170337,0.0,0.0,0.0,0.0,0.0,0.0,0.0,0.0,0.0
89900000000,341,89900000000,imu_link,-0.00275267574944,-0.383068587989,0.00672351615293,0.923691330479,0.0,0.0,0.0,0.0,0.0,0.0,0.0,0.0,0.0,0.00347042723718,-0.00285863604467,5.0988222852e-05,0.0,0.0,0.0,0.0,0.0,0.0,0.0,0.0,0.0,6.82265293381,-0.0895282119517,6.9066472776,0.0,0.0,0.0,0.0,0.0,0.0,0.0,0.0,0.0
89904000000,342,89904000000,imu_link,-0.00274658782972,-0.383074120093,0.00672626278627,0.923689034339,0.0,0.0,0.0,0.0,0.0,0.0,0.0,0.0,0.0,0.00331599594639,-0.00301901447231,0.000102580320317,0.0,0.0,0.0,0.0,0.0,0.0,0.0,0.0,0.0,6.82283497663,-0.0895893837779,6.90494145905,0.0,0.0,0.0,0.0,0.0,0.0,0.0,0.0,0.0
89908000000,343,89908000000,imu_link,-0.002740962718,-0.383079384775,0.0067289965352,0.923686847741,0.0,0.0,0.0,0.0,0.0,0.0,0.0,0.0,0.0,0.0031008325839,-0.00287295097262,0.00018527345625,0.0,0.0,0.0,0.0,0.0,0.0,0.0,0.0,0.0,6.82414105179,-0.0897469579618,6.90080637399,0.0,0.0,0.0,0.0,0.0,0.0,0.0,0.0,0.0
89912000000,344,89912000000,imu_link,-0.00273570434031,-0.38308381786,0.006731736404,0.923685004826,0.0,0.0,0.0,0.0,0.0,0.0,0.0,0.0,0.0,0.00293589999071,-0.00242182962725,0.000258327362513,0.0,0.0,0.0,0.0,0.0,0.0,0.0,0.0,0.0,6.82500196843,-0.0899524861085,6.89596322631,0.0,0.0,0.0,0.0,0.0,0.0,0.0,0.0,0.0
89916000000,345,89916000000,imu_link,-0.00273057243108,-0.383087213677,0.00673449605445,0.923683591526,0.0,0.0,0.0,0.0,0.0,0.0,0.0,0.0,0.0,0.00288535946021,-0.00186008703758,0.000291660184495,0.0,0.0,0.0,0.0,0.0,0.0,0.0,0.0,0.0,6.82477112596,-0.0901292609058,6.89281377674,0.0,0.0,0.0,0.0,0.0,0.0,0.0,0.0,0.0
89920000000,346,89920000000,imu_link,-0.00272557678747,-0.383089715916,0.00673727038902,0.92368254827,0.0,0.0,0.0,0.0,0.0,0.0,0.0,0.0,0.0,0.00282875306399,-0.00137607687272,0.000324516694831,0.0,0.0,0.0,0.0,0.0,0.0,0.0,0.0,0.0,6.82462794983,-0.0902378342854,6.89299609742,0.0,0.0,0.0,0.0,0.0,0.0,0.0,0.0,0.0
89924000000,347,89924000000,imu_link,-0.00272080501232,-0.383091811289,0.00674002350922,0.923681673211,0.0,0.0,0.0,0.0,0.0,0.0,0.0,0.0,0.0,0.00272289766585,-0.00115516899474,0.000357587749325,0.0,0.0,0.0,0.0,0.0,0.0,0.0,0.0,0.0,6.82581276381,-0.0904004704943,6.89890877973,0.0,0.0,0.0,0.0,0.0,0.0,0.0,0.0,0.0
89928000000,348,89928000000,imu_link,-0.00271651099642,-0.383094258891,0.00674269868106,0.923680651192,0.0,0.0,0.0,0.0,0.0,0.0,0.0,0.0,0.0,0.00248593130101,-0.0013442763167,0.00041311693004,0.0,0.0,0.0,0.0,0.0,0.0,0.0,0.0,0.0,6.82863735386,-0.0906263909573,6.91042117245,0.0,0.0,0.0,0.0,0.0,0.0,0.0,0.0,0.0
89932000000,349,89932000000,imu_link,-0.00271277481814,-0.383097758588,0.00674522291767,0.923679192244,0.0,0.0,0.0,0.0,0.0,0.0,0.0,0.0,0.0,0.00219524774892,-0.00191178281601,0.000450305172425,0.0,0.0,0.0,0.0,0.0,0.0,0.0,0.0,0.0,6.83094390833,-0.0908609380236,6.92039399342,0.0,0.0,0.0,0.0,0.0,0.0,0.0,0.0,0.0
89936000000,350,89936000000,imu_link,-0.00270943663553,-0.383102628385,0.0067476020145,0.923677164893,0.0,0.0,0.0,0.0,0.0,0.0,0.0,0.0,0.0,0.00197824443317,-0.00265188745659,0.000459568121941,0.0,0.0,0.0,0.0,0.0,0.0,0.0,0.0,0.0,6.83051062251,-0.0910942618114,6.92165432441,0.0,0.0,0.0,0.0,0.0,0.0,0.0,0.0,0.0
89940000000,351,89940000000,imu_link,-0.00270639477749,-0.383108919495,0.00674988194098,0.923674547838,0.0,0.0,0.0,0.0,0.0,0.0,0.0,0.0,0.0,0.00181679999376,-0.00342012875722,0.000470592845648,0.0,0.0,0.0,0.0,0.0,0.0,0.0,0.0,0.0,6.82969393205,-0.0912590601437,6.91951767152,0.0,0.0,0.0,0.0,0.0,0.0,0.0,0.0,0.0
89944000000,352,89944000000,imu_link,-0.00270350804696,-0.38311631676,0.00675211094646,0.923671471831,0.0,0.0,0.0,0.0,0.0,0.0,0.0,0.0,0.0,0.00173104791826,-0.00401831447461,0.00047684309204,0.0,0.0,0.0,0.0,0.0,0.0,0.0,0.0,0.0,6.82961569854,-0.0914080726248,6.91505173278,0.0,0.0,0.0,0.0,0.0,0.0,0.0,0.0,0.0
89948000000,353,89948000000,imu_link,-0.0027008737652,-0.383124481286,0.00675429769963,0.923668077062,0.0,0.0,0.0,0.0,0.0,0.0,0.0,0.0,0.0,0.00160334308279,-0.0044328151941,0.000505727096349,0.0,0.0,0.0,0.0,0.0,0.0,0.0,0.0,0.0,6.83116731058,-0.0915199390608,6.91352595226,0.0,0.0,0.0,0.0,0.0,0.0,0.0,0.0,0.0
89952000000,354,89952000000,imu_link,-0.00269882193021,-0.383133292679,0.0067564338475,0.923664412545,0.0,0.0,0.0,0.0,0.0,0.0,0.0,0.0,0.0,0.00132210642993,-0.00478119799932,0.000593968075788,0.0,0.0,0.0,0.0,0.0,0.0,0.0,0.0,0.0,6.83162952465,-0.0915870925347,6.91261572237,0.0,0.0,0.0,0.0,0.0,0.0,0.0,0.0,0.0
89956000000,355,89956000000,imu_link,-0.00269776326806,-0.383142937129,0.0067584771687,0.92366040014,0.0,0.0,0.0,0.0,0.0,0.0,0.0,0.0,0.0,0.000842361033579,-0.00522909453388,0.000741407629365,0.0,0.0,0.0,0.0,0.0,0.0,0.0,0.0,0.0,6.83295193539,-0.0916963386506,6.91584380444,0.0,0.0,0.0,0.0,0.0,0.0,0.0,0.0,0.0
89960000000,356,89960000000,imu_link,-0.00269786210117,-0.38315359781,0.00676039420635,0.923655963601,0.0,0.0,0.0,0.0,0.0,0.0,0.0,0.0,0.0,0.000279596253382,-0.00577559036344,0.00090489161425,0.0,0.0,0.0,0.0,0.0,0.0,0.0,0.0,0.0,6.83294042397,-0.0918767565663,6.91656006588,0.0,0.0,0.0,0.0,0.0,0.0,0.0,0.0,0.0
89964000000,357,89964000000,imu_link,-0.00269905219833,-0.383165285435,0.00676218983147,0.923651098599,0.0,0.0,0.0,0.0,0.0,0.0,0.0,0.0,0.0,-0.000251689084816,-0.00632809320754,0.00105794379204,0.0,0.0,0.0,0.0,0.0,0.0,0.0,0.0,0.0,6.83307384378,-0.0921098960145,6.91599886091,0.0,0.0,0.0,0.0,0.0,0.0,0.0,0.0,0.0
89968000000,358,89968000000,imu_link,-0.00270111681431,-0.383177847446,0.00676389972689,0.923645868748,0.0,0.0,0.0,0.0,0.0,0.0,0.0,0.0,0.0,-0.000675437298476,-0.00679873347723,0.00118594783743,0.0,0.0,0.0,0.0,0.0,0.0,0.0,0.0,0.0,6.83256115301,-0.0923633464126,6.91262566257,0.0,0.0,0.0,0.0,0.0,0.0,0.0,0.0,0.0
89972000000,359,89972000000,imu_link,-0.00270380518398,-0.383191026584,0.00676557291131,0.923640381104,0.0,0.0,0.0,0.0,0.0,0.0,0.0,0.0,0.0,-0.000972969732871,-0.00713096758974,0.00128853653451,0.0,0.0,0.0,0.0,0.0,0.0,0.0,0.0,0.0,6.83252903948,-0.0926208825444,6.90918539894,0.0,0.0,0.0,0.0,0.0,0.0,0.0,0.0,0.0
89976000000,360,89976000000,imu_link,-0.00270699874324,-0.383204607654,0.00676724408264,0.923634725007,0.0,0.0,0.0,0.0,0.0,0.0,0.0,0.0,0.0,-0.00120824956868,-0.00734715133643,0.00138442537456,0.0,0.0,0.0,0.0,0.0,0.0,0.0,0.0,0.0,6.83295643668,-0.0928242896263,6.90714208128,0.0,0.0,0.0,0.0,0.0,0.0,0.0,0.0,0.0
89980000000,361,89980000000,imu_link,-0.00271079517247,-0.383218460223,0.00676890766451,0.923628954301,0.0,0.0,0.0,0.0,0.0,0.0,0.0,0.0,0.0,-0.00148919331914,-0.00749244314998,0.00149645202133,0.0,0.0,0.0,0.0,0.0,0.0,0.0,0.0,0.0,6.83250463531,-0.0929646816359,6.9041567829,0.0,0.0,0.0,0.0,0.0,0.0,0.0,0.0,0.0
89984000000,362,89984000000,imu_link,-0.00271533982746,-0.383232338646,0.00677054492515,0.923623170599,0.0,0.0,0.0,0.0,0.0,0.0,0.0,0.0,0.0,-0.00183988331809,-0.0075043057723,0.00162767240131,0.0,0.0,0.0,0.0,0.0,0.0,0.0,0.0,0.0,6.83255305769,-0.0930691312819,6.90114649114,0.0,0.0,0.0,0.0,0.0,0.0,0.0,0.0,0.0
89988000000,363,89988000000,imu_link,-0.00272082138513,-0.38324591942,0.0067721220967,0.923617507814,0.0,0.0,0.0,0.0,0.0,0.0,0.0,0.0,0.0,-0.00228289807699,-0.00734042423148,0.00177944303519,0.0,0.0,0.0,0.0,0.0,0.0,0.0,0.0,0.0,6.83286489887,-0.0931589546832,6.89804434233,0.0,0.0,0.0,0.0,0.0,0.0,0.0,0.0,0.0
89992000000,364,89992000000,imu_link,-0.00272691804884,-0.383259157081,0.00677364276372,0.923611985736,0.0,0.0,0.0,0.0,0.0,0.0,0.0,0.0,0.0,-0.00257643377953,-0.00715284970217,0.00187120752419,0.0,0.0,0.0,0.0,0.0,0.0,0.0,0.0,0.0,6.83285965482,-0.0933567898439,6.89715823716,0.0,0.0,0.0,0.0,0.0,0.0,0.0,0.0,0.0
89996000000,365,89996000000,imu_link,-0.00273316757221,-0.383272207624,0.0067751149643,0.923606540944,0.0,0.0,0.0,0.0,0.0,0.0,0.0,0.0,0.0,-0.002655573778,-0.00705104354279,0.00187811123746,0.0,0.0,0.0,0.0,0.0,0.0,0.0,0.0,0.0,6.83417666363,-0.0935505097809,6.90051004564,0.0,0.0,0.0,0.0,0.0,0.0,0.0,0.0,0.0
90000000000,366,90000000000,imu_link,-0.00273922231318,-0.383285230728,0.00677654632879,0.923601108156,0.0,0.0,0.0,0.0,0.0,0.0,0.0,0.0,0.0,-0.0025733389432,-0.00703667594814,0.00182192249511,0.0,0.0,0.0,0.0,0.0,0.0,0.0,0.0,0.0,6.83443153621,-0.0936518270298,6.90203282455,0.0,0.0,0.0,0.0,0.0,0.0,0.0,0.0,0.0
90004000000,367,90004000000,imu_link,-0.00274520939495,-0.383298026624,0.00677792403025,0.923595769998,0.0,0.0,0.0,0.0,0.0,0.0,0.0,0.0,0.0,-0.0025514785602,-0.00691377110157,0.00178416504326,0.0,0.0,0.0,0.0,0.0,0.0,0.0,0.0,0.0,6.83427448081,-0.0936264529399,6.89913354685,0.0,0.0,0.0,0.0,0.0,0.0,0.0,0.0,0.0
90008000000,368,90008000000,imu_link,-0.00275147522009,-0.383310299132,0.00677922485509,0.923590648542,0.0,0.0,0.0,0.0,0.0,0.0,0.0,0.0,0.0,-0.00269286379822,-0.00662949127886,0.00180206848192,0.0,0.0,0.0,0.0,0.0,0.0,0.0,0.0,0.0,6.83497687734,-0.0935819304534,6.89696972757,0.0,0.0,0.0,0.0,0.0,0.0,0.0,0.0,0.0
90012000000,369,90012000000,imu_link,-0.00275854418059,-0.383321693734,0.00678041049543,0.923585889661,0.0,0.0,0.0,0.0,0.0,0.0,0.0,0.0,0.0,-0.00308234908734,-0.00615170815632,0.00190278062966,0.0,0.0,0.0,0.0,0.0,0.0,0.0,0.0,0.0,6.8360982369,-0.0935535061886,6.89517261312,0.0,0.0,0.0,0.0,0.0,0.0,0.0,0.0,0.0
90016000000,370,90016000000,imu_link,-0.00276658213345,-0.383332280688,0.00678145523282,0.923581463906,0.0,0.0,0.0,0.0,0.0,0.0,0.0,0.0,0.0,-0.00355363093237,-0.00571141491506,0.00202341512949,0.0,0.0,0.0,0.0,0.0,0.0,0.0,0.0,0.0,6.83555857038,-0.0936746332815,6.89454862676,0.0,0.0,0.0,0.0,0.0,0.0,0.0,0.0,0.0
90020000000,371,90020000000,imu_link,-0.00277542378522,-0.383342378971,0.00678238950974,0.923577239163,0.0,0.0,0.0,0.0,0.0,0.0,0.0,0.0,0.0,-0.00394400817328,-0.00544434677969,0.00212644178361,0.0,0.0,0.0,0.0,0.0,0.0,0.0,0.0,0.0,6.83557048445,-0.0939099198301,6.89701263514,0.0,0.0,0.0,0.0,0.0,0.0,0.0,0.0,0.0
90024000000,372,90024000000,imu_link,-0.00278450015042,-0.383352434905,0.0067833150291,0.92357303114,0.0,0.0,0.0,0.0,0.0,0.0,0.0,0.0,0.0,-0.00405390791274,-0.00542077701555,0.00216738750819,0.0,0.0,0.0,0.0,0.0,0.0,0.0,0.0,0.0,6.83624899911,-0.0941935733688,6.90159795827,0.0,0.0,0.0,0.0,0.0,0.0,0.0,0.0,0.0
90028000000,373,90028000000,imu_link,-0.00279315123706,-0.383362724484,0.00678430745095,0.923568726709,0.0,0.0,0.0,0.0,0.0,0.0,0.0,0.0,0.0,-0.00384562306216,-0.00554868644267,0.0021167680821,0.0,0.0,0.0,0.0,0.0,0.0,0.0,0.0,0.0,6.83693197354,-0.0943421344131,6.90461703792,0.0,0.0,0.0,0.0,0.0,0.0,0.0,0.0,0.0
90032000000,374,90032000000,imu_link,-0.00280107783857,-0.383373148499,0.006785351317,0.923564368077,0.0,0.0,0.0,0.0,0.0,0.0,0.0,0.0,0.0,-0.00350173798199,-0.00562368497168,0.00200165001957,0.0,0.0,0.0,0.0,0.0,0.0,0.0,0.0,0.0,6.8358589148,-0.0942711828816,6.90125390866,0.0,0.0,0.0,0.0,0.0,0.0,0.0,0.0,0.0
90036000000,375,90036000000,imu_link,-0.00280838136022,-0.383383383642,0.00678640613366,0.923560089454,0.0,0.0,0.0,0.0,0.0,0.0,0.0,0.0,0.0,-0.00321115889063,-0.00552326027637,0.00188726384494,0.0,0.0,0.0,0.0,0.0,0.0,0.0,0.0,0.0,6.83548225321,-0.0941261704322,6.89677316109,0.0,0.0,0.0,0.0,0.0,0.0,0.0,0.0,0.0
90040000000,376,90040000000,imu_link,-0.00281546134703,-0.383393182748,0.00678739716394,0.923555992802,0.0,0.0,0.0,0.0,0.0,0.0,0.0,0.0,0.0,-0.00311842718853,-0.00528769325983,0.00181495361815,0.0,0.0,0.0,0.0,0.0,0.0,0.0,0.0,0.0,6.83606459888,-0.093971857277,6.8949220137,0.0,0.0,0.0,0.0,0.0,0.0,0.0,0.0,0.0
90044000000,377,90044000000,imu_link,-0.00282255984725,-0.383402630168,0.00678824793448,0.923552042944,0.0,0.0,0.0,0.0,0.0,0.0,0.0,0.0,0.0,-0.00315246343167,-0.00509689278849,0.00175373061728,0.0,0.0,0.0,0.0,0.0,0.0,0.0,0.0,0.0,6.83537616832,-0.0939019142006,6.89384819502,0.0,0.0,0.0,0.0,0.0,0.0,0.0,0.0,0.0
90048000000,378,90048000000,imu_link,-0.00282965438304,-0.383411962105,0.0067889282531,0.923548142126,0.0,0.0,0.0,0.0,0.0,0.0,0.0,0.0,0.0,-0.00318284743258,-0.00503393692481,0.00167425655291,0.0,0.0,0.0,0.0,0.0,0.0,0.0,0.0,0.0,6.83478617037,-0.0939125013379,6.8943666399,0.0,0.0,0.0,0.0,0.0,0.0,0.0,0.0,0.0
90052000000,379,90052000000,imu_link,-0.00283655344137,-0.38342136508,0.00678947479703,0.923544213233,0.0,0.0,0.0,0.0,0.0,0.0,0.0,0.0,0.0,-0.00311850727858,-0.00507259683483,0.00157500345888,0.0,0.0,0.0,0.0,0.0,0.0,0.0,0.0,0.0,6.83435279238,-0.0939565136176,6.89456172983,0.0,0.0,0.0,0.0,0.0,0.0,0.0,0.0,0.0
90056000000,380,90056000000,imu_link,-0.00284304187132,-0.383430775949,0.00678995013322,0.923540282687,0.0,0.0,0.0,0.0,0.0,0.0,0.0,0.0,0.0,-0.00294257097178,-0.00507785231413,0.00146339428392,0.0,0.0,0.0,0.0,0.0,0.0,0.0,0.0,0.0,6.8348815502,-0.0939757039845,6.89405115488,0.0,0.0,0.0,0.0,0.0,0.0,0.0,0.0,0.0
90060000000,381,90060000000,imu_link,-0.00284906520601,-0.38343996395,0.00679038027553,0.923536446281,0.0,0.0,0.0,0.0,0.0,0.0,0.0,0.0,0.0,-0.00273557777484,-0.00495840485755,0.00135335638902,0.0,0.0,0.0,0.0,0.0,0.0,0.0,0.0,0.0,6.83534353252,-0.0939694591025,6.89165110174,0.0,0.0,0.0,0.0,0.0,0.0,0.0,0.0,0.0
90064000000,382,90064000000,imu_link,-0.0028547392636,-0.383448681237,0.00679077183909,0.923532806531,0.0,0.0,0.0,0.0,0.0,0.0,0.0,0.0,0.0,-0.00257981072632,-0.0047044723704,0.00126858141329,0.0,0.0,0.0,0.0,0.0,0.0,0.0,0.0,0.0,6.83598333869,-0.093956882336,6.88980170367,0.0,0.0,0.0,0.0,0.0,0.0,0.0,0.0,0.0
90068000000,383,90068000000,imu_link,-0.0028602156783,-0.38345676706,0.00679113051195,0.923529429693,0.0,0.0,0.0,0.0,0.0,0.0,0.0,0.0,0.0,-0.00249233248652,-0.00436310087075,0.00121550928676,0.0,0.0,0.0,0.0,0.0,0.0,0.0,0.0,0.0,6.83574786327,-0.093949605052,6.88695668045,0.0,0.0,0.0,0.0,0.0,0.0,0.0,0.0,0.0
90072000000,384,90072000000,imu_link,-0.00286553076265,-0.383464170288,0.00679148099126,0.923526336725,0.0,0.0,0.0,0.0,0.0,0.0,0.0,0.0,0.0,-0.0024166830007,-0.00399401276171,0.00118080646588,0.0,0.0,0.0,0.0,0.0,0.0,0.0,0.0,0.0,6.83564569487,-0.0939363834934,6.88575688815,0.0,0.0,0.0,0.0,0.0,0.0,0.0,0.0,0.0
